"success","rt","trial_type","trial_index","time_elapsed","internal_node_id","unique_identifier","subject_id","study_id","session_id","stimulus","response","timeout","failed_images","failed_audio","failed_video","task","respondedwhen","time_manipulation","correctresponse","targetimagelocation","blocktype","correct","roundtype"
"true","4654","fullscreen","0","5662","0.0-0.0","bYlzHPOxUs","63e541874bfc845f9ff78828","6617fad957f7c6a12ea16e26","6622cfddd663757775a67a56","","","","","","","","","","","","","",""
"","12987","html-keyboard-response","1","18653","0.0-1.0","bYlzHPOxUs","63e541874bfc845f9ff78828","6617fad957f7c6a12ea16e26","6622cfddd663757775a67a56","instruction screen 0","enter","","","","","","","","","","","",""
"true","","preload","2","20657","0.0-2.0","bYlzHPOxUs","63e541874bfc845f9ff78828","6617fad957f7c6a12ea16e26","6622cfddd663757775a67a56","","","false","[]","[]","[]","","","","","","","",""
"","15128","html-keyboard-response","3","35786","0.0-3.0","bYlzHPOxUs","63e541874bfc845f9ff78828","6617fad957f7c6a12ea16e26","6622cfddd663757775a67a56","instruction screen 1","enter","","","","","","","","","","","",""
"","9564","html-keyboard-response","4","45354","0.0-4.0","bYlzHPOxUs","63e541874bfc845f9ff78828","6617fad957f7c6a12ea16e26","6622cfddd663757775a67a56","instruction screen 2","q","","","","","","","","","","","",""
"","5097","html-keyboard-response","5","50460","0.0-5.0","bYlzHPOxUs","63e541874bfc845f9ff78828","6617fad957f7c6a12ea16e26","6622cfddd663757775a67a56","instruction screen 3","p","","","","","","","","","","","",""
"","19174","html-keyboard-response","6","69641","0.0-6.0","bYlzHPOxUs","63e541874bfc845f9ff78828","6617fad957f7c6a12ea16e26","6622cfddd663757775a67a56","instruction screen 4"," ","","","","","","","","","","","",""
"","9360","html-keyboard-response","7","79049","0.0-7.0","bYlzHPOxUs","63e541874bfc845f9ff78828","6617fad957f7c6a12ea16e26","6622cfddd663757775a67a56","instruction screen 5","enter","","","","","","","","","","","",""
"","null","html-keyboard-response","8","79592","0.0-8.0","bYlzHPOxUs","63e541874bfc845f9ff78828","6617fad957f7c6a12ea16e26","6622cfddd663757775a67a56","fixation cross","null","","","","","","","","","","","",""
"","null","html-keyboard-response","9","80093","0.0-9.0-0.0","bYlzHPOxUs","63e541874bfc845f9ff78828","6617fad957f7c6a12ea16e26","6622cfddd663757775a67a56","fixation cross","null","","","","","","","","","","","",""
"","null","html-keyboard-response","10","83095","0.0-9.0-1.0","bYlzHPOxUs","63e541874bfc845f9ff78828","6617fad957f7c6a12ea16e26","6622cfddd663757775a67a56","
        <div id=""grid-container"">
        <!-- Grid items will be dynamically added here -->
    </div>    ","null","","","","","","","","","","","",""
"","3000","html-keyboard-response","11","88110","0.0-9.0-2.0","bYlzHPOxUs","63e541874bfc845f9ff78828","6617fad957f7c6a12ea16e26","6622cfddd663757775a67a56","mask grid","null","","","","","Phylogenetic_Distractor_Threat_target","onmask","3000","q","1","Ontogenetic","false","practice"
"","null","html-keyboard-response","12","89367","0.0-9.0-3.0","bYlzHPOxUs","63e541874bfc845f9ff78828","6617fad957f7c6a12ea16e26","6622cfddd663757775a67a56","feedback screen","null","","","","","","","","","","","",""
"","null","html-keyboard-response","13","89887","0.0-9.0-0.1","bYlzHPOxUs","63e541874bfc845f9ff78828","6617fad957f7c6a12ea16e26","6622cfddd663757775a67a56","fixation cross","null","","","","","","","","","","","",""
"","null","html-keyboard-response","14","92789","0.0-9.0-1.1","bYlzHPOxUs","63e541874bfc845f9ff78828","6617fad957f7c6a12ea16e26","6622cfddd663757775a67a56","
        <div id=""grid-container"">
        <!-- Grid items will be dynamically added here -->
    </div>    ","null","","","","","","","","","","","",""
"","2900","html-keyboard-response","15","97798","0.0-9.0-2.1","bYlzHPOxUs","63e541874bfc845f9ff78828","6617fad957f7c6a12ea16e26","6622cfddd663757775a67a56","mask grid","null","","","","","Phylogenetic_Distractor_Nonthreat_target","onmask","2900","p","6","Ontogenetic","false","practice"
"","null","html-keyboard-response","16","99020","0.0-9.0-3.1","bYlzHPOxUs","63e541874bfc845f9ff78828","6617fad957f7c6a12ea16e26","6622cfddd663757775a67a56","feedback screen","null","","","","","","","","","","","",""
"","null","html-keyboard-response","17","99539","0.0-9.0-0.2","bYlzHPOxUs","63e541874bfc845f9ff78828","6617fad957f7c6a12ea16e26","6622cfddd663757775a67a56","fixation cross","null","","","","","","","","","","","",""
"","null","html-keyboard-response","18","102340","0.0-9.0-1.2","bYlzHPOxUs","63e541874bfc845f9ff78828","6617fad957f7c6a12ea16e26","6622cfddd663757775a67a56","
        <div id=""grid-container"">
        <!-- Grid items will be dynamically added here -->
    </div>    ","null","","","","","","","","","","","",""
"","3089","html-keyboard-response","19","102630","0.0-9.0-2.2","bYlzHPOxUs","63e541874bfc845f9ff78828","6617fad957f7c6a12ea16e26","6622cfddd663757775a67a56","mask grid"," ","","","","","Ontogenetic_Distractor_notarget","onmask","2800"," ","3","Ontogenetic","true","practice"
"","null","html-keyboard-response","20","103836","0.0-9.0-3.2","bYlzHPOxUs","63e541874bfc845f9ff78828","6617fad957f7c6a12ea16e26","6622cfddd663757775a67a56","feedback screen","null","","","","","","","","","","","",""
"","null","html-keyboard-response","21","104356","0.0-9.0-0.3","bYlzHPOxUs","63e541874bfc845f9ff78828","6617fad957f7c6a12ea16e26","6622cfddd663757775a67a56","fixation cross","null","","","","","","","","","","","",""
"","2702","html-keyboard-response","22","107058","0.0-9.0-1.3","bYlzHPOxUs","63e541874bfc845f9ff78828","6617fad957f7c6a12ea16e26","6622cfddd663757775a67a56","image grid"," ","","","","","Phylogenetic_Distractor_Nonthreat_target","ongrid","2700","p","4","Ontogenetic","false","practice"
"","null","html-keyboard-response","23","107211","0.0-9.0-2.3","bYlzHPOxUs","63e541874bfc845f9ff78828","6617fad957f7c6a12ea16e26","6622cfddd663757775a67a56","
    <div id=""grid-container"">
        <!-- Grid items will be dynamically added here -->
    </div>    ","null","","","","","","","","","","","",""
"","null","html-keyboard-response","24","108419","0.0-9.0-3.3","bYlzHPOxUs","63e541874bfc845f9ff78828","6617fad957f7c6a12ea16e26","6622cfddd663757775a67a56","feedback screen","null","","","","","","","","","","","",""
"","null","html-keyboard-response","25","108927","0.0-9.0-0.4","bYlzHPOxUs","63e541874bfc845f9ff78828","6617fad957f7c6a12ea16e26","6622cfddd663757775a67a56","fixation cross","null","","","","","","","","","","","",""
"","null","html-keyboard-response","26","111533","0.0-9.0-1.4","bYlzHPOxUs","63e541874bfc845f9ff78828","6617fad957f7c6a12ea16e26","6622cfddd663757775a67a56","
        <div id=""grid-container"">
        <!-- Grid items will be dynamically added here -->
    </div>    ","null","","","","","","","","","","","",""
"","2600","html-keyboard-response","27","116547","0.0-9.0-2.4","bYlzHPOxUs","63e541874bfc845f9ff78828","6617fad957f7c6a12ea16e26","6622cfddd663757775a67a56","mask grid","null","","","","","Ontogenetic_Distractor_Threat_target","onmask","2600","q","2","Ontogenetic","false","practice"
"","null","html-keyboard-response","28","117774","0.0-9.0-3.4","bYlzHPOxUs","63e541874bfc845f9ff78828","6617fad957f7c6a12ea16e26","6622cfddd663757775a67a56","feedback screen","null","","","","","","","","","","","",""
"","null","html-keyboard-response","29","118291","0.0-9.0-0.5","bYlzHPOxUs","63e541874bfc845f9ff78828","6617fad957f7c6a12ea16e26","6622cfddd663757775a67a56","fixation cross","null","","","","","","","","","","","",""
"","2104","html-keyboard-response","30","120395","0.0-9.0-1.5","bYlzHPOxUs","63e541874bfc845f9ff78828","6617fad957f7c6a12ea16e26","6622cfddd663757775a67a56","image grid","q","","","","","Phylogenetic_Distractor_Threat_target","ongrid","2500","q","8","Ontogenetic","true","practice"
"","null","html-keyboard-response","31","120555","0.0-9.0-2.5","bYlzHPOxUs","63e541874bfc845f9ff78828","6617fad957f7c6a12ea16e26","6622cfddd663757775a67a56","
    <div id=""grid-container"">
        <!-- Grid items will be dynamically added here -->
    </div>    ","null","","","","","","","","","","","",""
"","null","html-keyboard-response","32","121767","0.0-9.0-3.5","bYlzHPOxUs","63e541874bfc845f9ff78828","6617fad957f7c6a12ea16e26","6622cfddd663757775a67a56","feedback screen","null","","","","","","","","","","","",""
"","null","html-keyboard-response","33","122271","0.0-9.0-0.6","bYlzHPOxUs","63e541874bfc845f9ff78828","6617fad957f7c6a12ea16e26","6622cfddd663757775a67a56","fixation cross","null","","","","","","","","","","","",""
"","null","html-keyboard-response","34","124683","0.0-9.0-1.6","bYlzHPOxUs","63e541874bfc845f9ff78828","6617fad957f7c6a12ea16e26","6622cfddd663757775a67a56","
        <div id=""grid-container"">
        <!-- Grid items will be dynamically added here -->
    </div>    ","null","","","","","","","","","","","",""
"","5531","html-keyboard-response","35","127815","0.0-9.0-2.6","bYlzHPOxUs","63e541874bfc845f9ff78828","6617fad957f7c6a12ea16e26","6622cfddd663757775a67a56","mask grid"," ","","","","","Phylogenetic_Distractor_Nonthreat_target","onmask","2400","p","3","Ontogenetic","false","practice"
"","null","html-keyboard-response","36","129025","0.0-9.0-3.6","bYlzHPOxUs","63e541874bfc845f9ff78828","6617fad957f7c6a12ea16e26","6622cfddd663757775a67a56","feedback screen","null","","","","","","","","","","","",""
"","null","html-keyboard-response","37","129543","0.0-9.0-0.7","bYlzHPOxUs","63e541874bfc845f9ff78828","6617fad957f7c6a12ea16e26","6622cfddd663757775a67a56","fixation cross","null","","","","","","","","","","","",""
"","2161","html-keyboard-response","38","131705","0.0-9.0-1.7","bYlzHPOxUs","63e541874bfc845f9ff78828","6617fad957f7c6a12ea16e26","6622cfddd663757775a67a56","image grid","p","","","","","Phylogenetic_Distractor_notarget","ongrid","2300"," ","5","Ontogenetic","false","practice"
"","null","html-keyboard-response","39","131860","0.0-9.0-2.7","bYlzHPOxUs","63e541874bfc845f9ff78828","6617fad957f7c6a12ea16e26","6622cfddd663757775a67a56","
    <div id=""grid-container"">
        <!-- Grid items will be dynamically added here -->
    </div>    ","null","","","","","","","","","","","",""
"","null","html-keyboard-response","40","133071","0.0-9.0-3.7","bYlzHPOxUs","63e541874bfc845f9ff78828","6617fad957f7c6a12ea16e26","6622cfddd663757775a67a56","feedback screen","null","","","","","","","","","","","",""
"","null","html-keyboard-response","41","133579","0.0-9.0-0.8","bYlzHPOxUs","63e541874bfc845f9ff78828","6617fad957f7c6a12ea16e26","6622cfddd663757775a67a56","fixation cross","null","","","","","","","","","","","",""
"","2114","html-keyboard-response","42","135693","0.0-9.0-1.8","bYlzHPOxUs","63e541874bfc845f9ff78828","6617fad957f7c6a12ea16e26","6622cfddd663757775a67a56","image grid","q","","","","","Phylogenetic_Distractor_Threat_target","ongrid","2200","q","9","Ontogenetic","true","practice"
"","null","html-keyboard-response","43","135846","0.0-9.0-2.8","bYlzHPOxUs","63e541874bfc845f9ff78828","6617fad957f7c6a12ea16e26","6622cfddd663757775a67a56","
    <div id=""grid-container"">
        <!-- Grid items will be dynamically added here -->
    </div>    ","null","","","","","","","","","","","",""
"","null","html-keyboard-response","44","137059","0.0-9.0-3.8","bYlzHPOxUs","63e541874bfc845f9ff78828","6617fad957f7c6a12ea16e26","6622cfddd663757775a67a56","feedback screen","null","","","","","","","","","","","",""
"","null","html-keyboard-response","45","137568","0.0-9.0-0.9","bYlzHPOxUs","63e541874bfc845f9ff78828","6617fad957f7c6a12ea16e26","6622cfddd663757775a67a56","fixation cross","null","","","","","","","","","","","",""
"","null","html-keyboard-response","46","139672","0.0-9.0-1.9","bYlzHPOxUs","63e541874bfc845f9ff78828","6617fad957f7c6a12ea16e26","6622cfddd663757775a67a56","
        <div id=""grid-container"">
        <!-- Grid items will be dynamically added here -->
    </div>    ","null","","","","","","","","","","","",""
"","2844","html-keyboard-response","47","140416","0.0-9.0-2.9","bYlzHPOxUs","63e541874bfc845f9ff78828","6617fad957f7c6a12ea16e26","6622cfddd663757775a67a56","mask grid"," ","","","","","Ontogenetic_Distractor_Nonthreat_target","onmask","2100","p","9","Ontogenetic","false","practice"
"","null","html-keyboard-response","48","141633","0.0-9.0-3.9","bYlzHPOxUs","63e541874bfc845f9ff78828","6617fad957f7c6a12ea16e26","6622cfddd663757775a67a56","feedback screen","null","","","","","","","","","","","",""
"","null","html-keyboard-response","49","142144","0.0-9.0-0.10","bYlzHPOxUs","63e541874bfc845f9ff78828","6617fad957f7c6a12ea16e26","6622cfddd663757775a67a56","fixation cross","null","","","","","","","","","","","",""
"","null","html-keyboard-response","50","144161","0.0-9.0-1.10","bYlzHPOxUs","63e541874bfc845f9ff78828","6617fad957f7c6a12ea16e26","6622cfddd663757775a67a56","
        <div id=""grid-container"">
        <!-- Grid items will be dynamically added here -->
    </div>    ","null","","","","","","","","","","","",""
"","2386","html-keyboard-response","51","144548","0.0-9.0-2.10","bYlzHPOxUs","63e541874bfc845f9ff78828","6617fad957f7c6a12ea16e26","6622cfddd663757775a67a56","mask grid","q","","","","","Ontogenetic_Distractor_Threat_target","onmask","2000","q","2","Ontogenetic","true","practice"
"","null","html-keyboard-response","52","145780","0.0-9.0-3.10","bYlzHPOxUs","63e541874bfc845f9ff78828","6617fad957f7c6a12ea16e26","6622cfddd663757775a67a56","feedback screen","null","","","","","","","","","","","",""
"","null","html-keyboard-response","53","146291","0.0-9.0-0.11","bYlzHPOxUs","63e541874bfc845f9ff78828","6617fad957f7c6a12ea16e26","6622cfddd663757775a67a56","fixation cross","null","","","","","","","","","","","",""
"","null","html-keyboard-response","54","148201","0.0-9.0-1.11","bYlzHPOxUs","63e541874bfc845f9ff78828","6617fad957f7c6a12ea16e26","6622cfddd663757775a67a56","
        <div id=""grid-container"">
        <!-- Grid items will be dynamically added here -->
    </div>    ","null","","","","","","","","","","","",""
"","3610","html-keyboard-response","55","149912","0.0-9.0-2.11","bYlzHPOxUs","63e541874bfc845f9ff78828","6617fad957f7c6a12ea16e26","6622cfddd663757775a67a56","mask grid","q","","","","","Ontogenetic_Distractor_notarget","onmask","1900"," ","3","Ontogenetic","false","practice"
"","null","html-keyboard-response","56","151122","0.0-9.0-3.11","bYlzHPOxUs","63e541874bfc845f9ff78828","6617fad957f7c6a12ea16e26","6622cfddd663757775a67a56","feedback screen","null","","","","","","","","","","","",""
"","null","html-keyboard-response","57","151642","0.0-9.0-0.12","bYlzHPOxUs","63e541874bfc845f9ff78828","6617fad957f7c6a12ea16e26","6622cfddd663757775a67a56","fixation cross","null","","","","","","","","","","","",""
"","null","html-keyboard-response","58","153458","0.0-9.0-1.12","bYlzHPOxUs","63e541874bfc845f9ff78828","6617fad957f7c6a12ea16e26","6622cfddd663757775a67a56","
        <div id=""grid-container"">
        <!-- Grid items will be dynamically added here -->
    </div>    ","null","","","","","","","","","","","",""
"","1800","html-keyboard-response","59","158471","0.0-9.0-2.12","bYlzHPOxUs","63e541874bfc845f9ff78828","6617fad957f7c6a12ea16e26","6622cfddd663757775a67a56","mask grid","null","","","","","Ontogenetic_Distractor_Nonthreat_target","onmask","1800","p","6","Ontogenetic","false","practice"
"","null","html-keyboard-response","60","159691","0.0-9.0-3.12","bYlzHPOxUs","63e541874bfc845f9ff78828","6617fad957f7c6a12ea16e26","6622cfddd663757775a67a56","feedback screen","null","","","","","","","","","","","",""
"","null","html-keyboard-response","61","160205","0.0-9.0-0.13","bYlzHPOxUs","63e541874bfc845f9ff78828","6617fad957f7c6a12ea16e26","6622cfddd663757775a67a56","fixation cross","null","","","","","","","","","","","",""
"","null","html-keyboard-response","62","161918","0.0-9.0-1.13","bYlzHPOxUs","63e541874bfc845f9ff78828","6617fad957f7c6a12ea16e26","6622cfddd663757775a67a56","
        <div id=""grid-container"">
        <!-- Grid items will be dynamically added here -->
    </div>    ","null","","","","","","","","","","","",""
"","3345","html-keyboard-response","63","163563","0.0-9.0-2.13","bYlzHPOxUs","63e541874bfc845f9ff78828","6617fad957f7c6a12ea16e26","6622cfddd663757775a67a56","mask grid","p","","","","","Ontogenetic_Distractor_Nonthreat_target","onmask","1700","p","5","Ontogenetic","true","practice"
"","null","html-keyboard-response","64","164783","0.0-9.0-3.13","bYlzHPOxUs","63e541874bfc845f9ff78828","6617fad957f7c6a12ea16e26","6622cfddd663757775a67a56","feedback screen","null","","","","","","","","","","","",""
"","null","html-keyboard-response","65","165296","0.0-9.0-0.14","bYlzHPOxUs","63e541874bfc845f9ff78828","6617fad957f7c6a12ea16e26","6622cfddd663757775a67a56","fixation cross","null","","","","","","","","","","","",""
"","null","html-keyboard-response","66","166898","0.0-9.0-1.14","bYlzHPOxUs","63e541874bfc845f9ff78828","6617fad957f7c6a12ea16e26","6622cfddd663757775a67a56","
        <div id=""grid-container"">
        <!-- Grid items will be dynamically added here -->
    </div>    ","null","","","","","","","","","","","",""
"","4125","html-keyboard-response","67","169424","0.0-9.0-2.14","bYlzHPOxUs","63e541874bfc845f9ff78828","6617fad957f7c6a12ea16e26","6622cfddd663757775a67a56","mask grid","p","","","","","Phylogenetic_Distractor_notarget","onmask","1600"," ","9","Ontogenetic","false","practice"
"","null","html-keyboard-response","68","170653","0.0-9.0-3.14","bYlzHPOxUs","63e541874bfc845f9ff78828","6617fad957f7c6a12ea16e26","6622cfddd663757775a67a56","feedback screen","null","","","","","","","","","","","",""
"","null","html-keyboard-response","69","171161","0.0-9.0-0.15","bYlzHPOxUs","63e541874bfc845f9ff78828","6617fad957f7c6a12ea16e26","6622cfddd663757775a67a56","fixation cross","null","","","","","","","","","","","",""
"","null","html-keyboard-response","70","172663","0.0-9.0-1.15","bYlzHPOxUs","63e541874bfc845f9ff78828","6617fad957f7c6a12ea16e26","6622cfddd663757775a67a56","
        <div id=""grid-container"">
        <!-- Grid items will be dynamically added here -->
    </div>    ","null","","","","","","","","","","","",""
"","1912","html-keyboard-response","71","173076","0.0-9.0-2.15","bYlzHPOxUs","63e541874bfc845f9ff78828","6617fad957f7c6a12ea16e26","6622cfddd663757775a67a56","mask grid","q","","","","","Ontogenetic_Distractor_Threat_target","onmask","1500","q","4","Ontogenetic","true","practice"
"","null","html-keyboard-response","72","174294","0.0-9.0-3.15","bYlzHPOxUs","63e541874bfc845f9ff78828","6617fad957f7c6a12ea16e26","6622cfddd663757775a67a56","feedback screen","null","","","","","","","","","","","",""
"","null","html-keyboard-response","73","174806","0.0-9.0-0.16","bYlzHPOxUs","63e541874bfc845f9ff78828","6617fad957f7c6a12ea16e26","6622cfddd663757775a67a56","fixation cross","null","","","","","","","","","","","",""
"","null","html-keyboard-response","74","176222","0.0-9.0-1.16","bYlzHPOxUs","63e541874bfc845f9ff78828","6617fad957f7c6a12ea16e26","6622cfddd663757775a67a56","
        <div id=""grid-container"">
        <!-- Grid items will be dynamically added here -->
    </div>    ","null","","","","","","","","","","","",""
"","1442","html-keyboard-response","75","176264","0.0-9.0-2.16","bYlzHPOxUs","63e541874bfc845f9ff78828","6617fad957f7c6a12ea16e26","6622cfddd663757775a67a56","mask grid","q","","","","","Ontogenetic_Distractor_Threat_target","onmask","1400","q","9","Ontogenetic","true","practice"
"","null","html-keyboard-response","76","177471","0.0-9.0-3.16","bYlzHPOxUs","63e541874bfc845f9ff78828","6617fad957f7c6a12ea16e26","6622cfddd663757775a67a56","feedback screen","null","","","","","","","","","","","",""
"","null","html-keyboard-response","77","177983","0.0-9.0-0.17","bYlzHPOxUs","63e541874bfc845f9ff78828","6617fad957f7c6a12ea16e26","6622cfddd663757775a67a56","fixation cross","null","","","","","","","","","","","",""
"","null","html-keyboard-response","78","179287","0.0-9.0-1.17","bYlzHPOxUs","63e541874bfc845f9ff78828","6617fad957f7c6a12ea16e26","6622cfddd663757775a67a56","
        <div id=""grid-container"">
        <!-- Grid items will be dynamically added here -->
    </div>    ","null","","","","","","","","","","","",""
"","5554","html-keyboard-response","79","183542","0.0-9.0-2.17","bYlzHPOxUs","63e541874bfc845f9ff78828","6617fad957f7c6a12ea16e26","6622cfddd663757775a67a56","mask grid","p","","","","","Ontogenetic_Distractor_Nonthreat_target","onmask","1300","p","3","Ontogenetic","true","practice"
"","null","html-keyboard-response","80","184758","0.0-9.0-3.17","bYlzHPOxUs","63e541874bfc845f9ff78828","6617fad957f7c6a12ea16e26","6622cfddd663757775a67a56","feedback screen","null","","","","","","","","","","","",""
"","null","html-keyboard-response","81","185279","0.0-9.0-0.18","bYlzHPOxUs","63e541874bfc845f9ff78828","6617fad957f7c6a12ea16e26","6622cfddd663757775a67a56","fixation cross","null","","","","","","","","","","","",""
"","null","html-keyboard-response","82","186480","0.0-9.0-1.18","bYlzHPOxUs","63e541874bfc845f9ff78828","6617fad957f7c6a12ea16e26","6622cfddd663757775a67a56","
        <div id=""grid-container"">
        <!-- Grid items will be dynamically added here -->
    </div>    ","null","","","","","","","","","","","",""
"","1571","html-keyboard-response","83","186851","0.0-9.0-2.18","bYlzHPOxUs","63e541874bfc845f9ff78828","6617fad957f7c6a12ea16e26","6622cfddd663757775a67a56","mask grid","q","","","","","Phylogenetic_Distractor_Threat_target","onmask","1200","q","5","Ontogenetic","true","practice"
"","null","html-keyboard-response","84","188074","0.0-9.0-3.18","bYlzHPOxUs","63e541874bfc845f9ff78828","6617fad957f7c6a12ea16e26","6622cfddd663757775a67a56","feedback screen","null","","","","","","","","","","","",""
"","null","html-keyboard-response","85","188584","0.0-9.0-0.19","bYlzHPOxUs","63e541874bfc845f9ff78828","6617fad957f7c6a12ea16e26","6622cfddd663757775a67a56","fixation cross","null","","","","","","","","","","","",""
"","null","html-keyboard-response","86","189687","0.0-9.0-1.19","bYlzHPOxUs","63e541874bfc845f9ff78828","6617fad957f7c6a12ea16e26","6622cfddd663757775a67a56","
        <div id=""grid-container"">
        <!-- Grid items will be dynamically added here -->
    </div>    ","null","","","","","","","","","","","",""
"","3063","html-keyboard-response","87","191650","0.0-9.0-2.19","bYlzHPOxUs","63e541874bfc845f9ff78828","6617fad957f7c6a12ea16e26","6622cfddd663757775a67a56","mask grid","p","","","","","Phylogenetic_Distractor_Nonthreat_target","onmask","1100","p","4","Ontogenetic","true","practice"
"","null","html-keyboard-response","88","192866","0.0-9.0-3.19","bYlzHPOxUs","63e541874bfc845f9ff78828","6617fad957f7c6a12ea16e26","6622cfddd663757775a67a56","feedback screen","null","","","","","","","","","","","",""
"","8808","html-keyboard-response","89","201724","0.0-10.0","bYlzHPOxUs","63e541874bfc845f9ff78828","6617fad957f7c6a12ea16e26","6622cfddd663757775a67a56","pre-experimental_briefing","enter","","","","","","","","","","","",""
"","null","html-keyboard-response","90","204277","0.0-11.0-0.0","bYlzHPOxUs","63e541874bfc845f9ff78828","6617fad957f7c6a12ea16e26","6622cfddd663757775a67a56","fixation cross","null","","","","","","","","","","","",""
"","null","html-keyboard-response","91","206788","0.0-11.0-1.0","bYlzHPOxUs","63e541874bfc845f9ff78828","6617fad957f7c6a12ea16e26","6622cfddd663757775a67a56","
        <div id=""grid-container"">
        <!-- Grid items will be dynamically added here -->
    </div>    ","null","","","","","","","","","","","",""
"","2896","html-keyboard-response","92","207185","0.0-11.0-2.0","bYlzHPOxUs","63e541874bfc845f9ff78828","6617fad957f7c6a12ea16e26","6622cfddd663757775a67a56","mask grid","p","","","","","Ontogenetic_Distractor_Nonthreat_target","onmask","2500","p","5","Ontogenetic","true","experimental"
"","null","html-keyboard-response","93","207910","0.0-11.0-0.1","bYlzHPOxUs","63e541874bfc845f9ff78828","6617fad957f7c6a12ea16e26","6622cfddd663757775a67a56","fixation cross","null","","","","","","","","","","","",""
"","2009","html-keyboard-response","94","209920","0.0-11.0-1.1","bYlzHPOxUs","63e541874bfc845f9ff78828","6617fad957f7c6a12ea16e26","6622cfddd663757775a67a56","image grid","q","","","","","Ontogenetic_Distractor_Threat_target","ongrid","2500","q","5","Ontogenetic","true","experimental"
"","null","html-keyboard-response","95","210087","0.0-11.0-2.1","bYlzHPOxUs","63e541874bfc845f9ff78828","6617fad957f7c6a12ea16e26","6622cfddd663757775a67a56","
    <div id=""grid-container"">
        <!-- Grid items will be dynamically added here -->
    </div>    ","null","","","","","","","","","","","",""
"","null","html-keyboard-response","96","210816","0.0-11.0-0.2","bYlzHPOxUs","63e541874bfc845f9ff78828","6617fad957f7c6a12ea16e26","6622cfddd663757775a67a56","fixation cross","null","","","","","","","","","","","",""
"","1425","html-keyboard-response","97","212242","0.0-11.0-1.2","bYlzHPOxUs","63e541874bfc845f9ff78828","6617fad957f7c6a12ea16e26","6622cfddd663757775a67a56","image grid","q","","","","","Ontogenetic_Distractor_Threat_target","ongrid","2500","q","6","Ontogenetic","true","experimental"
"","null","html-keyboard-response","98","212396","0.0-11.0-2.2","bYlzHPOxUs","63e541874bfc845f9ff78828","6617fad957f7c6a12ea16e26","6622cfddd663757775a67a56","
    <div id=""grid-container"">
        <!-- Grid items will be dynamically added here -->
    </div>    ","null","","","","","","","","","","","",""
"","null","html-keyboard-response","99","213113","0.0-11.0-0.3","bYlzHPOxUs","63e541874bfc845f9ff78828","6617fad957f7c6a12ea16e26","6622cfddd663757775a67a56","fixation cross","null","","","","","","","","","","","",""
"","1398","html-keyboard-response","100","214512","0.0-11.0-1.3","bYlzHPOxUs","63e541874bfc845f9ff78828","6617fad957f7c6a12ea16e26","6622cfddd663757775a67a56","image grid","q","","","","","Ontogenetic_Distractor_Threat_target","ongrid","2500","q","5","Ontogenetic","true","experimental"
"","null","html-keyboard-response","101","214670","0.0-11.0-2.3","bYlzHPOxUs","63e541874bfc845f9ff78828","6617fad957f7c6a12ea16e26","6622cfddd663757775a67a56","
    <div id=""grid-container"">
        <!-- Grid items will be dynamically added here -->
    </div>    ","null","","","","","","","","","","","",""
"","null","html-keyboard-response","102","215386","0.0-11.0-0.4","bYlzHPOxUs","63e541874bfc845f9ff78828","6617fad957f7c6a12ea16e26","6622cfddd663757775a67a56","fixation cross","null","","","","","","","","","","","",""
"","1320","html-keyboard-response","103","216707","0.0-11.0-1.4","bYlzHPOxUs","63e541874bfc845f9ff78828","6617fad957f7c6a12ea16e26","6622cfddd663757775a67a56","image grid","q","","","","","Ontogenetic_Distractor_Threat_target","ongrid","2500","q","9","Ontogenetic","true","experimental"
"","null","html-keyboard-response","104","216866","0.0-11.0-2.4","bYlzHPOxUs","63e541874bfc845f9ff78828","6617fad957f7c6a12ea16e26","6622cfddd663757775a67a56","
    <div id=""grid-container"">
        <!-- Grid items will be dynamically added here -->
    </div>    ","null","","","","","","","","","","","",""
"","null","html-keyboard-response","105","217588","0.0-11.0-0.5","bYlzHPOxUs","63e541874bfc845f9ff78828","6617fad957f7c6a12ea16e26","6622cfddd663757775a67a56","fixation cross","null","","","","","","","","","","","",""
"","null","html-keyboard-response","106","220096","0.0-11.0-1.5","bYlzHPOxUs","63e541874bfc845f9ff78828","6617fad957f7c6a12ea16e26","6622cfddd663757775a67a56","
        <div id=""grid-container"">
        <!-- Grid items will be dynamically added here -->
    </div>    ","null","","","","","","","","","","","",""
"","6064","html-keyboard-response","107","223661","0.0-11.0-2.5","bYlzHPOxUs","63e541874bfc845f9ff78828","6617fad957f7c6a12ea16e26","6622cfddd663757775a67a56","mask grid","p","","","","","Ontogenetic_Distractor_Nonthreat_target","onmask","2500","p","8","Ontogenetic","true","experimental"
"","null","html-keyboard-response","108","224388","0.0-11.0-0.6","bYlzHPOxUs","63e541874bfc845f9ff78828","6617fad957f7c6a12ea16e26","6622cfddd663757775a67a56","fixation cross","null","","","","","","","","","","","",""
"","null","html-keyboard-response","109","226892","0.0-11.0-1.6","bYlzHPOxUs","63e541874bfc845f9ff78828","6617fad957f7c6a12ea16e26","6622cfddd663757775a67a56","
        <div id=""grid-container"">
        <!-- Grid items will be dynamically added here -->
    </div>    ","null","","","","","","","","","","","",""
"","3512","html-keyboard-response","110","227905","0.0-11.0-2.6","bYlzHPOxUs","63e541874bfc845f9ff78828","6617fad957f7c6a12ea16e26","6622cfddd663757775a67a56","mask grid","q","","","","","Ontogenetic_Distractor_Nonthreat_target","onmask","2500","p","1","Ontogenetic","false","experimental"
"","null","html-keyboard-response","111","228615","0.0-11.0-0.7","bYlzHPOxUs","63e541874bfc845f9ff78828","6617fad957f7c6a12ea16e26","6622cfddd663757775a67a56","fixation cross","null","","","","","","","","","","","",""
"","null","html-keyboard-response","112","231119","0.0-11.0-1.7","bYlzHPOxUs","63e541874bfc845f9ff78828","6617fad957f7c6a12ea16e26","6622cfddd663757775a67a56","
        <div id=""grid-container"">
        <!-- Grid items will be dynamically added here -->
    </div>    ","null","","","","","","","","","","","",""
"","3155","html-keyboard-response","113","231775","0.0-11.0-2.7","bYlzHPOxUs","63e541874bfc845f9ff78828","6617fad957f7c6a12ea16e26","6622cfddd663757775a67a56","mask grid","q","","","","","Ontogenetic_Distractor_notarget","onmask","2500"," ","8","Ontogenetic","false","experimental"
"","null","html-keyboard-response","114","232485","0.0-11.0-0.8","bYlzHPOxUs","63e541874bfc845f9ff78828","6617fad957f7c6a12ea16e26","6622cfddd663757775a67a56","fixation cross","null","","","","","","","","","","","",""
"","2003","html-keyboard-response","115","234489","0.0-11.0-1.8","bYlzHPOxUs","63e541874bfc845f9ff78828","6617fad957f7c6a12ea16e26","6622cfddd663757775a67a56","image grid","q","","","","","Ontogenetic_Distractor_Threat_target","ongrid","2500","q","6","Ontogenetic","true","experimental"
"","null","html-keyboard-response","116","234650","0.0-11.0-2.8","bYlzHPOxUs","63e541874bfc845f9ff78828","6617fad957f7c6a12ea16e26","6622cfddd663757775a67a56","
    <div id=""grid-container"">
        <!-- Grid items will be dynamically added here -->
    </div>    ","null","","","","","","","","","","","",""
"","null","html-keyboard-response","117","235368","0.0-11.0-0.9","bYlzHPOxUs","63e541874bfc845f9ff78828","6617fad957f7c6a12ea16e26","6622cfddd663757775a67a56","fixation cross","null","","","","","","","","","","","",""
"","1034","html-keyboard-response","118","236403","0.0-11.0-1.9","bYlzHPOxUs","63e541874bfc845f9ff78828","6617fad957f7c6a12ea16e26","6622cfddd663757775a67a56","image grid","q","","","","","Ontogenetic_Distractor_Threat_target","ongrid","2500","q","8","Ontogenetic","true","experimental"
"","null","html-keyboard-response","119","236570","0.0-11.0-2.9","bYlzHPOxUs","63e541874bfc845f9ff78828","6617fad957f7c6a12ea16e26","6622cfddd663757775a67a56","
    <div id=""grid-container"">
        <!-- Grid items will be dynamically added here -->
    </div>    ","null","","","","","","","","","","","",""
"","null","html-keyboard-response","120","237283","0.0-11.0-0.10","bYlzHPOxUs","63e541874bfc845f9ff78828","6617fad957f7c6a12ea16e26","6622cfddd663757775a67a56","fixation cross","null","","","","","","","","","","","",""
"","1639","html-keyboard-response","121","238922","0.0-11.0-1.10","bYlzHPOxUs","63e541874bfc845f9ff78828","6617fad957f7c6a12ea16e26","6622cfddd663757775a67a56","image grid","q","","","","","Ontogenetic_Distractor_Threat_target","ongrid","2500","q","1","Ontogenetic","true","experimental"
"","null","html-keyboard-response","122","239077","0.0-11.0-2.10","bYlzHPOxUs","63e541874bfc845f9ff78828","6617fad957f7c6a12ea16e26","6622cfddd663757775a67a56","
    <div id=""grid-container"">
        <!-- Grid items will be dynamically added here -->
    </div>    ","null","","","","","","","","","","","",""
"","null","html-keyboard-response","123","239801","0.0-11.0-0.11","bYlzHPOxUs","63e541874bfc845f9ff78828","6617fad957f7c6a12ea16e26","6622cfddd663757775a67a56","fixation cross","null","","","","","","","","","","","",""
"","1508","html-keyboard-response","124","241310","0.0-11.0-1.11","bYlzHPOxUs","63e541874bfc845f9ff78828","6617fad957f7c6a12ea16e26","6622cfddd663757775a67a56","image grid","q","","","","","Ontogenetic_Distractor_Threat_target","ongrid","2500","q","5","Ontogenetic","true","experimental"
"","null","html-keyboard-response","125","241466","0.0-11.0-2.11","bYlzHPOxUs","63e541874bfc845f9ff78828","6617fad957f7c6a12ea16e26","6622cfddd663757775a67a56","
    <div id=""grid-container"">
        <!-- Grid items will be dynamically added here -->
    </div>    ","null","","","","","","","","","","","",""
"","null","html-keyboard-response","126","242179","0.0-11.0-0.12","bYlzHPOxUs","63e541874bfc845f9ff78828","6617fad957f7c6a12ea16e26","6622cfddd663757775a67a56","fixation cross","null","","","","","","","","","","","",""
"","null","html-keyboard-response","127","244690","0.0-11.0-1.12","bYlzHPOxUs","63e541874bfc845f9ff78828","6617fad957f7c6a12ea16e26","6622cfddd663757775a67a56","
        <div id=""grid-container"">
        <!-- Grid items will be dynamically added here -->
    </div>    ","null","","","","","","","","","","","",""
"","2994","html-keyboard-response","128","245184","0.0-11.0-2.12","bYlzHPOxUs","63e541874bfc845f9ff78828","6617fad957f7c6a12ea16e26","6622cfddd663757775a67a56","mask grid"," ","","","","","Ontogenetic_Distractor_notarget","onmask","2500"," ","6","Ontogenetic","true","experimental"
"","null","html-keyboard-response","129","245894","0.0-11.0-0.13","bYlzHPOxUs","63e541874bfc845f9ff78828","6617fad957f7c6a12ea16e26","6622cfddd663757775a67a56","fixation cross","null","","","","","","","","","","","",""
"","2333","html-keyboard-response","130","248228","0.0-11.0-1.13","bYlzHPOxUs","63e541874bfc845f9ff78828","6617fad957f7c6a12ea16e26","6622cfddd663757775a67a56","image grid"," ","","","","","Ontogenetic_Distractor_Nonthreat_target","ongrid","2500","p","6","Ontogenetic","false","experimental"
"","null","html-keyboard-response","131","248384","0.0-11.0-2.13","bYlzHPOxUs","63e541874bfc845f9ff78828","6617fad957f7c6a12ea16e26","6622cfddd663757775a67a56","
    <div id=""grid-container"">
        <!-- Grid items will be dynamically added here -->
    </div>    ","null","","","","","","","","","","","",""
"","null","html-keyboard-response","132","249096","0.0-11.0-0.14","bYlzHPOxUs","63e541874bfc845f9ff78828","6617fad957f7c6a12ea16e26","6622cfddd663757775a67a56","fixation cross","null","","","","","","","","","","","",""
"","null","html-keyboard-response","133","251599","0.0-11.0-1.14","bYlzHPOxUs","63e541874bfc845f9ff78828","6617fad957f7c6a12ea16e26","6622cfddd663757775a67a56","
        <div id=""grid-container"">
        <!-- Grid items will be dynamically added here -->
    </div>    ","null","","","","","","","","","","","",""
"","2922","html-keyboard-response","134","252021","0.0-11.0-2.14","bYlzHPOxUs","63e541874bfc845f9ff78828","6617fad957f7c6a12ea16e26","6622cfddd663757775a67a56","mask grid"," ","","","","","Ontogenetic_Distractor_Nonthreat_target","onmask","2500","p","5","Ontogenetic","false","experimental"
"","null","html-keyboard-response","135","252728","0.0-11.0-0.15","bYlzHPOxUs","63e541874bfc845f9ff78828","6617fad957f7c6a12ea16e26","6622cfddd663757775a67a56","fixation cross","null","","","","","","","","","","","",""
"","2250","html-keyboard-response","136","254979","0.0-11.0-1.15","bYlzHPOxUs","63e541874bfc845f9ff78828","6617fad957f7c6a12ea16e26","6622cfddd663757775a67a56","image grid","q","","","","","Ontogenetic_Distractor_Threat_target","ongrid","2500","q","1","Ontogenetic","true","experimental"
"","null","html-keyboard-response","137","255136","0.0-11.0-2.15","bYlzHPOxUs","63e541874bfc845f9ff78828","6617fad957f7c6a12ea16e26","6622cfddd663757775a67a56","
    <div id=""grid-container"">
        <!-- Grid items will be dynamically added here -->
    </div>    ","null","","","","","","","","","","","",""
"","null","html-keyboard-response","138","255850","0.0-11.0-0.16","bYlzHPOxUs","63e541874bfc845f9ff78828","6617fad957f7c6a12ea16e26","6622cfddd663757775a67a56","fixation cross","null","","","","","","","","","","","",""
"","1386","html-keyboard-response","139","257237","0.0-11.0-1.16","bYlzHPOxUs","63e541874bfc845f9ff78828","6617fad957f7c6a12ea16e26","6622cfddd663757775a67a56","image grid","q","","","","","Ontogenetic_Distractor_Threat_target","ongrid","2500","q","9","Ontogenetic","true","experimental"
"","null","html-keyboard-response","140","257390","0.0-11.0-2.16","bYlzHPOxUs","63e541874bfc845f9ff78828","6617fad957f7c6a12ea16e26","6622cfddd663757775a67a56","
    <div id=""grid-container"">
        <!-- Grid items will be dynamically added here -->
    </div>    ","null","","","","","","","","","","","",""
"","null","html-keyboard-response","141","258104","0.0-11.0-0.17","bYlzHPOxUs","63e541874bfc845f9ff78828","6617fad957f7c6a12ea16e26","6622cfddd663757775a67a56","fixation cross","null","","","","","","","","","","","",""
"","1078","html-keyboard-response","142","259182","0.0-11.0-1.17","bYlzHPOxUs","63e541874bfc845f9ff78828","6617fad957f7c6a12ea16e26","6622cfddd663757775a67a56","image grid","q","","","","","Ontogenetic_Distractor_Threat_target","ongrid","2500","q","5","Ontogenetic","true","experimental"
"","null","html-keyboard-response","143","259336","0.0-11.0-2.17","bYlzHPOxUs","63e541874bfc845f9ff78828","6617fad957f7c6a12ea16e26","6622cfddd663757775a67a56","
    <div id=""grid-container"">
        <!-- Grid items will be dynamically added here -->
    </div>    ","null","","","","","","","","","","","",""
"","null","html-keyboard-response","144","260048","0.0-11.0-0.18","bYlzHPOxUs","63e541874bfc845f9ff78828","6617fad957f7c6a12ea16e26","6622cfddd663757775a67a56","fixation cross","null","","","","","","","","","","","",""
"","1305","html-keyboard-response","145","261354","0.0-11.0-1.18","bYlzHPOxUs","63e541874bfc845f9ff78828","6617fad957f7c6a12ea16e26","6622cfddd663757775a67a56","image grid","q","","","","","Ontogenetic_Distractor_Threat_target","ongrid","2500","q","4","Ontogenetic","true","experimental"
"","null","html-keyboard-response","146","261505","0.0-11.0-2.18","bYlzHPOxUs","63e541874bfc845f9ff78828","6617fad957f7c6a12ea16e26","6622cfddd663757775a67a56","
    <div id=""grid-container"">
        <!-- Grid items will be dynamically added here -->
    </div>    ","null","","","","","","","","","","","",""
"","null","html-keyboard-response","147","262222","0.0-11.0-0.19","bYlzHPOxUs","63e541874bfc845f9ff78828","6617fad957f7c6a12ea16e26","6622cfddd663757775a67a56","fixation cross","null","","","","","","","","","","","",""
"","null","html-keyboard-response","148","264725","0.0-11.0-1.19","bYlzHPOxUs","63e541874bfc845f9ff78828","6617fad957f7c6a12ea16e26","6622cfddd663757775a67a56","
        <div id=""grid-container"">
        <!-- Grid items will be dynamically added here -->
    </div>    ","null","","","","","","","","","","","",""
"","3027","html-keyboard-response","149","265252","0.0-11.0-2.19","bYlzHPOxUs","63e541874bfc845f9ff78828","6617fad957f7c6a12ea16e26","6622cfddd663757775a67a56","mask grid","p","","","","","Ontogenetic_Distractor_Nonthreat_target","onmask","2500","p","4","Ontogenetic","true","experimental"
"","null","html-keyboard-response","150","265968","0.0-11.0-0.20","bYlzHPOxUs","63e541874bfc845f9ff78828","6617fad957f7c6a12ea16e26","6622cfddd663757775a67a56","fixation cross","null","","","","","","","","","","","",""
"","null","html-keyboard-response","151","268485","0.0-11.0-1.20","bYlzHPOxUs","63e541874bfc845f9ff78828","6617fad957f7c6a12ea16e26","6622cfddd663757775a67a56","
        <div id=""grid-container"">
        <!-- Grid items will be dynamically added here -->
    </div>    ","null","","","","","","","","","","","",""
"","2500","html-keyboard-response","152","273495","0.0-11.0-2.20","bYlzHPOxUs","63e541874bfc845f9ff78828","6617fad957f7c6a12ea16e26","6622cfddd663757775a67a56","mask grid","null","","","","","Ontogenetic_Distractor_Nonthreat_target","onmask","2500","p","5","Ontogenetic","false","experimental"
"","null","html-keyboard-response","153","274222","0.0-11.0-0.21","bYlzHPOxUs","63e541874bfc845f9ff78828","6617fad957f7c6a12ea16e26","6622cfddd663757775a67a56","fixation cross","null","","","","","","","","","","","",""
"","1178","html-keyboard-response","154","275401","0.0-11.0-1.21","bYlzHPOxUs","63e541874bfc845f9ff78828","6617fad957f7c6a12ea16e26","6622cfddd663757775a67a56","image grid","q","","","","","Ontogenetic_Distractor_Threat_target","ongrid","2500","q","2","Ontogenetic","true","experimental"
"","null","html-keyboard-response","155","275558","0.0-11.0-2.21","bYlzHPOxUs","63e541874bfc845f9ff78828","6617fad957f7c6a12ea16e26","6622cfddd663757775a67a56","
    <div id=""grid-container"">
        <!-- Grid items will be dynamically added here -->
    </div>    ","null","","","","","","","","","","","",""
"","null","html-keyboard-response","156","276270","0.0-11.0-0.22","bYlzHPOxUs","63e541874bfc845f9ff78828","6617fad957f7c6a12ea16e26","6622cfddd663757775a67a56","fixation cross","null","","","","","","","","","","","",""
"","2173","html-keyboard-response","157","278444","0.0-11.0-1.22","bYlzHPOxUs","63e541874bfc845f9ff78828","6617fad957f7c6a12ea16e26","6622cfddd663757775a67a56","image grid","p","","","","","Ontogenetic_Distractor_Nonthreat_target","ongrid","2500","p","3","Ontogenetic","true","experimental"
"","null","html-keyboard-response","158","278604","0.0-11.0-2.22","bYlzHPOxUs","63e541874bfc845f9ff78828","6617fad957f7c6a12ea16e26","6622cfddd663757775a67a56","
    <div id=""grid-container"">
        <!-- Grid items will be dynamically added here -->
    </div>    ","null","","","","","","","","","","","",""
"","null","html-keyboard-response","159","279322","0.0-11.0-0.23","bYlzHPOxUs","63e541874bfc845f9ff78828","6617fad957f7c6a12ea16e26","6622cfddd663757775a67a56","fixation cross","null","","","","","","","","","","","",""
"","1339","html-keyboard-response","160","280661","0.0-11.0-1.23","bYlzHPOxUs","63e541874bfc845f9ff78828","6617fad957f7c6a12ea16e26","6622cfddd663757775a67a56","image grid","p","","","","","Ontogenetic_Distractor_Nonthreat_target","ongrid","2500","p","4","Ontogenetic","true","experimental"
"","null","html-keyboard-response","161","280812","0.0-11.0-2.23","bYlzHPOxUs","63e541874bfc845f9ff78828","6617fad957f7c6a12ea16e26","6622cfddd663757775a67a56","
    <div id=""grid-container"">
        <!-- Grid items will be dynamically added here -->
    </div>    ","null","","","","","","","","","","","",""
"","null","html-keyboard-response","162","281527","0.0-11.0-0.24","bYlzHPOxUs","63e541874bfc845f9ff78828","6617fad957f7c6a12ea16e26","6622cfddd663757775a67a56","fixation cross","null","","","","","","","","","","","",""
"","1881","html-keyboard-response","163","283409","0.0-11.0-1.24","bYlzHPOxUs","63e541874bfc845f9ff78828","6617fad957f7c6a12ea16e26","6622cfddd663757775a67a56","image grid","p","","","","","Ontogenetic_Distractor_Nonthreat_target","ongrid","2500","p","4","Ontogenetic","true","experimental"
"","null","html-keyboard-response","164","283570","0.0-11.0-2.24","bYlzHPOxUs","63e541874bfc845f9ff78828","6617fad957f7c6a12ea16e26","6622cfddd663757775a67a56","
    <div id=""grid-container"">
        <!-- Grid items will be dynamically added here -->
    </div>    ","null","","","","","","","","","","","",""
"","null","html-keyboard-response","165","284288","0.0-11.0-0.25","bYlzHPOxUs","63e541874bfc845f9ff78828","6617fad957f7c6a12ea16e26","6622cfddd663757775a67a56","fixation cross","null","","","","","","","","","","","",""
"","2071","html-keyboard-response","166","286360","0.0-11.0-1.25","bYlzHPOxUs","63e541874bfc845f9ff78828","6617fad957f7c6a12ea16e26","6622cfddd663757775a67a56","image grid","p","","","","","Ontogenetic_Distractor_Nonthreat_target","ongrid","2500","p","1","Ontogenetic","true","experimental"
"","null","html-keyboard-response","167","286517","0.0-11.0-2.25","bYlzHPOxUs","63e541874bfc845f9ff78828","6617fad957f7c6a12ea16e26","6622cfddd663757775a67a56","
    <div id=""grid-container"">
        <!-- Grid items will be dynamically added here -->
    </div>    ","null","","","","","","","","","","","",""
"","null","html-keyboard-response","168","287227","0.0-11.0-0.26","bYlzHPOxUs","63e541874bfc845f9ff78828","6617fad957f7c6a12ea16e26","6622cfddd663757775a67a56","fixation cross","null","","","","","","","","","","","",""
"","1861","html-keyboard-response","169","289089","0.0-11.0-1.26","bYlzHPOxUs","63e541874bfc845f9ff78828","6617fad957f7c6a12ea16e26","6622cfddd663757775a67a56","image grid","q","","","","","Ontogenetic_Distractor_Threat_target","ongrid","2500","q","4","Ontogenetic","true","experimental"
"","null","html-keyboard-response","170","289253","0.0-11.0-2.26","bYlzHPOxUs","63e541874bfc845f9ff78828","6617fad957f7c6a12ea16e26","6622cfddd663757775a67a56","
    <div id=""grid-container"">
        <!-- Grid items will be dynamically added here -->
    </div>    ","null","","","","","","","","","","","",""
"","null","html-keyboard-response","171","289975","0.0-11.0-0.27","bYlzHPOxUs","63e541874bfc845f9ff78828","6617fad957f7c6a12ea16e26","6622cfddd663757775a67a56","fixation cross","null","","","","","","","","","","","",""
"","null","html-keyboard-response","172","292477","0.0-11.0-1.27","bYlzHPOxUs","63e541874bfc845f9ff78828","6617fad957f7c6a12ea16e26","6622cfddd663757775a67a56","
        <div id=""grid-container"">
        <!-- Grid items will be dynamically added here -->
    </div>    ","null","","","","","","","","","","","",""
"","2873","html-keyboard-response","173","292850","0.0-11.0-2.27","bYlzHPOxUs","63e541874bfc845f9ff78828","6617fad957f7c6a12ea16e26","6622cfddd663757775a67a56","mask grid","p","","","","","Ontogenetic_Distractor_notarget","onmask","2500"," ","4","Ontogenetic","false","experimental"
"","null","html-keyboard-response","174","293563","0.0-11.0-0.28","bYlzHPOxUs","63e541874bfc845f9ff78828","6617fad957f7c6a12ea16e26","6622cfddd663757775a67a56","fixation cross","null","","","","","","","","","","","",""
"","2208","html-keyboard-response","175","295772","0.0-11.0-1.28","bYlzHPOxUs","63e541874bfc845f9ff78828","6617fad957f7c6a12ea16e26","6622cfddd663757775a67a56","image grid","p","","","","","Ontogenetic_Distractor_Nonthreat_target","ongrid","2500","p","2","Ontogenetic","true","experimental"
"","null","html-keyboard-response","176","295927","0.0-11.0-2.28","bYlzHPOxUs","63e541874bfc845f9ff78828","6617fad957f7c6a12ea16e26","6622cfddd663757775a67a56","
    <div id=""grid-container"">
        <!-- Grid items will be dynamically added here -->
    </div>    ","null","","","","","","","","","","","",""
"","null","html-keyboard-response","177","296650","0.0-11.0-0.29","bYlzHPOxUs","63e541874bfc845f9ff78828","6617fad957f7c6a12ea16e26","6622cfddd663757775a67a56","fixation cross","null","","","","","","","","","","","",""
"","2223","html-keyboard-response","178","298875","0.0-11.0-1.29","bYlzHPOxUs","63e541874bfc845f9ff78828","6617fad957f7c6a12ea16e26","6622cfddd663757775a67a56","image grid","q","","","","","Ontogenetic_Distractor_Threat_target","ongrid","2500","q","6","Ontogenetic","true","experimental"
"","null","html-keyboard-response","179","299029","0.0-11.0-2.29","bYlzHPOxUs","63e541874bfc845f9ff78828","6617fad957f7c6a12ea16e26","6622cfddd663757775a67a56","
    <div id=""grid-container"">
        <!-- Grid items will be dynamically added here -->
    </div>    ","null","","","","","","","","","","","",""
"","null","html-keyboard-response","180","299741","0.0-11.0-0.30","bYlzHPOxUs","63e541874bfc845f9ff78828","6617fad957f7c6a12ea16e26","6622cfddd663757775a67a56","fixation cross","null","","","","","","","","","","","",""
"","1100","html-keyboard-response","181","300841","0.0-11.0-1.30","bYlzHPOxUs","63e541874bfc845f9ff78828","6617fad957f7c6a12ea16e26","6622cfddd663757775a67a56","image grid","q","","","","","Ontogenetic_Distractor_Threat_target","ongrid","2500","q","9","Ontogenetic","true","experimental"
"","null","html-keyboard-response","182","301000","0.0-11.0-2.30","bYlzHPOxUs","63e541874bfc845f9ff78828","6617fad957f7c6a12ea16e26","6622cfddd663757775a67a56","
    <div id=""grid-container"">
        <!-- Grid items will be dynamically added here -->
    </div>    ","null","","","","","","","","","","","",""
"","null","html-keyboard-response","183","301720","0.0-11.0-0.31","bYlzHPOxUs","63e541874bfc845f9ff78828","6617fad957f7c6a12ea16e26","6622cfddd663757775a67a56","fixation cross","null","","","","","","","","","","","",""
"","1921","html-keyboard-response","184","303643","0.0-11.0-1.31","bYlzHPOxUs","63e541874bfc845f9ff78828","6617fad957f7c6a12ea16e26","6622cfddd663757775a67a56","image grid","p","","","","","Ontogenetic_Distractor_Nonthreat_target","ongrid","2500","p","5","Ontogenetic","true","experimental"
"","null","html-keyboard-response","185","303796","0.0-11.0-2.31","bYlzHPOxUs","63e541874bfc845f9ff78828","6617fad957f7c6a12ea16e26","6622cfddd663757775a67a56","
    <div id=""grid-container"">
        <!-- Grid items will be dynamically added here -->
    </div>    ","null","","","","","","","","","","","",""
"","null","html-keyboard-response","186","304513","0.0-11.0-0.32","bYlzHPOxUs","63e541874bfc845f9ff78828","6617fad957f7c6a12ea16e26","6622cfddd663757775a67a56","fixation cross","null","","","","","","","","","","","",""
"","2169","html-keyboard-response","187","306682","0.0-11.0-1.32","bYlzHPOxUs","63e541874bfc845f9ff78828","6617fad957f7c6a12ea16e26","6622cfddd663757775a67a56","image grid","q","","","","","Ontogenetic_Distractor_Threat_target","ongrid","2500","q","3","Ontogenetic","true","experimental"
"","null","html-keyboard-response","188","306839","0.0-11.0-2.32","bYlzHPOxUs","63e541874bfc845f9ff78828","6617fad957f7c6a12ea16e26","6622cfddd663757775a67a56","
    <div id=""grid-container"">
        <!-- Grid items will be dynamically added here -->
    </div>    ","null","","","","","","","","","","","",""
"","null","html-keyboard-response","189","307541","0.0-11.0-0.33","bYlzHPOxUs","63e541874bfc845f9ff78828","6617fad957f7c6a12ea16e26","6622cfddd663757775a67a56","fixation cross","null","","","","","","","","","","","",""
"","1877","html-keyboard-response","190","309419","0.0-11.0-1.33","bYlzHPOxUs","63e541874bfc845f9ff78828","6617fad957f7c6a12ea16e26","6622cfddd663757775a67a56","image grid","p","","","","","Ontogenetic_Distractor_notarget","ongrid","2500"," ","7","Ontogenetic","false","experimental"
"","null","html-keyboard-response","191","309578","0.0-11.0-2.33","bYlzHPOxUs","63e541874bfc845f9ff78828","6617fad957f7c6a12ea16e26","6622cfddd663757775a67a56","
    <div id=""grid-container"">
        <!-- Grid items will be dynamically added here -->
    </div>    ","null","","","","","","","","","","","",""
"","null","html-keyboard-response","192","310290","0.0-11.0-0.34","bYlzHPOxUs","63e541874bfc845f9ff78828","6617fad957f7c6a12ea16e26","6622cfddd663757775a67a56","fixation cross","null","","","","","","","","","","","",""
"","2070","html-keyboard-response","193","312360","0.0-11.0-1.34","bYlzHPOxUs","63e541874bfc845f9ff78828","6617fad957f7c6a12ea16e26","6622cfddd663757775a67a56","image grid","p","","","","","Ontogenetic_Distractor_Nonthreat_target","ongrid","2500","p","8","Ontogenetic","true","experimental"
"","null","html-keyboard-response","194","312515","0.0-11.0-2.34","bYlzHPOxUs","63e541874bfc845f9ff78828","6617fad957f7c6a12ea16e26","6622cfddd663757775a67a56","
    <div id=""grid-container"">
        <!-- Grid items will be dynamically added here -->
    </div>    ","null","","","","","","","","","","","",""
"","null","html-keyboard-response","195","313239","0.0-11.0-0.35","bYlzHPOxUs","63e541874bfc845f9ff78828","6617fad957f7c6a12ea16e26","6622cfddd663757775a67a56","fixation cross","null","","","","","","","","","","","",""
"","2345","html-keyboard-response","196","315585","0.0-11.0-1.35","bYlzHPOxUs","63e541874bfc845f9ff78828","6617fad957f7c6a12ea16e26","6622cfddd663757775a67a56","image grid","p","","","","","Ontogenetic_Distractor_Nonthreat_target","ongrid","2500","p","4","Ontogenetic","true","experimental"
"","null","html-keyboard-response","197","315738","0.0-11.0-2.35","bYlzHPOxUs","63e541874bfc845f9ff78828","6617fad957f7c6a12ea16e26","6622cfddd663757775a67a56","
    <div id=""grid-container"">
        <!-- Grid items will be dynamically added here -->
    </div>    ","null","","","","","","","","","","","",""
"","null","html-keyboard-response","198","316447","0.0-11.0-0.36","bYlzHPOxUs","63e541874bfc845f9ff78828","6617fad957f7c6a12ea16e26","6622cfddd663757775a67a56","fixation cross","null","","","","","","","","","","","",""
"","2413","html-keyboard-response","199","318861","0.0-11.0-1.36","bYlzHPOxUs","63e541874bfc845f9ff78828","6617fad957f7c6a12ea16e26","6622cfddd663757775a67a56","image grid","p","","","","","Ontogenetic_Distractor_Nonthreat_target","ongrid","2500","p","8","Ontogenetic","true","experimental"
"","null","html-keyboard-response","200","319015","0.0-11.0-2.36","bYlzHPOxUs","63e541874bfc845f9ff78828","6617fad957f7c6a12ea16e26","6622cfddd663757775a67a56","
    <div id=""grid-container"">
        <!-- Grid items will be dynamically added here -->
    </div>    ","null","","","","","","","","","","","",""
"","null","html-keyboard-response","201","319735","0.0-11.0-0.37","bYlzHPOxUs","63e541874bfc845f9ff78828","6617fad957f7c6a12ea16e26","6622cfddd663757775a67a56","fixation cross","null","","","","","","","","","","","",""
"","2051","html-keyboard-response","202","321787","0.0-11.0-1.37","bYlzHPOxUs","63e541874bfc845f9ff78828","6617fad957f7c6a12ea16e26","6622cfddd663757775a67a56","image grid","p","","","","","Ontogenetic_Distractor_Nonthreat_target","ongrid","2500","p","6","Ontogenetic","true","experimental"
"","null","html-keyboard-response","203","321945","0.0-11.0-2.37","bYlzHPOxUs","63e541874bfc845f9ff78828","6617fad957f7c6a12ea16e26","6622cfddd663757775a67a56","
    <div id=""grid-container"">
        <!-- Grid items will be dynamically added here -->
    </div>    ","null","","","","","","","","","","","",""
"","null","html-keyboard-response","204","322668","0.0-11.0-0.38","bYlzHPOxUs","63e541874bfc845f9ff78828","6617fad957f7c6a12ea16e26","6622cfddd663757775a67a56","fixation cross","null","","","","","","","","","","","",""
"","1981","html-keyboard-response","205","324650","0.0-11.0-1.38","bYlzHPOxUs","63e541874bfc845f9ff78828","6617fad957f7c6a12ea16e26","6622cfddd663757775a67a56","image grid","p","","","","","Ontogenetic_Distractor_Nonthreat_target","ongrid","2500","p","7","Ontogenetic","true","experimental"
"","null","html-keyboard-response","206","324805","0.0-11.0-2.38","bYlzHPOxUs","63e541874bfc845f9ff78828","6617fad957f7c6a12ea16e26","6622cfddd663757775a67a56","
    <div id=""grid-container"">
        <!-- Grid items will be dynamically added here -->
    </div>    ","null","","","","","","","","","","","",""
"","null","html-keyboard-response","207","325531","0.0-11.0-0.39","bYlzHPOxUs","63e541874bfc845f9ff78828","6617fad957f7c6a12ea16e26","6622cfddd663757775a67a56","fixation cross","null","","","","","","","","","","","",""
"","1781","html-keyboard-response","208","327312","0.0-11.0-1.39","bYlzHPOxUs","63e541874bfc845f9ff78828","6617fad957f7c6a12ea16e26","6622cfddd663757775a67a56","image grid","q","","","","","Ontogenetic_Distractor_Threat_target","ongrid","2500","q","4","Ontogenetic","true","experimental"
"","null","html-keyboard-response","209","327471","0.0-11.0-2.39","bYlzHPOxUs","63e541874bfc845f9ff78828","6617fad957f7c6a12ea16e26","6622cfddd663757775a67a56","
    <div id=""grid-container"">
        <!-- Grid items will be dynamically added here -->
    </div>    ","null","","","","","","","","","","","",""
"","7763","html-keyboard-response","210","335495","0.0-12.0","bYlzHPOxUs","63e541874bfc845f9ff78828","6617fad957f7c6a12ea16e26","6622cfddd663757775a67a56","break screen","enter","","","","","","","","","","","",""
"","null","html-keyboard-response","211","338048","0.0-13.0-0.0","bYlzHPOxUs","63e541874bfc845f9ff78828","6617fad957f7c6a12ea16e26","6622cfddd663757775a67a56","fixation cross","null","","","","","","","","","","","",""
"","null","html-keyboard-response","212","340558","0.0-13.0-1.0","bYlzHPOxUs","63e541874bfc845f9ff78828","6617fad957f7c6a12ea16e26","6622cfddd663757775a67a56","
        <div id=""grid-container"">
        <!-- Grid items will be dynamically added here -->
    </div>    ","null","","","","","","","","","","","",""
"","3237","html-keyboard-response","213","341296","0.0-13.0-2.0","bYlzHPOxUs","63e541874bfc845f9ff78828","6617fad957f7c6a12ea16e26","6622cfddd663757775a67a56","mask grid","p","","","","","Phylogenetic_Distractor_Nonthreat_target","onmask","2500","p","4","Phylogenetic","true","experimental"
"","null","html-keyboard-response","214","342008","0.0-13.0-0.1","bYlzHPOxUs","63e541874bfc845f9ff78828","6617fad957f7c6a12ea16e26","6622cfddd663757775a67a56","fixation cross","null","","","","","","","","","","","",""
"","null","html-keyboard-response","215","344509","0.0-13.0-1.1","bYlzHPOxUs","63e541874bfc845f9ff78828","6617fad957f7c6a12ea16e26","6622cfddd663757775a67a56","
        <div id=""grid-container"">
        <!-- Grid items will be dynamically added here -->
    </div>    ","null","","","","","","","","","","","",""
"","2500","html-keyboard-response","216","349525","0.0-13.0-2.1","bYlzHPOxUs","63e541874bfc845f9ff78828","6617fad957f7c6a12ea16e26","6622cfddd663757775a67a56","mask grid","null","","","","","Phylogenetic_Distractor_Nonthreat_target","onmask","2500","p","5","Phylogenetic","false","experimental"
"","null","html-keyboard-response","217","350247","0.0-13.0-0.2","bYlzHPOxUs","63e541874bfc845f9ff78828","6617fad957f7c6a12ea16e26","6622cfddd663757775a67a56","fixation cross","null","","","","","","","","","","","",""
"","null","html-keyboard-response","218","352754","0.0-13.0-1.2","bYlzHPOxUs","63e541874bfc845f9ff78828","6617fad957f7c6a12ea16e26","6622cfddd663757775a67a56","
        <div id=""grid-container"">
        <!-- Grid items will be dynamically added here -->
    </div>    ","null","","","","","","","","","","","",""
"","3388","html-keyboard-response","219","353642","0.0-13.0-2.2","bYlzHPOxUs","63e541874bfc845f9ff78828","6617fad957f7c6a12ea16e26","6622cfddd663757775a67a56","mask grid","p","","","","","Phylogenetic_Distractor_Nonthreat_target","onmask","2500","p","4","Phylogenetic","true","experimental"
"","null","html-keyboard-response","220","354356","0.0-13.0-0.3","bYlzHPOxUs","63e541874bfc845f9ff78828","6617fad957f7c6a12ea16e26","6622cfddd663757775a67a56","fixation cross","null","","","","","","","","","","","",""
"","2014","html-keyboard-response","221","356371","0.0-13.0-1.3","bYlzHPOxUs","63e541874bfc845f9ff78828","6617fad957f7c6a12ea16e26","6622cfddd663757775a67a56","image grid","q","","","","","Phylogenetic_Distractor_Threat_target","ongrid","2500","q","5","Phylogenetic","true","experimental"
"","null","html-keyboard-response","222","356524","0.0-13.0-2.3","bYlzHPOxUs","63e541874bfc845f9ff78828","6617fad957f7c6a12ea16e26","6622cfddd663757775a67a56","
    <div id=""grid-container"">
        <!-- Grid items will be dynamically added here -->
    </div>    ","null","","","","","","","","","","","",""
"","null","html-keyboard-response","223","357236","0.0-13.0-0.4","bYlzHPOxUs","63e541874bfc845f9ff78828","6617fad957f7c6a12ea16e26","6622cfddd663757775a67a56","fixation cross","null","","","","","","","","","","","",""
"","1913","html-keyboard-response","224","359150","0.0-13.0-1.4","bYlzHPOxUs","63e541874bfc845f9ff78828","6617fad957f7c6a12ea16e26","6622cfddd663757775a67a56","image grid","q","","","","","Phylogenetic_Distractor_Threat_target","ongrid","2500","q","9","Phylogenetic","true","experimental"
"","null","html-keyboard-response","225","359311","0.0-13.0-2.4","bYlzHPOxUs","63e541874bfc845f9ff78828","6617fad957f7c6a12ea16e26","6622cfddd663757775a67a56","
    <div id=""grid-container"">
        <!-- Grid items will be dynamically added here -->
    </div>    ","null","","","","","","","","","","","",""
"","null","html-keyboard-response","226","360026","0.0-13.0-0.5","bYlzHPOxUs","63e541874bfc845f9ff78828","6617fad957f7c6a12ea16e26","6622cfddd663757775a67a56","fixation cross","null","","","","","","","","","","","",""
"","1817","html-keyboard-response","227","361845","0.0-13.0-1.5","bYlzHPOxUs","63e541874bfc845f9ff78828","6617fad957f7c6a12ea16e26","6622cfddd663757775a67a56","image grid","p","","","","","Phylogenetic_Distractor_notarget","ongrid","2500"," ","4","Phylogenetic","false","experimental"
"","null","html-keyboard-response","228","361999","0.0-13.0-2.5","bYlzHPOxUs","63e541874bfc845f9ff78828","6617fad957f7c6a12ea16e26","6622cfddd663757775a67a56","
    <div id=""grid-container"">
        <!-- Grid items will be dynamically added here -->
    </div>    ","null","","","","","","","","","","","",""
"","null","html-keyboard-response","229","362713","0.0-13.0-0.6","bYlzHPOxUs","63e541874bfc845f9ff78828","6617fad957f7c6a12ea16e26","6622cfddd663757775a67a56","fixation cross","null","","","","","","","","","","","",""
"","null","html-keyboard-response","230","365215","0.0-13.0-1.6","bYlzHPOxUs","63e541874bfc845f9ff78828","6617fad957f7c6a12ea16e26","6622cfddd663757775a67a56","
        <div id=""grid-container"">
        <!-- Grid items will be dynamically added here -->
    </div>    ","null","","","","","","","","","","","",""
"","2598","html-keyboard-response","231","365314","0.0-13.0-2.6","bYlzHPOxUs","63e541874bfc845f9ff78828","6617fad957f7c6a12ea16e26","6622cfddd663757775a67a56","mask grid"," ","","","","","Phylogenetic_Distractor_Nonthreat_target","onmask","2500","p","7","Phylogenetic","false","experimental"
"","null","html-keyboard-response","232","366032","0.0-13.0-0.7","bYlzHPOxUs","63e541874bfc845f9ff78828","6617fad957f7c6a12ea16e26","6622cfddd663757775a67a56","fixation cross","null","","","","","","","","","","","",""
"","1999","html-keyboard-response","233","368032","0.0-13.0-1.7","bYlzHPOxUs","63e541874bfc845f9ff78828","6617fad957f7c6a12ea16e26","6622cfddd663757775a67a56","image grid"," ","","","","","Phylogenetic_Distractor_Nonthreat_target","ongrid","2500","p","6","Phylogenetic","false","experimental"
"","null","html-keyboard-response","234","368184","0.0-13.0-2.7","bYlzHPOxUs","63e541874bfc845f9ff78828","6617fad957f7c6a12ea16e26","6622cfddd663757775a67a56","
    <div id=""grid-container"">
        <!-- Grid items will be dynamically added here -->
    </div>    ","null","","","","","","","","","","","",""
"","null","html-keyboard-response","235","368893","0.0-13.0-0.8","bYlzHPOxUs","63e541874bfc845f9ff78828","6617fad957f7c6a12ea16e26","6622cfddd663757775a67a56","fixation cross","null","","","","","","","","","","","",""
"","2201","html-keyboard-response","236","371094","0.0-13.0-1.8","bYlzHPOxUs","63e541874bfc845f9ff78828","6617fad957f7c6a12ea16e26","6622cfddd663757775a67a56","image grid","q","","","","","Phylogenetic_Distractor_Threat_target","ongrid","2500","q","4","Phylogenetic","true","experimental"
"","null","html-keyboard-response","237","371253","0.0-13.0-2.8","bYlzHPOxUs","63e541874bfc845f9ff78828","6617fad957f7c6a12ea16e26","6622cfddd663757775a67a56","
    <div id=""grid-container"">
        <!-- Grid items will be dynamically added here -->
    </div>    ","null","","","","","","","","","","","",""
"","null","html-keyboard-response","238","371967","0.0-13.0-0.9","bYlzHPOxUs","63e541874bfc845f9ff78828","6617fad957f7c6a12ea16e26","6622cfddd663757775a67a56","fixation cross","null","","","","","","","","","","","",""
"","1327","html-keyboard-response","239","373294","0.0-13.0-1.9","bYlzHPOxUs","63e541874bfc845f9ff78828","6617fad957f7c6a12ea16e26","6622cfddd663757775a67a56","image grid","q","","","","","Phylogenetic_Distractor_Threat_target","ongrid","2500","q","8","Phylogenetic","true","experimental"
"","null","html-keyboard-response","240","373451","0.0-13.0-2.9","bYlzHPOxUs","63e541874bfc845f9ff78828","6617fad957f7c6a12ea16e26","6622cfddd663757775a67a56","
    <div id=""grid-container"">
        <!-- Grid items will be dynamically added here -->
    </div>    ","null","","","","","","","","","","","",""
"","null","html-keyboard-response","241","374178","0.0-13.0-0.10","bYlzHPOxUs","63e541874bfc845f9ff78828","6617fad957f7c6a12ea16e26","6622cfddd663757775a67a56","fixation cross","null","","","","","","","","","","","",""
"","2313","html-keyboard-response","242","376491","0.0-13.0-1.10","bYlzHPOxUs","63e541874bfc845f9ff78828","6617fad957f7c6a12ea16e26","6622cfddd663757775a67a56","image grid","p","","","","","Phylogenetic_Distractor_Nonthreat_target","ongrid","2500","p","7","Phylogenetic","true","experimental"
"","null","html-keyboard-response","243","376648","0.0-13.0-2.10","bYlzHPOxUs","63e541874bfc845f9ff78828","6617fad957f7c6a12ea16e26","6622cfddd663757775a67a56","
    <div id=""grid-container"">
        <!-- Grid items will be dynamically added here -->
    </div>    ","null","","","","","","","","","","","",""
"","null","html-keyboard-response","244","377357","0.0-13.0-0.11","bYlzHPOxUs","63e541874bfc845f9ff78828","6617fad957f7c6a12ea16e26","6622cfddd663757775a67a56","fixation cross","null","","","","","","","","","","","",""
"","2068","html-keyboard-response","245","379425","0.0-13.0-1.11","bYlzHPOxUs","63e541874bfc845f9ff78828","6617fad957f7c6a12ea16e26","6622cfddd663757775a67a56","image grid","q","","","","","Phylogenetic_Distractor_Threat_target","ongrid","2500","q","4","Phylogenetic","true","experimental"
"","null","html-keyboard-response","246","379579","0.0-13.0-2.11","bYlzHPOxUs","63e541874bfc845f9ff78828","6617fad957f7c6a12ea16e26","6622cfddd663757775a67a56","
    <div id=""grid-container"">
        <!-- Grid items will be dynamically added here -->
    </div>    ","null","","","","","","","","","","","",""
"","null","html-keyboard-response","247","380298","0.0-13.0-0.12","bYlzHPOxUs","63e541874bfc845f9ff78828","6617fad957f7c6a12ea16e26","6622cfddd663757775a67a56","fixation cross","null","","","","","","","","","","","",""
"","955","html-keyboard-response","248","381254","0.0-13.0-1.12","bYlzHPOxUs","63e541874bfc845f9ff78828","6617fad957f7c6a12ea16e26","6622cfddd663757775a67a56","image grid","q","","","","","Phylogenetic_Distractor_Threat_target","ongrid","2500","q","4","Phylogenetic","true","experimental"
"","null","html-keyboard-response","249","381406","0.0-13.0-2.12","bYlzHPOxUs","63e541874bfc845f9ff78828","6617fad957f7c6a12ea16e26","6622cfddd663757775a67a56","
    <div id=""grid-container"">
        <!-- Grid items will be dynamically added here -->
    </div>    ","null","","","","","","","","","","","",""
"","null","html-keyboard-response","250","382113","0.0-13.0-0.13","bYlzHPOxUs","63e541874bfc845f9ff78828","6617fad957f7c6a12ea16e26","6622cfddd663757775a67a56","fixation cross","null","","","","","","","","","","","",""
"","null","html-keyboard-response","251","384620","0.0-13.0-1.13","bYlzHPOxUs","63e541874bfc845f9ff78828","6617fad957f7c6a12ea16e26","6622cfddd663757775a67a56","
        <div id=""grid-container"">
        <!-- Grid items will be dynamically added here -->
    </div>    ","null","","","","","","","","","","","",""
"","2905","html-keyboard-response","252","385024","0.0-13.0-2.13","bYlzHPOxUs","63e541874bfc845f9ff78828","6617fad957f7c6a12ea16e26","6622cfddd663757775a67a56","mask grid"," ","","","","","Phylogenetic_Distractor_Nonthreat_target","onmask","2500","p","4","Phylogenetic","false","experimental"
"","null","html-keyboard-response","253","385728","0.0-13.0-0.14","bYlzHPOxUs","63e541874bfc845f9ff78828","6617fad957f7c6a12ea16e26","6622cfddd663757775a67a56","fixation cross","null","","","","","","","","","","","",""
"","null","html-keyboard-response","254","388234","0.0-13.0-1.14","bYlzHPOxUs","63e541874bfc845f9ff78828","6617fad957f7c6a12ea16e26","6622cfddd663757775a67a56","
        <div id=""grid-container"">
        <!-- Grid items will be dynamically added here -->
    </div>    ","null","","","","","","","","","","","",""
"","2500","html-keyboard-response","255","393236","0.0-13.0-2.14","bYlzHPOxUs","63e541874bfc845f9ff78828","6617fad957f7c6a12ea16e26","6622cfddd663757775a67a56","mask grid","null","","","","","Phylogenetic_Distractor_Nonthreat_target","onmask","2500","p","3","Phylogenetic","false","experimental"
"","null","html-keyboard-response","256","393952","0.0-13.0-0.15","bYlzHPOxUs","63e541874bfc845f9ff78828","6617fad957f7c6a12ea16e26","6622cfddd663757775a67a56","fixation cross","null","","","","","","","","","","","",""
"","null","html-keyboard-response","257","396460","0.0-13.0-1.15","bYlzHPOxUs","63e541874bfc845f9ff78828","6617fad957f7c6a12ea16e26","6622cfddd663757775a67a56","
        <div id=""grid-container"">
        <!-- Grid items will be dynamically added here -->
    </div>    ","null","","","","","","","","","","","",""
"","2877","html-keyboard-response","258","396838","0.0-13.0-2.15","bYlzHPOxUs","63e541874bfc845f9ff78828","6617fad957f7c6a12ea16e26","6622cfddd663757775a67a56","mask grid","q","","","","","Phylogenetic_Distractor_Nonthreat_target","onmask","2500","p","5","Phylogenetic","false","experimental"
"","null","html-keyboard-response","259","397554","0.0-13.0-0.16","bYlzHPOxUs","63e541874bfc845f9ff78828","6617fad957f7c6a12ea16e26","6622cfddd663757775a67a56","fixation cross","null","","","","","","","","","","","",""
"","null","html-keyboard-response","260","400056","0.0-13.0-1.16","bYlzHPOxUs","63e541874bfc845f9ff78828","6617fad957f7c6a12ea16e26","6622cfddd663757775a67a56","
        <div id=""grid-container"">
        <!-- Grid items will be dynamically added here -->
    </div>    ","null","","","","","","","","","","","",""
"","2682","html-keyboard-response","261","400238","0.0-13.0-2.16","bYlzHPOxUs","63e541874bfc845f9ff78828","6617fad957f7c6a12ea16e26","6622cfddd663757775a67a56","mask grid"," ","","","","","Phylogenetic_Distractor_Nonthreat_target","onmask","2500","p","3","Phylogenetic","false","experimental"
"","null","html-keyboard-response","262","400943","0.0-13.0-0.17","bYlzHPOxUs","63e541874bfc845f9ff78828","6617fad957f7c6a12ea16e26","6622cfddd663757775a67a56","fixation cross","null","","","","","","","","","","","",""
"","1654","html-keyboard-response","263","402599","0.0-13.0-1.17","bYlzHPOxUs","63e541874bfc845f9ff78828","6617fad957f7c6a12ea16e26","6622cfddd663757775a67a56","image grid","q","","","","","Phylogenetic_Distractor_Threat_target","ongrid","2500","q","4","Phylogenetic","true","experimental"
"","null","html-keyboard-response","264","402751","0.0-13.0-2.17","bYlzHPOxUs","63e541874bfc845f9ff78828","6617fad957f7c6a12ea16e26","6622cfddd663757775a67a56","
    <div id=""grid-container"">
        <!-- Grid items will be dynamically added here -->
    </div>    ","null","","","","","","","","","","","",""
"","null","html-keyboard-response","265","403475","0.0-13.0-0.18","bYlzHPOxUs","63e541874bfc845f9ff78828","6617fad957f7c6a12ea16e26","6622cfddd663757775a67a56","fixation cross","null","","","","","","","","","","","",""
"","null","html-keyboard-response","266","405983","0.0-13.0-1.18","bYlzHPOxUs","63e541874bfc845f9ff78828","6617fad957f7c6a12ea16e26","6622cfddd663757775a67a56","
        <div id=""grid-container"">
        <!-- Grid items will be dynamically added here -->
    </div>    ","null","","","","","","","","","","","",""
"","2500","html-keyboard-response","267","410997","0.0-13.0-2.18","bYlzHPOxUs","63e541874bfc845f9ff78828","6617fad957f7c6a12ea16e26","6622cfddd663757775a67a56","mask grid","null","","","","","Phylogenetic_Distractor_notarget","onmask","2500"," ","3","Phylogenetic","false","experimental"
"","null","html-keyboard-response","268","411710","0.0-13.0-0.19","bYlzHPOxUs","63e541874bfc845f9ff78828","6617fad957f7c6a12ea16e26","6622cfddd663757775a67a56","fixation cross","null","","","","","","","","","","","",""
"","null","html-keyboard-response","269","414216","0.0-13.0-1.19","bYlzHPOxUs","63e541874bfc845f9ff78828","6617fad957f7c6a12ea16e26","6622cfddd663757775a67a56","
        <div id=""grid-container"">
        <!-- Grid items will be dynamically added here -->
    </div>    ","null","","","","","","","","","","","",""
"","2725","html-keyboard-response","270","414441","0.0-13.0-2.19","bYlzHPOxUs","63e541874bfc845f9ff78828","6617fad957f7c6a12ea16e26","6622cfddd663757775a67a56","mask grid","p","","","","","Phylogenetic_Distractor_Nonthreat_target","onmask","2500","p","5","Phylogenetic","true","experimental"
"","null","html-keyboard-response","271","415151","0.0-13.0-0.20","bYlzHPOxUs","63e541874bfc845f9ff78828","6617fad957f7c6a12ea16e26","6622cfddd663757775a67a56","fixation cross","null","","","","","","","","","","","",""
"","1465","html-keyboard-response","272","416617","0.0-13.0-1.20","bYlzHPOxUs","63e541874bfc845f9ff78828","6617fad957f7c6a12ea16e26","6622cfddd663757775a67a56","image grid","p","","","","","Phylogenetic_Distractor_Nonthreat_target","ongrid","2500","p","5","Phylogenetic","true","experimental"
"","null","html-keyboard-response","273","416772","0.0-13.0-2.20","bYlzHPOxUs","63e541874bfc845f9ff78828","6617fad957f7c6a12ea16e26","6622cfddd663757775a67a56","
    <div id=""grid-container"">
        <!-- Grid items will be dynamically added here -->
    </div>    ","null","","","","","","","","","","","",""
"","null","html-keyboard-response","274","417488","0.0-13.0-0.21","bYlzHPOxUs","63e541874bfc845f9ff78828","6617fad957f7c6a12ea16e26","6622cfddd663757775a67a56","fixation cross","null","","","","","","","","","","","",""
"","1868","html-keyboard-response","275","419356","0.0-13.0-1.21","bYlzHPOxUs","63e541874bfc845f9ff78828","6617fad957f7c6a12ea16e26","6622cfddd663757775a67a56","image grid","p","","","","","Phylogenetic_Distractor_notarget","ongrid","2500"," ","5","Phylogenetic","false","experimental"
"","null","html-keyboard-response","276","419510","0.0-13.0-2.21","bYlzHPOxUs","63e541874bfc845f9ff78828","6617fad957f7c6a12ea16e26","6622cfddd663757775a67a56","
    <div id=""grid-container"">
        <!-- Grid items will be dynamically added here -->
    </div>    ","null","","","","","","","","","","","",""
"","null","html-keyboard-response","277","420222","0.0-13.0-0.22","bYlzHPOxUs","63e541874bfc845f9ff78828","6617fad957f7c6a12ea16e26","6622cfddd663757775a67a56","fixation cross","null","","","","","","","","","","","",""
"","1859","html-keyboard-response","278","422081","0.0-13.0-1.22","bYlzHPOxUs","63e541874bfc845f9ff78828","6617fad957f7c6a12ea16e26","6622cfddd663757775a67a56","image grid","q","","","","","Phylogenetic_Distractor_Threat_target","ongrid","2500","q","9","Phylogenetic","true","experimental"
"","null","html-keyboard-response","279","422247","0.0-13.0-2.22","bYlzHPOxUs","63e541874bfc845f9ff78828","6617fad957f7c6a12ea16e26","6622cfddd663757775a67a56","
    <div id=""grid-container"">
        <!-- Grid items will be dynamically added here -->
    </div>    ","null","","","","","","","","","","","",""
"","null","html-keyboard-response","280","422968","0.0-13.0-0.23","bYlzHPOxUs","63e541874bfc845f9ff78828","6617fad957f7c6a12ea16e26","6622cfddd663757775a67a56","fixation cross","null","","","","","","","","","","","",""
"","1064","html-keyboard-response","281","424032","0.0-13.0-1.23","bYlzHPOxUs","63e541874bfc845f9ff78828","6617fad957f7c6a12ea16e26","6622cfddd663757775a67a56","image grid","q","","","","","Phylogenetic_Distractor_Threat_target","ongrid","2500","q","5","Phylogenetic","true","experimental"
"","null","html-keyboard-response","282","424195","0.0-13.0-2.23","bYlzHPOxUs","63e541874bfc845f9ff78828","6617fad957f7c6a12ea16e26","6622cfddd663757775a67a56","
    <div id=""grid-container"">
        <!-- Grid items will be dynamically added here -->
    </div>    ","null","","","","","","","","","","","",""
"","null","html-keyboard-response","283","424906","0.0-13.0-0.24","bYlzHPOxUs","63e541874bfc845f9ff78828","6617fad957f7c6a12ea16e26","6622cfddd663757775a67a56","fixation cross","null","","","","","","","","","","","",""
"","2459","html-keyboard-response","284","427366","0.0-13.0-1.24","bYlzHPOxUs","63e541874bfc845f9ff78828","6617fad957f7c6a12ea16e26","6622cfddd663757775a67a56","image grid"," ","","","","","Phylogenetic_Distractor_Nonthreat_target","ongrid","2500","p","7","Phylogenetic","false","experimental"
"","null","html-keyboard-response","285","427533","0.0-13.0-2.24","bYlzHPOxUs","63e541874bfc845f9ff78828","6617fad957f7c6a12ea16e26","6622cfddd663757775a67a56","
    <div id=""grid-container"">
        <!-- Grid items will be dynamically added here -->
    </div>    ","null","","","","","","","","","","","",""
"","null","html-keyboard-response","286","428248","0.0-13.0-0.25","bYlzHPOxUs","63e541874bfc845f9ff78828","6617fad957f7c6a12ea16e26","6622cfddd663757775a67a56","fixation cross","null","","","","","","","","","","","",""
"","1249","html-keyboard-response","287","429497","0.0-13.0-1.25","bYlzHPOxUs","63e541874bfc845f9ff78828","6617fad957f7c6a12ea16e26","6622cfddd663757775a67a56","image grid"," ","","","","","Phylogenetic_Distractor_Nonthreat_target","ongrid","2500","p","1","Phylogenetic","false","experimental"
"","null","html-keyboard-response","288","429651","0.0-13.0-2.25","bYlzHPOxUs","63e541874bfc845f9ff78828","6617fad957f7c6a12ea16e26","6622cfddd663757775a67a56","
    <div id=""grid-container"">
        <!-- Grid items will be dynamically added here -->
    </div>    ","null","","","","","","","","","","","",""
"","null","html-keyboard-response","289","430362","0.0-13.0-0.26","bYlzHPOxUs","63e541874bfc845f9ff78828","6617fad957f7c6a12ea16e26","6622cfddd663757775a67a56","fixation cross","null","","","","","","","","","","","",""
"","1567","html-keyboard-response","290","431931","0.0-13.0-1.26","bYlzHPOxUs","63e541874bfc845f9ff78828","6617fad957f7c6a12ea16e26","6622cfddd663757775a67a56","image grid","q","","","","","Phylogenetic_Distractor_Threat_target","ongrid","2500","q","9","Phylogenetic","true","experimental"
"","null","html-keyboard-response","291","432083","0.0-13.0-2.26","bYlzHPOxUs","63e541874bfc845f9ff78828","6617fad957f7c6a12ea16e26","6622cfddd663757775a67a56","
    <div id=""grid-container"">
        <!-- Grid items will be dynamically added here -->
    </div>    ","null","","","","","","","","","","","",""
"","null","html-keyboard-response","292","432793","0.0-13.0-0.27","bYlzHPOxUs","63e541874bfc845f9ff78828","6617fad957f7c6a12ea16e26","6622cfddd663757775a67a56","fixation cross","null","","","","","","","","","","","",""
"","null","html-keyboard-response","293","435299","0.0-13.0-1.27","bYlzHPOxUs","63e541874bfc845f9ff78828","6617fad957f7c6a12ea16e26","6622cfddd663757775a67a56","
        <div id=""grid-container"">
        <!-- Grid items will be dynamically added here -->
    </div>    ","null","","","","","","","","","","","",""
"","2500","html-keyboard-response","294","440315","0.0-13.0-2.27","bYlzHPOxUs","63e541874bfc845f9ff78828","6617fad957f7c6a12ea16e26","6622cfddd663757775a67a56","mask grid","null","","","","","Phylogenetic_Distractor_Threat_target","onmask","2500","q","3","Phylogenetic","false","experimental"
"","null","html-keyboard-response","295","441023","0.0-13.0-0.28","bYlzHPOxUs","63e541874bfc845f9ff78828","6617fad957f7c6a12ea16e26","6622cfddd663757775a67a56","fixation cross","null","","","","","","","","","","","",""
"","1068","html-keyboard-response","296","442092","0.0-13.0-1.28","bYlzHPOxUs","63e541874bfc845f9ff78828","6617fad957f7c6a12ea16e26","6622cfddd663757775a67a56","image grid","q","","","","","Phylogenetic_Distractor_Threat_target","ongrid","2500","q","4","Phylogenetic","true","experimental"
"","null","html-keyboard-response","297","442253","0.0-13.0-2.28","bYlzHPOxUs","63e541874bfc845f9ff78828","6617fad957f7c6a12ea16e26","6622cfddd663757775a67a56","
    <div id=""grid-container"">
        <!-- Grid items will be dynamically added here -->
    </div>    ","null","","","","","","","","","","","",""
"","null","html-keyboard-response","298","442979","0.0-13.0-0.29","bYlzHPOxUs","63e541874bfc845f9ff78828","6617fad957f7c6a12ea16e26","6622cfddd663757775a67a56","fixation cross","null","","","","","","","","","","","",""
"","1055","html-keyboard-response","299","444034","0.0-13.0-1.29","bYlzHPOxUs","63e541874bfc845f9ff78828","6617fad957f7c6a12ea16e26","6622cfddd663757775a67a56","image grid","q","","","","","Phylogenetic_Distractor_Threat_target","ongrid","2500","q","1","Phylogenetic","true","experimental"
"","null","html-keyboard-response","300","444190","0.0-13.0-2.29","bYlzHPOxUs","63e541874bfc845f9ff78828","6617fad957f7c6a12ea16e26","6622cfddd663757775a67a56","
    <div id=""grid-container"">
        <!-- Grid items will be dynamically added here -->
    </div>    ","null","","","","","","","","","","","",""
"","null","html-keyboard-response","301","444910","0.0-13.0-0.30","bYlzHPOxUs","63e541874bfc845f9ff78828","6617fad957f7c6a12ea16e26","6622cfddd663757775a67a56","fixation cross","null","","","","","","","","","","","",""
"","944","html-keyboard-response","302","445855","0.0-13.0-1.30","bYlzHPOxUs","63e541874bfc845f9ff78828","6617fad957f7c6a12ea16e26","6622cfddd663757775a67a56","image grid","q","","","","","Phylogenetic_Distractor_Threat_target","ongrid","2500","q","1","Phylogenetic","true","experimental"
"","null","html-keyboard-response","303","446020","0.0-13.0-2.30","bYlzHPOxUs","63e541874bfc845f9ff78828","6617fad957f7c6a12ea16e26","6622cfddd663757775a67a56","
    <div id=""grid-container"">
        <!-- Grid items will be dynamically added here -->
    </div>    ","null","","","","","","","","","","","",""
"","null","html-keyboard-response","304","446741","0.0-13.0-0.31","bYlzHPOxUs","63e541874bfc845f9ff78828","6617fad957f7c6a12ea16e26","6622cfddd663757775a67a56","fixation cross","null","","","","","","","","","","","",""
"","null","html-keyboard-response","305","449248","0.0-13.0-1.31","bYlzHPOxUs","63e541874bfc845f9ff78828","6617fad957f7c6a12ea16e26","6622cfddd663757775a67a56","
        <div id=""grid-container"">
        <!-- Grid items will be dynamically added here -->
    </div>    ","null","","","","","","","","","","","",""
"","2500","html-keyboard-response","306","454256","0.0-13.0-2.31","bYlzHPOxUs","63e541874bfc845f9ff78828","6617fad957f7c6a12ea16e26","6622cfddd663757775a67a56","mask grid","null","","","","","Phylogenetic_Distractor_Nonthreat_target","onmask","2500","p","4","Phylogenetic","false","experimental"
"","null","html-keyboard-response","307","454967","0.0-13.0-0.32","bYlzHPOxUs","63e541874bfc845f9ff78828","6617fad957f7c6a12ea16e26","6622cfddd663757775a67a56","fixation cross","null","","","","","","","","","","","",""
"","1836","html-keyboard-response","308","456803","0.0-13.0-1.32","bYlzHPOxUs","63e541874bfc845f9ff78828","6617fad957f7c6a12ea16e26","6622cfddd663757775a67a56","image grid","q","","","","","Phylogenetic_Distractor_Threat_target","ongrid","2500","q","3","Phylogenetic","true","experimental"
"","null","html-keyboard-response","309","456956","0.0-13.0-2.32","bYlzHPOxUs","63e541874bfc845f9ff78828","6617fad957f7c6a12ea16e26","6622cfddd663757775a67a56","
    <div id=""grid-container"">
        <!-- Grid items will be dynamically added here -->
    </div>    ","null","","","","","","","","","","","",""
"","null","html-keyboard-response","310","457675","0.0-13.0-0.33","bYlzHPOxUs","63e541874bfc845f9ff78828","6617fad957f7c6a12ea16e26","6622cfddd663757775a67a56","fixation cross","null","","","","","","","","","","","",""
"","null","html-keyboard-response","311","460181","0.0-13.0-1.33","bYlzHPOxUs","63e541874bfc845f9ff78828","6617fad957f7c6a12ea16e26","6622cfddd663757775a67a56","
        <div id=""grid-container"">
        <!-- Grid items will be dynamically added here -->
    </div>    ","null","","","","","","","","","","","",""
"","2500","html-keyboard-response","312","465183","0.0-13.0-2.33","bYlzHPOxUs","63e541874bfc845f9ff78828","6617fad957f7c6a12ea16e26","6622cfddd663757775a67a56","mask grid","null","","","","","Phylogenetic_Distractor_Nonthreat_target","onmask","2500","p","9","Phylogenetic","false","experimental"
"","null","html-keyboard-response","313","465902","0.0-13.0-0.34","bYlzHPOxUs","63e541874bfc845f9ff78828","6617fad957f7c6a12ea16e26","6622cfddd663757775a67a56","fixation cross","null","","","","","","","","","","","",""
"","null","html-keyboard-response","314","468413","0.0-13.0-1.34","bYlzHPOxUs","63e541874bfc845f9ff78828","6617fad957f7c6a12ea16e26","6622cfddd663757775a67a56","
        <div id=""grid-container"">
        <!-- Grid items will be dynamically added here -->
    </div>    ","null","","","","","","","","","","","",""
"","2500","html-keyboard-response","315","473423","0.0-13.0-2.34","bYlzHPOxUs","63e541874bfc845f9ff78828","6617fad957f7c6a12ea16e26","6622cfddd663757775a67a56","mask grid","null","","","","","Phylogenetic_Distractor_Nonthreat_target","onmask","2500","p","3","Phylogenetic","false","experimental"
"","null","html-keyboard-response","316","474140","0.0-13.0-0.35","bYlzHPOxUs","63e541874bfc845f9ff78828","6617fad957f7c6a12ea16e26","6622cfddd663757775a67a56","fixation cross","null","","","","","","","","","","","",""
"","null","html-keyboard-response","317","476648","0.0-13.0-1.35","bYlzHPOxUs","63e541874bfc845f9ff78828","6617fad957f7c6a12ea16e26","6622cfddd663757775a67a56","
        <div id=""grid-container"">
        <!-- Grid items will be dynamically added here -->
    </div>    ","null","","","","","","","","","","","",""
"","2877","html-keyboard-response","318","477027","0.0-13.0-2.35","bYlzHPOxUs","63e541874bfc845f9ff78828","6617fad957f7c6a12ea16e26","6622cfddd663757775a67a56","mask grid","p","","","","","Phylogenetic_Distractor_notarget","onmask","2500"," ","1","Phylogenetic","false","experimental"
"","null","html-keyboard-response","319","477743","0.0-13.0-0.36","bYlzHPOxUs","63e541874bfc845f9ff78828","6617fad957f7c6a12ea16e26","6622cfddd663757775a67a56","fixation cross","null","","","","","","","","","","","",""
"","null","html-keyboard-response","320","480254","0.0-13.0-1.36","bYlzHPOxUs","63e541874bfc845f9ff78828","6617fad957f7c6a12ea16e26","6622cfddd663757775a67a56","
        <div id=""grid-container"">
        <!-- Grid items will be dynamically added here -->
    </div>    ","null","","","","","","","","","","","",""
"","2581","html-keyboard-response","321","480336","0.0-13.0-2.36","bYlzHPOxUs","63e541874bfc845f9ff78828","6617fad957f7c6a12ea16e26","6622cfddd663757775a67a56","mask grid","q","","","","","Phylogenetic_Distractor_Threat_target","onmask","2500","q","2","Phylogenetic","true","experimental"
"","null","html-keyboard-response","322","481046","0.0-13.0-0.37","bYlzHPOxUs","63e541874bfc845f9ff78828","6617fad957f7c6a12ea16e26","6622cfddd663757775a67a56","fixation cross","null","","","","","","","","","","","",""
"","1182","html-keyboard-response","323","482227","0.0-13.0-1.37","bYlzHPOxUs","63e541874bfc845f9ff78828","6617fad957f7c6a12ea16e26","6622cfddd663757775a67a56","image grid","q","","","","","Phylogenetic_Distractor_Threat_target","ongrid","2500","q","1","Phylogenetic","true","experimental"
"","null","html-keyboard-response","324","482383","0.0-13.0-2.37","bYlzHPOxUs","63e541874bfc845f9ff78828","6617fad957f7c6a12ea16e26","6622cfddd663757775a67a56","
    <div id=""grid-container"">
        <!-- Grid items will be dynamically added here -->
    </div>    ","null","","","","","","","","","","","",""
"","null","html-keyboard-response","325","483094","0.0-13.0-0.38","bYlzHPOxUs","63e541874bfc845f9ff78828","6617fad957f7c6a12ea16e26","6622cfddd663757775a67a56","fixation cross","null","","","","","","","","","","","",""
"","null","html-keyboard-response","326","485596","0.0-13.0-1.38","bYlzHPOxUs","63e541874bfc845f9ff78828","6617fad957f7c6a12ea16e26","6622cfddd663757775a67a56","
        <div id=""grid-container"">
        <!-- Grid items will be dynamically added here -->
    </div>    ","null","","","","","","","","","","","",""
"","2537","html-keyboard-response","327","485633","0.0-13.0-2.38","bYlzHPOxUs","63e541874bfc845f9ff78828","6617fad957f7c6a12ea16e26","6622cfddd663757775a67a56","mask grid","p","","","","","Phylogenetic_Distractor_Threat_target","onmask","2500","q","6","Phylogenetic","false","experimental"
"","null","html-keyboard-response","328","486342","0.0-13.0-0.39","bYlzHPOxUs","63e541874bfc845f9ff78828","6617fad957f7c6a12ea16e26","6622cfddd663757775a67a56","fixation cross","null","","","","","","","","","","","",""
"","null","html-keyboard-response","329","488854","0.0-13.0-1.39","bYlzHPOxUs","63e541874bfc845f9ff78828","6617fad957f7c6a12ea16e26","6622cfddd663757775a67a56","
        <div id=""grid-container"">
        <!-- Grid items will be dynamically added here -->
    </div>    ","null","","","","","","","","","","","",""
"","2724","html-keyboard-response","330","489079","0.0-13.0-2.39","bYlzHPOxUs","63e541874bfc845f9ff78828","6617fad957f7c6a12ea16e26","6622cfddd663757775a67a56","mask grid"," ","","","","","Phylogenetic_Distractor_Nonthreat_target","onmask","2500","p","6","Phylogenetic","false","experimental"
"","9149","html-keyboard-response","331","498445","0.0-14.0","bYlzHPOxUs","63e541874bfc845f9ff78828","6617fad957f7c6a12ea16e26","6622cfddd663757775a67a56","break screen","enter","","","","","","","","","","","",""
"","null","html-keyboard-response","332","500968","0.0-15.0-0.0","bYlzHPOxUs","63e541874bfc845f9ff78828","6617fad957f7c6a12ea16e26","6622cfddd663757775a67a56","fixation cross","null","","","","","","","","","","","",""
"","null","html-keyboard-response","333","501773","0.0-15.0-1.0","bYlzHPOxUs","63e541874bfc845f9ff78828","6617fad957f7c6a12ea16e26","6622cfddd663757775a67a56","
        <div id=""grid-container"">
        <!-- Grid items will be dynamically added here -->
    </div>    ","null","","","","","","","","","","","",""
"","2793","html-keyboard-response","334","503767","0.0-15.0-2.0","bYlzHPOxUs","63e541874bfc845f9ff78828","6617fad957f7c6a12ea16e26","6622cfddd663757775a67a56","mask grid","p","","","","","Ontogenetic_Distractor_Nonthreat_target","onmask","800","p","5","Ontogenetic","true","experimental"
"","null","html-keyboard-response","335","504481","0.0-15.0-0.1","bYlzHPOxUs","63e541874bfc845f9ff78828","6617fad957f7c6a12ea16e26","6622cfddd663757775a67a56","fixation cross","null","","","","","","","","","","","",""
"","null","html-keyboard-response","336","505285","0.0-15.0-1.1","bYlzHPOxUs","63e541874bfc845f9ff78828","6617fad957f7c6a12ea16e26","6622cfddd663757775a67a56","
        <div id=""grid-container"">
        <!-- Grid items will be dynamically added here -->
    </div>    ","null","","","","","","","","","","","",""
"","1259","html-keyboard-response","337","505745","0.0-15.0-2.1","bYlzHPOxUs","63e541874bfc845f9ff78828","6617fad957f7c6a12ea16e26","6622cfddd663757775a67a56","mask grid","p","","","","","Ontogenetic_Distractor_Threat_target","onmask","800","q","3","Ontogenetic","false","experimental"
"","null","html-keyboard-response","338","506454","0.0-15.0-0.2","bYlzHPOxUs","63e541874bfc845f9ff78828","6617fad957f7c6a12ea16e26","6622cfddd663757775a67a56","fixation cross","null","","","","","","","","","","","",""
"","null","html-keyboard-response","339","507254","0.0-15.0-1.2","bYlzHPOxUs","63e541874bfc845f9ff78828","6617fad957f7c6a12ea16e26","6622cfddd663757775a67a56","
        <div id=""grid-container"">
        <!-- Grid items will be dynamically added here -->
    </div>    ","null","","","","","","","","","","","",""
"","1305","html-keyboard-response","340","507760","0.0-15.0-2.2","bYlzHPOxUs","63e541874bfc845f9ff78828","6617fad957f7c6a12ea16e26","6622cfddd663757775a67a56","mask grid","q","","","","","Ontogenetic_Distractor_Threat_target","onmask","800","q","1","Ontogenetic","true","experimental"
"","null","html-keyboard-response","341","508477","0.0-15.0-0.3","bYlzHPOxUs","63e541874bfc845f9ff78828","6617fad957f7c6a12ea16e26","6622cfddd663757775a67a56","fixation cross","null","","","","","","","","","","","",""
"","null","html-keyboard-response","342","509287","0.0-15.0-1.3","bYlzHPOxUs","63e541874bfc845f9ff78828","6617fad957f7c6a12ea16e26","6622cfddd663757775a67a56","
        <div id=""grid-container"">
        <!-- Grid items will be dynamically added here -->
    </div>    ","null","","","","","","","","","","","",""
"","852","html-keyboard-response","343","509340","0.0-15.0-2.3","bYlzHPOxUs","63e541874bfc845f9ff78828","6617fad957f7c6a12ea16e26","6622cfddd663757775a67a56","mask grid","q","","","","","Ontogenetic_Distractor_Threat_target","onmask","800","q","9","Ontogenetic","true","experimental"
"","null","html-keyboard-response","344","510056","0.0-15.0-0.4","bYlzHPOxUs","63e541874bfc845f9ff78828","6617fad957f7c6a12ea16e26","6622cfddd663757775a67a56","fixation cross","null","","","","","","","","","","","",""
"","null","html-keyboard-response","345","510858","0.0-15.0-1.4","bYlzHPOxUs","63e541874bfc845f9ff78828","6617fad957f7c6a12ea16e26","6622cfddd663757775a67a56","
        <div id=""grid-container"">
        <!-- Grid items will be dynamically added here -->
    </div>    ","null","","","","","","","","","","","",""
"","800","html-keyboard-response","346","515863","0.0-15.0-2.4","bYlzHPOxUs","63e541874bfc845f9ff78828","6617fad957f7c6a12ea16e26","6622cfddd663757775a67a56","mask grid","null","","","","","Ontogenetic_Distractor_Nonthreat_target","onmask","800","p","7","Ontogenetic","false","experimental"
"","null","html-keyboard-response","347","516581","0.0-15.0-0.5","bYlzHPOxUs","63e541874bfc845f9ff78828","6617fad957f7c6a12ea16e26","6622cfddd663757775a67a56","fixation cross","null","","","","","","","","","","","",""
"","null","html-keyboard-response","348","517382","0.0-15.0-1.5","bYlzHPOxUs","63e541874bfc845f9ff78828","6617fad957f7c6a12ea16e26","6622cfddd663757775a67a56","
        <div id=""grid-container"">
        <!-- Grid items will be dynamically added here -->
    </div>    ","null","","","","","","","","","","","",""
"","1102","html-keyboard-response","349","517685","0.0-15.0-2.5","bYlzHPOxUs","63e541874bfc845f9ff78828","6617fad957f7c6a12ea16e26","6622cfddd663757775a67a56","mask grid","q","","","","","Ontogenetic_Distractor_Threat_target","onmask","800","q","5","Ontogenetic","true","experimental"
"","null","html-keyboard-response","350","518390","0.0-15.0-0.6","bYlzHPOxUs","63e541874bfc845f9ff78828","6617fad957f7c6a12ea16e26","6622cfddd663757775a67a56","fixation cross","null","","","","","","","","","","","",""
"","null","html-keyboard-response","351","519197","0.0-15.0-1.6","bYlzHPOxUs","63e541874bfc845f9ff78828","6617fad957f7c6a12ea16e26","6622cfddd663757775a67a56","
        <div id=""grid-container"">
        <!-- Grid items will be dynamically added here -->
    </div>    ","null","","","","","","","","","","","",""
"","1002","html-keyboard-response","352","519400","0.0-15.0-2.6","bYlzHPOxUs","63e541874bfc845f9ff78828","6617fad957f7c6a12ea16e26","6622cfddd663757775a67a56","mask grid","q","","","","","Ontogenetic_Distractor_Threat_target","onmask","800","q","1","Ontogenetic","true","experimental"
"","null","html-keyboard-response","353","520109","0.0-15.0-0.7","bYlzHPOxUs","63e541874bfc845f9ff78828","6617fad957f7c6a12ea16e26","6622cfddd663757775a67a56","fixation cross","null","","","","","","","","","","","",""
"","null","html-keyboard-response","354","520923","0.0-15.0-1.7","bYlzHPOxUs","63e541874bfc845f9ff78828","6617fad957f7c6a12ea16e26","6622cfddd663757775a67a56","
        <div id=""grid-container"">
        <!-- Grid items will be dynamically added here -->
    </div>    ","null","","","","","","","","","","","",""
"","800","html-keyboard-response","355","525939","0.0-15.0-2.7","bYlzHPOxUs","63e541874bfc845f9ff78828","6617fad957f7c6a12ea16e26","6622cfddd663757775a67a56","mask grid","null","","","","","Ontogenetic_Distractor_Nonthreat_target","onmask","800","p","2","Ontogenetic","false","experimental"
"","null","html-keyboard-response","356","526661","0.0-15.0-0.8","bYlzHPOxUs","63e541874bfc845f9ff78828","6617fad957f7c6a12ea16e26","6622cfddd663757775a67a56","fixation cross","null","","","","","","","","","","","",""
"","null","html-keyboard-response","357","527462","0.0-15.0-1.8","bYlzHPOxUs","63e541874bfc845f9ff78828","6617fad957f7c6a12ea16e26","6622cfddd663757775a67a56","
        <div id=""grid-container"">
        <!-- Grid items will be dynamically added here -->
    </div>    ","null","","","","","","","","","","","",""
"","1081","html-keyboard-response","358","527744","0.0-15.0-2.8","bYlzHPOxUs","63e541874bfc845f9ff78828","6617fad957f7c6a12ea16e26","6622cfddd663757775a67a56","mask grid","q","","","","","Ontogenetic_Distractor_Threat_target","onmask","800","q","4","Ontogenetic","true","experimental"
"","null","html-keyboard-response","359","528453","0.0-15.0-0.9","bYlzHPOxUs","63e541874bfc845f9ff78828","6617fad957f7c6a12ea16e26","6622cfddd663757775a67a56","fixation cross","null","","","","","","","","","","","",""
"","null","html-keyboard-response","360","529258","0.0-15.0-1.9","bYlzHPOxUs","63e541874bfc845f9ff78828","6617fad957f7c6a12ea16e26","6622cfddd663757775a67a56","
        <div id=""grid-container"">
        <!-- Grid items will be dynamically added here -->
    </div>    ","null","","","","","","","","","","","",""
"","823","html-keyboard-response","361","529281","0.0-15.0-2.9","bYlzHPOxUs","63e541874bfc845f9ff78828","6617fad957f7c6a12ea16e26","6622cfddd663757775a67a56","mask grid","q","","","","","Ontogenetic_Distractor_Threat_target","onmask","800","q","5","Ontogenetic","true","experimental"
"","null","html-keyboard-response","362","529998","0.0-15.0-0.10","bYlzHPOxUs","63e541874bfc845f9ff78828","6617fad957f7c6a12ea16e26","6622cfddd663757775a67a56","fixation cross","null","","","","","","","","","","","",""
"","null","html-keyboard-response","363","530802","0.0-15.0-1.10","bYlzHPOxUs","63e541874bfc845f9ff78828","6617fad957f7c6a12ea16e26","6622cfddd663757775a67a56","
        <div id=""grid-container"">
        <!-- Grid items will be dynamically added here -->
    </div>    ","null","","","","","","","","","","","",""
"","800","html-keyboard-response","364","535806","0.0-15.0-2.10","bYlzHPOxUs","63e541874bfc845f9ff78828","6617fad957f7c6a12ea16e26","6622cfddd663757775a67a56","mask grid","null","","","","","Ontogenetic_Distractor_Nonthreat_target","onmask","800","p","8","Ontogenetic","false","experimental"
"","null","html-keyboard-response","365","536530","0.0-15.0-0.11","bYlzHPOxUs","63e541874bfc845f9ff78828","6617fad957f7c6a12ea16e26","6622cfddd663757775a67a56","fixation cross","null","","","","","","","","","","","",""
"","null","html-keyboard-response","366","537333","0.0-15.0-1.11","bYlzHPOxUs","63e541874bfc845f9ff78828","6617fad957f7c6a12ea16e26","6622cfddd663757775a67a56","
        <div id=""grid-container"">
        <!-- Grid items will be dynamically added here -->
    </div>    ","null","","","","","","","","","","","",""
"","1522","html-keyboard-response","367","538055","0.0-15.0-2.11","bYlzHPOxUs","63e541874bfc845f9ff78828","6617fad957f7c6a12ea16e26","6622cfddd663757775a67a56","mask grid","q","","","","","Ontogenetic_Distractor_Nonthreat_target","onmask","800","p","3","Ontogenetic","false","experimental"
"","null","html-keyboard-response","368","538765","0.0-15.0-0.12","bYlzHPOxUs","63e541874bfc845f9ff78828","6617fad957f7c6a12ea16e26","6622cfddd663757775a67a56","fixation cross","null","","","","","","","","","","","",""
"","null","html-keyboard-response","369","539574","0.0-15.0-1.12","bYlzHPOxUs","63e541874bfc845f9ff78828","6617fad957f7c6a12ea16e26","6622cfddd663757775a67a56","
        <div id=""grid-container"">
        <!-- Grid items will be dynamically added here -->
