"success","rt","trial_type","trial_index","time_elapsed","internal_node_id","unique_identifier","subject_id","study_id","session_id","stimulus","response","timeout","failed_images","failed_audio","failed_video","task","time_manipulation","respondedwhen","correctresponse","targetimagelocation","blocktype","correct","roundtype"
"true","1827","fullscreen","0","2829","0.0-0.0","bFaWd5iBub","655f8b6aead3b1448f52681b","6617fad957f7c6a12ea16e26","6622ce527487f6286fd59cc3","","","","","","","","","","","","","",""
"","4431","html-keyboard-response","1","7262","0.0-1.0","bFaWd5iBub","655f8b6aead3b1448f52681b","6617fad957f7c6a12ea16e26","6622ce527487f6286fd59cc3","instruction screen 0"," ","","","","","","","","","","","",""
"true","","preload","2","7986","0.0-2.0","bFaWd5iBub","655f8b6aead3b1448f52681b","6617fad957f7c6a12ea16e26","6622ce527487f6286fd59cc3","","","false","[]","[]","[]","","","","","","","",""
"","6488","html-keyboard-response","3","14475","0.0-3.0","bFaWd5iBub","655f8b6aead3b1448f52681b","6617fad957f7c6a12ea16e26","6622ce527487f6286fd59cc3","instruction screen 1"," ","","","","","","","","","","","",""
"","7335","html-keyboard-response","4","21812","0.0-4.0","bFaWd5iBub","655f8b6aead3b1448f52681b","6617fad957f7c6a12ea16e26","6622ce527487f6286fd59cc3","instruction screen 2","q","","","","","","","","","","","",""
"","3230","html-keyboard-response","5","25044","0.0-5.0","bFaWd5iBub","655f8b6aead3b1448f52681b","6617fad957f7c6a12ea16e26","6622ce527487f6286fd59cc3","instruction screen 3","p","","","","","","","","","","","",""
"","6007","html-keyboard-response","6","31056","0.0-6.0","bFaWd5iBub","655f8b6aead3b1448f52681b","6617fad957f7c6a12ea16e26","6622ce527487f6286fd59cc3","instruction screen 4"," ","","","","","","","","","","","",""
"","9147","html-keyboard-response","7","40205","0.0-7.0","bFaWd5iBub","655f8b6aead3b1448f52681b","6617fad957f7c6a12ea16e26","6622ce527487f6286fd59cc3","instruction screen 5"," ","","","","","","","","","","","",""
"","null","html-keyboard-response","8","40712","0.0-8.0","bFaWd5iBub","655f8b6aead3b1448f52681b","6617fad957f7c6a12ea16e26","6622ce527487f6286fd59cc3","fixation cross","null","","","","","","","","","","","",""
"","null","html-keyboard-response","9","41216","0.0-9.0-0.0","bFaWd5iBub","655f8b6aead3b1448f52681b","6617fad957f7c6a12ea16e26","6622ce527487f6286fd59cc3","fixation cross","null","","","","","","","","","","","",""
"","946","html-keyboard-response","10","42162","0.0-9.0-1.0","bFaWd5iBub","655f8b6aead3b1448f52681b","6617fad957f7c6a12ea16e26","6622ce527487f6286fd59cc3","image grid","q","","","","","Ontogenetic_Distractor_Threat_target","3000","ongrid","q","4","Ontogenetic","true","practice"
"","null","html-keyboard-response","11","42321","0.0-9.0-2.0","bFaWd5iBub","655f8b6aead3b1448f52681b","6617fad957f7c6a12ea16e26","6622ce527487f6286fd59cc3","
    <div id=""grid-container"">
        <!-- Grid items will be dynamically added here -->
    </div>    ","null","","","","","","","","","","","",""
"","null","html-keyboard-response","12","43544","0.0-9.0-3.0","bFaWd5iBub","655f8b6aead3b1448f52681b","6617fad957f7c6a12ea16e26","6622ce527487f6286fd59cc3","feedback screen","null","","","","","","","","","","","",""
"","null","html-keyboard-response","13","44055","0.0-9.0-0.1","bFaWd5iBub","655f8b6aead3b1448f52681b","6617fad957f7c6a12ea16e26","6622ce527487f6286fd59cc3","fixation cross","null","","","","","","","","","","","",""
"","1312","html-keyboard-response","14","45367","0.0-9.0-1.1","bFaWd5iBub","655f8b6aead3b1448f52681b","6617fad957f7c6a12ea16e26","6622ce527487f6286fd59cc3","image grid","p","","","","","Ontogenetic_Distractor_Nonthreat_target","2900","ongrid","p","7","Ontogenetic","true","practice"
"","null","html-keyboard-response","15","45525","0.0-9.0-2.1","bFaWd5iBub","655f8b6aead3b1448f52681b","6617fad957f7c6a12ea16e26","6622ce527487f6286fd59cc3","
    <div id=""grid-container"">
        <!-- Grid items will be dynamically added here -->
    </div>    ","null","","","","","","","","","","","",""
"","null","html-keyboard-response","16","46746","0.0-9.0-3.1","bFaWd5iBub","655f8b6aead3b1448f52681b","6617fad957f7c6a12ea16e26","6622ce527487f6286fd59cc3","feedback screen","null","","","","","","","","","","","",""
"","null","html-keyboard-response","17","47256","0.0-9.0-0.2","bFaWd5iBub","655f8b6aead3b1448f52681b","6617fad957f7c6a12ea16e26","6622ce527487f6286fd59cc3","fixation cross","null","","","","","","","","","","","",""
"","994","html-keyboard-response","18","48250","0.0-9.0-1.2","bFaWd5iBub","655f8b6aead3b1448f52681b","6617fad957f7c6a12ea16e26","6622ce527487f6286fd59cc3","image grid"," ","","","","","Phylogenetic_Distractor_Nonthreat_target","2800","ongrid","p","3","Ontogenetic","false","practice"
"","null","html-keyboard-response","19","48407","0.0-9.0-2.2","bFaWd5iBub","655f8b6aead3b1448f52681b","6617fad957f7c6a12ea16e26","6622ce527487f6286fd59cc3","
    <div id=""grid-container"">
        <!-- Grid items will be dynamically added here -->
    </div>    ","null","","","","","","","","","","","",""
"","null","html-keyboard-response","20","49629","0.0-9.0-3.2","bFaWd5iBub","655f8b6aead3b1448f52681b","6617fad957f7c6a12ea16e26","6622ce527487f6286fd59cc3","feedback screen","null","","","","","","","","","","","",""
"","null","html-keyboard-response","21","50139","0.0-9.0-0.3","bFaWd5iBub","655f8b6aead3b1448f52681b","6617fad957f7c6a12ea16e26","6622ce527487f6286fd59cc3","fixation cross","null","","","","","","","","","","","",""
"","1226","html-keyboard-response","22","51365","0.0-9.0-1.3","bFaWd5iBub","655f8b6aead3b1448f52681b","6617fad957f7c6a12ea16e26","6622ce527487f6286fd59cc3","image grid","q","","","","","Phylogenetic_Distractor_Threat_target","2700","ongrid","q","7","Ontogenetic","true","practice"
"","null","html-keyboard-response","23","51523","0.0-9.0-2.3","bFaWd5iBub","655f8b6aead3b1448f52681b","6617fad957f7c6a12ea16e26","6622ce527487f6286fd59cc3","
    <div id=""grid-container"">
        <!-- Grid items will be dynamically added here -->
    </div>    ","null","","","","","","","","","","","",""
"","null","html-keyboard-response","24","52749","0.0-9.0-3.3","bFaWd5iBub","655f8b6aead3b1448f52681b","6617fad957f7c6a12ea16e26","6622ce527487f6286fd59cc3","feedback screen","null","","","","","","","","","","","",""
"","null","html-keyboard-response","25","53257","0.0-9.0-0.4","bFaWd5iBub","655f8b6aead3b1448f52681b","6617fad957f7c6a12ea16e26","6622ce527487f6286fd59cc3","fixation cross","null","","","","","","","","","","","",""
"","839","html-keyboard-response","26","54097","0.0-9.0-1.4","bFaWd5iBub","655f8b6aead3b1448f52681b","6617fad957f7c6a12ea16e26","6622ce527487f6286fd59cc3","image grid","q","","","","","Ontogenetic_Distractor_Threat_target","2600","ongrid","q","8","Ontogenetic","true","practice"
"","null","html-keyboard-response","27","54263","0.0-9.0-2.4","bFaWd5iBub","655f8b6aead3b1448f52681b","6617fad957f7c6a12ea16e26","6622ce527487f6286fd59cc3","
    <div id=""grid-container"">
        <!-- Grid items will be dynamically added here -->
    </div>    ","null","","","","","","","","","","","",""
"","null","html-keyboard-response","28","55490","0.0-9.0-3.4","bFaWd5iBub","655f8b6aead3b1448f52681b","6617fad957f7c6a12ea16e26","6622ce527487f6286fd59cc3","feedback screen","null","","","","","","","","","","","",""
"","null","html-keyboard-response","29","56004","0.0-9.0-0.5","bFaWd5iBub","655f8b6aead3b1448f52681b","6617fad957f7c6a12ea16e26","6622ce527487f6286fd59cc3","fixation cross","null","","","","","","","","","","","",""
"","1281","html-keyboard-response","30","57286","0.0-9.0-1.5","bFaWd5iBub","655f8b6aead3b1448f52681b","6617fad957f7c6a12ea16e26","6622ce527487f6286fd59cc3","image grid"," ","","","","","Phylogenetic_Distractor_Nonthreat_target","2500","ongrid","p","6","Ontogenetic","false","practice"
"","null","html-keyboard-response","31","57442","0.0-9.0-2.5","bFaWd5iBub","655f8b6aead3b1448f52681b","6617fad957f7c6a12ea16e26","6622ce527487f6286fd59cc3","
    <div id=""grid-container"">
        <!-- Grid items will be dynamically added here -->
    </div>    ","null","","","","","","","","","","","",""
"","null","html-keyboard-response","32","58656","0.0-9.0-3.5","bFaWd5iBub","655f8b6aead3b1448f52681b","6617fad957f7c6a12ea16e26","6622ce527487f6286fd59cc3","feedback screen","null","","","","","","","","","","","",""
"","null","html-keyboard-response","33","59158","0.0-9.0-0.6","bFaWd5iBub","655f8b6aead3b1448f52681b","6617fad957f7c6a12ea16e26","6622ce527487f6286fd59cc3","fixation cross","null","","","","","","","","","","","",""
"","1230","html-keyboard-response","34","60389","0.0-9.0-1.6","bFaWd5iBub","655f8b6aead3b1448f52681b","6617fad957f7c6a12ea16e26","6622ce527487f6286fd59cc3","image grid","p","","","","","Ontogenetic_Distractor_Nonthreat_target","2400","ongrid","p","9","Ontogenetic","true","practice"
"","null","html-keyboard-response","35","60545","0.0-9.0-2.6","bFaWd5iBub","655f8b6aead3b1448f52681b","6617fad957f7c6a12ea16e26","6622ce527487f6286fd59cc3","
    <div id=""grid-container"">
        <!-- Grid items will be dynamically added here -->
    </div>    ","null","","","","","","","","","","","",""
"","null","html-keyboard-response","36","61757","0.0-9.0-3.6","bFaWd5iBub","655f8b6aead3b1448f52681b","6617fad957f7c6a12ea16e26","6622ce527487f6286fd59cc3","feedback screen","null","","","","","","","","","","","",""
"","null","html-keyboard-response","37","62268","0.0-9.0-0.7","bFaWd5iBub","655f8b6aead3b1448f52681b","6617fad957f7c6a12ea16e26","6622ce527487f6286fd59cc3","fixation cross","null","","","","","","","","","","","",""
"","648","html-keyboard-response","38","62917","0.0-9.0-1.7","bFaWd5iBub","655f8b6aead3b1448f52681b","6617fad957f7c6a12ea16e26","6622ce527487f6286fd59cc3","image grid","q","","","","","Ontogenetic_Distractor_Threat_target","2300","ongrid","q","2","Ontogenetic","true","practice"
"","null","html-keyboard-response","39","63081","0.0-9.0-2.7","bFaWd5iBub","655f8b6aead3b1448f52681b","6617fad957f7c6a12ea16e26","6622ce527487f6286fd59cc3","
    <div id=""grid-container"">
        <!-- Grid items will be dynamically added here -->
    </div>    ","null","","","","","","","","","","","",""
"","null","html-keyboard-response","40","64289","0.0-9.0-3.7","bFaWd5iBub","655f8b6aead3b1448f52681b","6617fad957f7c6a12ea16e26","6622ce527487f6286fd59cc3","feedback screen","null","","","","","","","","","","","",""
"","null","html-keyboard-response","41","64800","0.0-9.0-0.8","bFaWd5iBub","655f8b6aead3b1448f52681b","6617fad957f7c6a12ea16e26","6622ce527487f6286fd59cc3","fixation cross","null","","","","","","","","","","","",""
"","1369","html-keyboard-response","42","66169","0.0-9.0-1.8","bFaWd5iBub","655f8b6aead3b1448f52681b","6617fad957f7c6a12ea16e26","6622ce527487f6286fd59cc3","image grid"," ","","","","","Ontogenetic_Distractor_notarget","2200","ongrid"," ","7","Ontogenetic","true","practice"
"","null","html-keyboard-response","43","66326","0.0-9.0-2.8","bFaWd5iBub","655f8b6aead3b1448f52681b","6617fad957f7c6a12ea16e26","6622ce527487f6286fd59cc3","
    <div id=""grid-container"">
        <!-- Grid items will be dynamically added here -->
    </div>    ","null","","","","","","","","","","","",""
"","null","html-keyboard-response","44","67529","0.0-9.0-3.8","bFaWd5iBub","655f8b6aead3b1448f52681b","6617fad957f7c6a12ea16e26","6622ce527487f6286fd59cc3","feedback screen","null","","","","","","","","","","","",""
"","null","html-keyboard-response","45","68039","0.0-9.0-0.9","bFaWd5iBub","655f8b6aead3b1448f52681b","6617fad957f7c6a12ea16e26","6622ce527487f6286fd59cc3","fixation cross","null","","","","","","","","","","","",""
"","620","html-keyboard-response","46","68659","0.0-9.0-1.9","bFaWd5iBub","655f8b6aead3b1448f52681b","6617fad957f7c6a12ea16e26","6622ce527487f6286fd59cc3","image grid","q","","","","","Ontogenetic_Distractor_Threat_target","2100","ongrid","q","5","Ontogenetic","true","practice"
"","null","html-keyboard-response","47","68813","0.0-9.0-2.9","bFaWd5iBub","655f8b6aead3b1448f52681b","6617fad957f7c6a12ea16e26","6622ce527487f6286fd59cc3","
    <div id=""grid-container"">
        <!-- Grid items will be dynamically added here -->
    </div>    ","null","","","","","","","","","","","",""
"","null","html-keyboard-response","48","70027","0.0-9.0-3.9","bFaWd5iBub","655f8b6aead3b1448f52681b","6617fad957f7c6a12ea16e26","6622ce527487f6286fd59cc3","feedback screen","null","","","","","","","","","","","",""
"","null","html-keyboard-response","49","70542","0.0-9.0-0.10","bFaWd5iBub","655f8b6aead3b1448f52681b","6617fad957f7c6a12ea16e26","6622ce527487f6286fd59cc3","fixation cross","null","","","","","","","","","","","",""
"","1296","html-keyboard-response","50","71838","0.0-9.0-1.10","bFaWd5iBub","655f8b6aead3b1448f52681b","6617fad957f7c6a12ea16e26","6622ce527487f6286fd59cc3","image grid","q","","","","","Phylogenetic_Distractor_notarget","2000","ongrid"," ","8","Ontogenetic","false","practice"
"","null","html-keyboard-response","51","71999","0.0-9.0-2.10","bFaWd5iBub","655f8b6aead3b1448f52681b","6617fad957f7c6a12ea16e26","6622ce527487f6286fd59cc3","
    <div id=""grid-container"">
        <!-- Grid items will be dynamically added here -->
    </div>    ","null","","","","","","","","","","","",""
"","null","html-keyboard-response","52","73207","0.0-9.0-3.10","bFaWd5iBub","655f8b6aead3b1448f52681b","6617fad957f7c6a12ea16e26","6622ce527487f6286fd59cc3","feedback screen","null","","","","","","","","","","","",""
"","null","html-keyboard-response","53","73711","0.0-9.0-0.11","bFaWd5iBub","655f8b6aead3b1448f52681b","6617fad957f7c6a12ea16e26","6622ce527487f6286fd59cc3","fixation cross","null","","","","","","","","","","","",""
"","1574","html-keyboard-response","54","75286","0.0-9.0-1.11","bFaWd5iBub","655f8b6aead3b1448f52681b","6617fad957f7c6a12ea16e26","6622ce527487f6286fd59cc3","image grid","p","","","","","Ontogenetic_Distractor_Nonthreat_target","1900","ongrid","p","7","Ontogenetic","true","practice"
"","null","html-keyboard-response","55","75440","0.0-9.0-2.11","bFaWd5iBub","655f8b6aead3b1448f52681b","6617fad957f7c6a12ea16e26","6622ce527487f6286fd59cc3","
    <div id=""grid-container"">
        <!-- Grid items will be dynamically added here -->
    </div>    ","null","","","","","","","","","","","",""
"","null","html-keyboard-response","56","76650","0.0-9.0-3.11","bFaWd5iBub","655f8b6aead3b1448f52681b","6617fad957f7c6a12ea16e26","6622ce527487f6286fd59cc3","feedback screen","null","","","","","","","","","","","",""
"","null","html-keyboard-response","57","77159","0.0-9.0-0.12","bFaWd5iBub","655f8b6aead3b1448f52681b","6617fad957f7c6a12ea16e26","6622ce527487f6286fd59cc3","fixation cross","null","","","","","","","","","","","",""
"","1444","html-keyboard-response","58","78603","0.0-9.0-1.12","bFaWd5iBub","655f8b6aead3b1448f52681b","6617fad957f7c6a12ea16e26","6622ce527487f6286fd59cc3","image grid"," ","","","","","Phylogenetic_Distractor_Nonthreat_target","1800","ongrid","p","4","Ontogenetic","false","practice"
"","null","html-keyboard-response","59","78756","0.0-9.0-2.12","bFaWd5iBub","655f8b6aead3b1448f52681b","6617fad957f7c6a12ea16e26","6622ce527487f6286fd59cc3","
    <div id=""grid-container"">
        <!-- Grid items will be dynamically added here -->
    </div>    ","null","","","","","","","","","","","",""
"","null","html-keyboard-response","60","79961","0.0-9.0-3.12","bFaWd5iBub","655f8b6aead3b1448f52681b","6617fad957f7c6a12ea16e26","6622ce527487f6286fd59cc3","feedback screen","null","","","","","","","","","","","",""
"","null","html-keyboard-response","61","80472","0.0-9.0-0.13","bFaWd5iBub","655f8b6aead3b1448f52681b","6617fad957f7c6a12ea16e26","6622ce527487f6286fd59cc3","fixation cross","null","","","","","","","","","","","",""
"","null","html-keyboard-response","62","82180","0.0-9.0-1.13","bFaWd5iBub","655f8b6aead3b1448f52681b","6617fad957f7c6a12ea16e26","6622ce527487f6286fd59cc3","
        <div id=""grid-container"">
        <!-- Grid items will be dynamically added here -->
    </div>    ","null","","","","","","","","","","","",""
"","2960","html-keyboard-response","63","83440","0.0-9.0-2.13","bFaWd5iBub","655f8b6aead3b1448f52681b","6617fad957f7c6a12ea16e26","6622ce527487f6286fd59cc3","mask grid","q","","","","","Phylogenetic_Distractor_Threat_target","1700","onmask","q","1","Ontogenetic","true","practice"
"","null","html-keyboard-response","64","84657","0.0-9.0-3.13","bFaWd5iBub","655f8b6aead3b1448f52681b","6617fad957f7c6a12ea16e26","6622ce527487f6286fd59cc3","feedback screen","null","","","","","","","","","","","",""
"","null","html-keyboard-response","65","85165","0.0-9.0-0.14","bFaWd5iBub","655f8b6aead3b1448f52681b","6617fad957f7c6a12ea16e26","6622ce527487f6286fd59cc3","fixation cross","null","","","","","","","","","","","",""
"","863","html-keyboard-response","66","86028","0.0-9.0-1.14","bFaWd5iBub","655f8b6aead3b1448f52681b","6617fad957f7c6a12ea16e26","6622ce527487f6286fd59cc3","image grid","p","","","","","Ontogenetic_Distractor_Nonthreat_target","1600","ongrid","p","8","Ontogenetic","true","practice"
"","null","html-keyboard-response","67","86181","0.0-9.0-2.14","bFaWd5iBub","655f8b6aead3b1448f52681b","6617fad957f7c6a12ea16e26","6622ce527487f6286fd59cc3","
    <div id=""grid-container"">
        <!-- Grid items will be dynamically added here -->
    </div>    ","null","","","","","","","","","","","",""
"","null","html-keyboard-response","68","87391","0.0-9.0-3.14","bFaWd5iBub","655f8b6aead3b1448f52681b","6617fad957f7c6a12ea16e26","6622ce527487f6286fd59cc3","feedback screen","null","","","","","","","","","","","",""
"","null","html-keyboard-response","69","87902","0.0-9.0-0.15","bFaWd5iBub","655f8b6aead3b1448f52681b","6617fad957f7c6a12ea16e26","6622ce527487f6286fd59cc3","fixation cross","null","","","","","","","","","","","",""
"","null","html-keyboard-response","70","89415","0.0-9.0-1.15","bFaWd5iBub","655f8b6aead3b1448f52681b","6617fad957f7c6a12ea16e26","6622ce527487f6286fd59cc3","
        <div id=""grid-container"">
        <!-- Grid items will be dynamically added here -->
    </div>    ","null","","","","","","","","","","","",""
"","1749","html-keyboard-response","71","89664","0.0-9.0-2.15","bFaWd5iBub","655f8b6aead3b1448f52681b","6617fad957f7c6a12ea16e26","6622ce527487f6286fd59cc3","mask grid","p","","","","","Phylogenetic_Distractor_Threat_target","1500","onmask","q","9","Ontogenetic","false","practice"
"","null","html-keyboard-response","72","90884","0.0-9.0-3.15","bFaWd5iBub","655f8b6aead3b1448f52681b","6617fad957f7c6a12ea16e26","6622ce527487f6286fd59cc3","feedback screen","null","","","","","","","","","","","",""
"","null","html-keyboard-response","73","91398","0.0-9.0-0.16","bFaWd5iBub","655f8b6aead3b1448f52681b","6617fad957f7c6a12ea16e26","6622ce527487f6286fd59cc3","fixation cross","null","","","","","","","","","","","",""
"","999","html-keyboard-response","74","92398","0.0-9.0-1.16","bFaWd5iBub","655f8b6aead3b1448f52681b","6617fad957f7c6a12ea16e26","6622ce527487f6286fd59cc3","image grid","q","","","","","Phylogenetic_Distractor_Threat_target","1400","ongrid","q","9","Ontogenetic","true","practice"
"","null","html-keyboard-response","75","92554","0.0-9.0-2.16","bFaWd5iBub","655f8b6aead3b1448f52681b","6617fad957f7c6a12ea16e26","6622ce527487f6286fd59cc3","
    <div id=""grid-container"">
        <!-- Grid items will be dynamically added here -->
    </div>    ","null","","","","","","","","","","","",""
"","null","html-keyboard-response","76","93776","0.0-9.0-3.16","bFaWd5iBub","655f8b6aead3b1448f52681b","6617fad957f7c6a12ea16e26","6622ce527487f6286fd59cc3","feedback screen","null","","","","","","","","","","","",""
"","null","html-keyboard-response","77","94288","0.0-9.0-0.17","bFaWd5iBub","655f8b6aead3b1448f52681b","6617fad957f7c6a12ea16e26","6622ce527487f6286fd59cc3","fixation cross","null","","","","","","","","","","","",""
"","null","html-keyboard-response","78","95592","0.0-9.0-1.17","bFaWd5iBub","655f8b6aead3b1448f52681b","6617fad957f7c6a12ea16e26","6622ce527487f6286fd59cc3","
        <div id=""grid-container"">
        <!-- Grid items will be dynamically added here -->
    </div>    ","null","","","","","","","","","","","",""
"","1456","html-keyboard-response","79","95748","0.0-9.0-2.17","bFaWd5iBub","655f8b6aead3b1448f52681b","6617fad957f7c6a12ea16e26","6622ce527487f6286fd59cc3","mask grid","p","","","","","Phylogenetic_Distractor_Nonthreat_target","1300","onmask","p","4","Ontogenetic","true","practice"
"","null","html-keyboard-response","80","96959","0.0-9.0-3.17","bFaWd5iBub","655f8b6aead3b1448f52681b","6617fad957f7c6a12ea16e26","6622ce527487f6286fd59cc3","feedback screen","null","","","","","","","","","","","",""
"","null","html-keyboard-response","81","97460","0.0-9.0-0.18","bFaWd5iBub","655f8b6aead3b1448f52681b","6617fad957f7c6a12ea16e26","6622ce527487f6286fd59cc3","fixation cross","null","","","","","","","","","","","",""
"","1015","html-keyboard-response","82","98475","0.0-9.0-1.18","bFaWd5iBub","655f8b6aead3b1448f52681b","6617fad957f7c6a12ea16e26","6622ce527487f6286fd59cc3","image grid"," ","","","","","Ontogenetic_Distractor_notarget","1200","ongrid"," ","7","Ontogenetic","true","practice"
"","null","html-keyboard-response","83","98627","0.0-9.0-2.18","bFaWd5iBub","655f8b6aead3b1448f52681b","6617fad957f7c6a12ea16e26","6622ce527487f6286fd59cc3","
    <div id=""grid-container"">
        <!-- Grid items will be dynamically added here -->
    </div>    ","null","","","","","","","","","","","",""
"","null","html-keyboard-response","84","99829","0.0-9.0-3.18","bFaWd5iBub","655f8b6aead3b1448f52681b","6617fad957f7c6a12ea16e26","6622ce527487f6286fd59cc3","feedback screen","null","","","","","","","","","","","",""
"","null","html-keyboard-response","85","100343","0.0-9.0-0.19","bFaWd5iBub","655f8b6aead3b1448f52681b","6617fad957f7c6a12ea16e26","6622ce527487f6286fd59cc3","fixation cross","null","","","","","","","","","","","",""
"","null","html-keyboard-response","86","101448","0.0-9.0-1.19","bFaWd5iBub","655f8b6aead3b1448f52681b","6617fad957f7c6a12ea16e26","6622ce527487f6286fd59cc3","
        <div id=""grid-container"">
        <!-- Grid items will be dynamically added here -->
    </div>    ","null","","","","","","","","","","","",""
"","2242","html-keyboard-response","87","102590","0.0-9.0-2.19","bFaWd5iBub","655f8b6aead3b1448f52681b","6617fad957f7c6a12ea16e26","6622ce527487f6286fd59cc3","mask grid","p","","","","","Phylogenetic_Distractor_notarget","1100","onmask"," ","3","Ontogenetic","false","practice"
"","null","html-keyboard-response","88","103803","0.0-9.0-3.19","bFaWd5iBub","655f8b6aead3b1448f52681b","6617fad957f7c6a12ea16e26","6622ce527487f6286fd59cc3","feedback screen","null","","","","","","","","","","","",""
"","5352","html-keyboard-response","89","109173","0.0-10.0","bFaWd5iBub","655f8b6aead3b1448f52681b","6617fad957f7c6a12ea16e26","6622ce527487f6286fd59cc3","pre-experimental_briefing"," ","","","","","","","","","","","",""
"","null","html-keyboard-response","90","111712","0.0-11.0-0.0","bFaWd5iBub","655f8b6aead3b1448f52681b","6617fad957f7c6a12ea16e26","6622ce527487f6286fd59cc3","fixation cross","null","","","","","","","","","","","",""
"","null","html-keyboard-response","91","112532","0.0-11.0-1.0","bFaWd5iBub","655f8b6aead3b1448f52681b","6617fad957f7c6a12ea16e26","6622ce527487f6286fd59cc3","
        <div id=""grid-container"">
        <!-- Grid items will be dynamically added here -->
    </div>    ","null","","","","","","","","","","","",""
"","1444","html-keyboard-response","92","113176","0.0-11.0-2.0","bFaWd5iBub","655f8b6aead3b1448f52681b","6617fad957f7c6a12ea16e26","6622ce527487f6286fd59cc3","mask grid","p","","","","","Ontogenetic_Distractor_Nonthreat_target","800","onmask","p","2","Ontogenetic","true","experimental"
"","null","html-keyboard-response","93","113900","0.0-11.0-0.1","bFaWd5iBub","655f8b6aead3b1448f52681b","6617fad957f7c6a12ea16e26","6622ce527487f6286fd59cc3","fixation cross","null","","","","","","","","","","","",""
"","null","html-keyboard-response","94","114704","0.0-11.0-1.1","bFaWd5iBub","655f8b6aead3b1448f52681b","6617fad957f7c6a12ea16e26","6622ce527487f6286fd59cc3","
        <div id=""grid-container"">
        <!-- Grid items will be dynamically added here -->
    </div>    ","null","","","","","","","","","","","",""
"","908","html-keyboard-response","95","114812","0.0-11.0-2.1","bFaWd5iBub","655f8b6aead3b1448f52681b","6617fad957f7c6a12ea16e26","6622ce527487f6286fd59cc3","mask grid","q","","","","","Ontogenetic_Distractor_Threat_target","800","onmask","q","4","Ontogenetic","true","experimental"
"","null","html-keyboard-response","96","115526","0.0-11.0-0.2","bFaWd5iBub","655f8b6aead3b1448f52681b","6617fad957f7c6a12ea16e26","6622ce527487f6286fd59cc3","fixation cross","null","","","","","","","","","","","",""
"","null","html-keyboard-response","97","116328","0.0-11.0-1.2","bFaWd5iBub","655f8b6aead3b1448f52681b","6617fad957f7c6a12ea16e26","6622ce527487f6286fd59cc3","
        <div id=""grid-container"">
        <!-- Grid items will be dynamically added here -->
    </div>    ","null","","","","","","","","","","","",""
"","1128","html-keyboard-response","98","116656","0.0-11.0-2.2","bFaWd5iBub","655f8b6aead3b1448f52681b","6617fad957f7c6a12ea16e26","6622ce527487f6286fd59cc3","mask grid","p","","","","","Ontogenetic_Distractor_Nonthreat_target","800","onmask","p","1","Ontogenetic","true","experimental"
"","null","html-keyboard-response","99","117377","0.0-11.0-0.3","bFaWd5iBub","655f8b6aead3b1448f52681b","6617fad957f7c6a12ea16e26","6622ce527487f6286fd59cc3","fixation cross","null","","","","","","","","","","","",""
"","null","html-keyboard-response","100","118192","0.0-11.0-1.3","bFaWd5iBub","655f8b6aead3b1448f52681b","6617fad957f7c6a12ea16e26","6622ce527487f6286fd59cc3","
        <div id=""grid-container"">
        <!-- Grid items will be dynamically added here -->
    </div>    ","null","","","","","","","","","","","",""
"","1233","html-keyboard-response","101","118626","0.0-11.0-2.3","bFaWd5iBub","655f8b6aead3b1448f52681b","6617fad957f7c6a12ea16e26","6622ce527487f6286fd59cc3","mask grid","p","","","","","Ontogenetic_Distractor_Nonthreat_target","800","onmask","p","2","Ontogenetic","true","experimental"
"","null","html-keyboard-response","102","119336","0.0-11.0-0.4","bFaWd5iBub","655f8b6aead3b1448f52681b","6617fad957f7c6a12ea16e26","6622ce527487f6286fd59cc3","fixation cross","null","","","","","","","","","","","",""
"","null","html-keyboard-response","103","120146","0.0-11.0-1.4","bFaWd5iBub","655f8b6aead3b1448f52681b","6617fad957f7c6a12ea16e26","6622ce527487f6286fd59cc3","
        <div id=""grid-container"">
        <!-- Grid items will be dynamically added here -->
    </div>    ","null","","","","","","","","","","","",""
"","1041","html-keyboard-response","104","120388","0.0-11.0-2.4","bFaWd5iBub","655f8b6aead3b1448f52681b","6617fad957f7c6a12ea16e26","6622ce527487f6286fd59cc3","mask grid","p","","","","","Ontogenetic_Distractor_Nonthreat_target","800","onmask","p","8","Ontogenetic","true","experimental"
"","null","html-keyboard-response","105","121113","0.0-11.0-0.5","bFaWd5iBub","655f8b6aead3b1448f52681b","6617fad957f7c6a12ea16e26","6622ce527487f6286fd59cc3","fixation cross","null","","","","","","","","","","","",""
"","null","html-keyboard-response","106","121927","0.0-11.0-1.5","bFaWd5iBub","655f8b6aead3b1448f52681b","6617fad957f7c6a12ea16e26","6622ce527487f6286fd59cc3","
        <div id=""grid-container"">
        <!-- Grid items will be dynamically added here -->
    </div>    ","null","","","","","","","","","","","",""
"","829","html-keyboard-response","107","121956","0.0-11.0-2.5","bFaWd5iBub","655f8b6aead3b1448f52681b","6617fad957f7c6a12ea16e26","6622ce527487f6286fd59cc3","mask grid","p","","","","","Ontogenetic_Distractor_Nonthreat_target","800","onmask","p","9","Ontogenetic","true","experimental"
"","null","html-keyboard-response","108","122674","0.0-11.0-0.6","bFaWd5iBub","655f8b6aead3b1448f52681b","6617fad957f7c6a12ea16e26","6622ce527487f6286fd59cc3","fixation cross","null","","","","","","","","","","","",""
"","null","html-keyboard-response","109","123486","0.0-11.0-1.6","bFaWd5iBub","655f8b6aead3b1448f52681b","6617fad957f7c6a12ea16e26","6622ce527487f6286fd59cc3","
        <div id=""grid-container"">
        <!-- Grid items will be dynamically added here -->
    </div>    ","null","","","","","","","","","","","",""
"","1027","html-keyboard-response","110","123714","0.0-11.0-2.6","bFaWd5iBub","655f8b6aead3b1448f52681b","6617fad957f7c6a12ea16e26","6622ce527487f6286fd59cc3","mask grid","q","","","","","Ontogenetic_Distractor_Threat_target","800","onmask","q","9","Ontogenetic","true","experimental"
"","null","html-keyboard-response","111","124419","0.0-11.0-0.7","bFaWd5iBub","655f8b6aead3b1448f52681b","6617fad957f7c6a12ea16e26","6622ce527487f6286fd59cc3","fixation cross","null","","","","","","","","","","","",""
"","null","html-keyboard-response","112","125222","0.0-11.0-1.7","bFaWd5iBub","655f8b6aead3b1448f52681b","6617fad957f7c6a12ea16e26","6622ce527487f6286fd59cc3","
        <div id=""grid-container"">
        <!-- Grid items will be dynamically added here -->
    </div>    ","null","","","","","","","","","","","",""
"","1204","html-keyboard-response","113","125626","0.0-11.0-2.7","bFaWd5iBub","655f8b6aead3b1448f52681b","6617fad957f7c6a12ea16e26","6622ce527487f6286fd59cc3","mask grid","p","","","","","Ontogenetic_Distractor_notarget","800","onmask"," ","6","Ontogenetic","false","experimental"
"","null","html-keyboard-response","114","126327","0.0-11.0-0.8","bFaWd5iBub","655f8b6aead3b1448f52681b","6617fad957f7c6a12ea16e26","6622ce527487f6286fd59cc3","fixation cross","null","","","","","","","","","","","",""
"","725","html-keyboard-response","115","127053","0.0-11.0-1.8","bFaWd5iBub","655f8b6aead3b1448f52681b","6617fad957f7c6a12ea16e26","6622ce527487f6286fd59cc3","image grid","q","","","","","Ontogenetic_Distractor_Threat_target","800","ongrid","q","5","Ontogenetic","true","experimental"
"","null","html-keyboard-response","116","127206","0.0-11.0-2.8","bFaWd5iBub","655f8b6aead3b1448f52681b","6617fad957f7c6a12ea16e26","6622ce527487f6286fd59cc3","
    <div id=""grid-container"">
        <!-- Grid items will be dynamically added here -->
    </div>    ","null","","","","","","","","","","","",""
"","null","html-keyboard-response","117","127921","0.0-11.0-0.9","bFaWd5iBub","655f8b6aead3b1448f52681b","6617fad957f7c6a12ea16e26","6622ce527487f6286fd59cc3","fixation cross","null","","","","","","","","","","","",""
"","null","html-keyboard-response","118","128729","0.0-11.0-1.9","bFaWd5iBub","655f8b6aead3b1448f52681b","6617fad957f7c6a12ea16e26","6622ce527487f6286fd59cc3","
        <div id=""grid-container"">
        <!-- Grid items will be dynamically added here -->
    </div>    ","null","","","","","","","","","","","",""
"","820","html-keyboard-response","119","128750","0.0-11.0-2.9","bFaWd5iBub","655f8b6aead3b1448f52681b","6617fad957f7c6a12ea16e26","6622ce527487f6286fd59cc3","mask grid","q","","","","","Ontogenetic_Distractor_Threat_target","800","onmask","q","3","Ontogenetic","true","experimental"
"","null","html-keyboard-response","120","129462","0.0-11.0-0.10","bFaWd5iBub","655f8b6aead3b1448f52681b","6617fad957f7c6a12ea16e26","6622ce527487f6286fd59cc3","fixation cross","null","","","","","","","","","","","",""
"","644","html-keyboard-response","121","130106","0.0-11.0-1.10","bFaWd5iBub","655f8b6aead3b1448f52681b","6617fad957f7c6a12ea16e26","6622ce527487f6286fd59cc3","image grid","q","","","","","Ontogenetic_Distractor_Threat_target","800","ongrid","q","8","Ontogenetic","true","experimental"
"","null","html-keyboard-response","122","130261","0.0-11.0-2.10","bFaWd5iBub","655f8b6aead3b1448f52681b","6617fad957f7c6a12ea16e26","6622ce527487f6286fd59cc3","
    <div id=""grid-container"">
        <!-- Grid items will be dynamically added here -->
    </div>    ","null","","","","","","","","","","","",""
"","null","html-keyboard-response","123","130968","0.0-11.0-0.11","bFaWd5iBub","655f8b6aead3b1448f52681b","6617fad957f7c6a12ea16e26","6622ce527487f6286fd59cc3","fixation cross","null","","","","","","","","","","","",""
"","644","html-keyboard-response","124","131612","0.0-11.0-1.11","bFaWd5iBub","655f8b6aead3b1448f52681b","6617fad957f7c6a12ea16e26","6622ce527487f6286fd59cc3","image grid","q","","","","","Ontogenetic_Distractor_Threat_target","800","ongrid","q","2","Ontogenetic","true","experimental"
"","null","html-keyboard-response","125","131776","0.0-11.0-2.11","bFaWd5iBub","655f8b6aead3b1448f52681b","6617fad957f7c6a12ea16e26","6622ce527487f6286fd59cc3","
    <div id=""grid-container"">
        <!-- Grid items will be dynamically added here -->
    </div>    ","null","","","","","","","","","","","",""
"","null","html-keyboard-response","126","132501","0.0-11.0-0.12","bFaWd5iBub","655f8b6aead3b1448f52681b","6617fad957f7c6a12ea16e26","6622ce527487f6286fd59cc3","fixation cross","null","","","","","","","","","","","",""
"","679","html-keyboard-response","127","133180","0.0-11.0-1.12","bFaWd5iBub","655f8b6aead3b1448f52681b","6617fad957f7c6a12ea16e26","6622ce527487f6286fd59cc3","image grid","q","","","","","Ontogenetic_Distractor_Threat_target","800","ongrid","q","4","Ontogenetic","true","experimental"
"","null","html-keyboard-response","128","133345","0.0-11.0-2.12","bFaWd5iBub","655f8b6aead3b1448f52681b","6617fad957f7c6a12ea16e26","6622ce527487f6286fd59cc3","
    <div id=""grid-container"">
        <!-- Grid items will be dynamically added here -->
    </div>    ","null","","","","","","","","","","","",""
"","null","html-keyboard-response","129","134068","0.0-11.0-0.13","bFaWd5iBub","655f8b6aead3b1448f52681b","6617fad957f7c6a12ea16e26","6622ce527487f6286fd59cc3","fixation cross","null","","","","","","","","","","","",""
"","null","html-keyboard-response","130","134877","0.0-11.0-1.13","bFaWd5iBub","655f8b6aead3b1448f52681b","6617fad957f7c6a12ea16e26","6622ce527487f6286fd59cc3","
        <div id=""grid-container"">
        <!-- Grid items will be dynamically added here -->
    </div>    ","null","","","","","","","","","","","",""
"","913","html-keyboard-response","131","134991","0.0-11.0-2.13","bFaWd5iBub","655f8b6aead3b1448f52681b","6617fad957f7c6a12ea16e26","6622ce527487f6286fd59cc3","mask grid","p","","","","","Ontogenetic_Distractor_Nonthreat_target","800","onmask","p","7","Ontogenetic","true","experimental"
"","null","html-keyboard-response","132","135712","0.0-11.0-0.14","bFaWd5iBub","655f8b6aead3b1448f52681b","6617fad957f7c6a12ea16e26","6622ce527487f6286fd59cc3","fixation cross","null","","","","","","","","","","","",""
"","null","html-keyboard-response","133","136525","0.0-11.0-1.14","bFaWd5iBub","655f8b6aead3b1448f52681b","6617fad957f7c6a12ea16e26","6622ce527487f6286fd59cc3","
        <div id=""grid-container"">
        <!-- Grid items will be dynamically added here -->
    </div>    ","null","","","","","","","","","","","",""
"","1023","html-keyboard-response","134","136748","0.0-11.0-2.14","bFaWd5iBub","655f8b6aead3b1448f52681b","6617fad957f7c6a12ea16e26","6622ce527487f6286fd59cc3","mask grid"," ","","","","","Ontogenetic_Distractor_Nonthreat_target","800","onmask","p","5","Ontogenetic","false","experimental"
"","null","html-keyboard-response","135","137477","0.0-11.0-0.15","bFaWd5iBub","655f8b6aead3b1448f52681b","6617fad957f7c6a12ea16e26","6622ce527487f6286fd59cc3","fixation cross","null","","","","","","","","","","","",""
"","null","html-keyboard-response","136","138292","0.0-11.0-1.15","bFaWd5iBub","655f8b6aead3b1448f52681b","6617fad957f7c6a12ea16e26","6622ce527487f6286fd59cc3","
        <div id=""grid-container"">
        <!-- Grid items will be dynamically added here -->
    </div>    ","null","","","","","","","","","","","",""
"","817","html-keyboard-response","137","138310","0.0-11.0-2.15","bFaWd5iBub","655f8b6aead3b1448f52681b","6617fad957f7c6a12ea16e26","6622ce527487f6286fd59cc3","mask grid","p","","","","","Ontogenetic_Distractor_Nonthreat_target","800","onmask","p","3","Ontogenetic","true","experimental"
"","null","html-keyboard-response","138","139024","0.0-11.0-0.16","bFaWd5iBub","655f8b6aead3b1448f52681b","6617fad957f7c6a12ea16e26","6622ce527487f6286fd59cc3","fixation cross","null","","","","","","","","","","","",""
"","638","html-keyboard-response","139","139663","0.0-11.0-1.16","bFaWd5iBub","655f8b6aead3b1448f52681b","6617fad957f7c6a12ea16e26","6622ce527487f6286fd59cc3","image grid","q","","","","","Ontogenetic_Distractor_Threat_target","800","ongrid","q","5","Ontogenetic","true","experimental"
"","null","html-keyboard-response","140","139821","0.0-11.0-2.16","bFaWd5iBub","655f8b6aead3b1448f52681b","6617fad957f7c6a12ea16e26","6622ce527487f6286fd59cc3","
    <div id=""grid-container"">
        <!-- Grid items will be dynamically added here -->
    </div>    ","null","","","","","","","","","","","",""
"","null","html-keyboard-response","141","140542","0.0-11.0-0.17","bFaWd5iBub","655f8b6aead3b1448f52681b","6617fad957f7c6a12ea16e26","6622ce527487f6286fd59cc3","fixation cross","null","","","","","","","","","","","",""
"","591","html-keyboard-response","142","141133","0.0-11.0-1.17","bFaWd5iBub","655f8b6aead3b1448f52681b","6617fad957f7c6a12ea16e26","6622ce527487f6286fd59cc3","image grid","q","","","","","Ontogenetic_Distractor_Threat_target","800","ongrid","q","5","Ontogenetic","true","experimental"
"","null","html-keyboard-response","143","141286","0.0-11.0-2.17","bFaWd5iBub","655f8b6aead3b1448f52681b","6617fad957f7c6a12ea16e26","6622ce527487f6286fd59cc3","
    <div id=""grid-container"">
        <!-- Grid items will be dynamically added here -->
    </div>    ","null","","","","","","","","","","","",""
"","null","html-keyboard-response","144","142009","0.0-11.0-0.18","bFaWd5iBub","655f8b6aead3b1448f52681b","6617fad957f7c6a12ea16e26","6622ce527487f6286fd59cc3","fixation cross","null","","","","","","","","","","","",""
"","774","html-keyboard-response","145","142783","0.0-11.0-1.18","bFaWd5iBub","655f8b6aead3b1448f52681b","6617fad957f7c6a12ea16e26","6622ce527487f6286fd59cc3","image grid","p","","","","","Ontogenetic_Distractor_Nonthreat_target","800","ongrid","p","4","Ontogenetic","true","experimental"
"","null","html-keyboard-response","146","142941","0.0-11.0-2.18","bFaWd5iBub","655f8b6aead3b1448f52681b","6617fad957f7c6a12ea16e26","6622ce527487f6286fd59cc3","
    <div id=""grid-container"">
        <!-- Grid items will be dynamically added here -->
    </div>    ","null","","","","","","","","","","","",""
"","null","html-keyboard-response","147","143644","0.0-11.0-0.19","bFaWd5iBub","655f8b6aead3b1448f52681b","6617fad957f7c6a12ea16e26","6622ce527487f6286fd59cc3","fixation cross","null","","","","","","","","","","","",""
"","null","html-keyboard-response","148","144451","0.0-11.0-1.19","bFaWd5iBub","655f8b6aead3b1448f52681b","6617fad957f7c6a12ea16e26","6622ce527487f6286fd59cc3","
        <div id=""grid-container"">
        <!-- Grid items will be dynamically added here -->
    </div>    ","null","","","","","","","","","","","",""
"","1175","html-keyboard-response","149","144826","0.0-11.0-2.19","bFaWd5iBub","655f8b6aead3b1448f52681b","6617fad957f7c6a12ea16e26","6622ce527487f6286fd59cc3","mask grid","p","","","","","Ontogenetic_Distractor_Nonthreat_target","800","onmask","p","3","Ontogenetic","true","experimental"
"","null","html-keyboard-response","150","145547","0.0-11.0-0.20","bFaWd5iBub","655f8b6aead3b1448f52681b","6617fad957f7c6a12ea16e26","6622ce527487f6286fd59cc3","fixation cross","null","","","","","","","","","","","",""
"","737","html-keyboard-response","151","146285","0.0-11.0-1.20","bFaWd5iBub","655f8b6aead3b1448f52681b","6617fad957f7c6a12ea16e26","6622ce527487f6286fd59cc3","image grid","q","","","","","Ontogenetic_Distractor_Threat_target","800","ongrid","q","1","Ontogenetic","true","experimental"
"","null","html-keyboard-response","152","146441","0.0-11.0-2.20","bFaWd5iBub","655f8b6aead3b1448f52681b","6617fad957f7c6a12ea16e26","6622ce527487f6286fd59cc3","
    <div id=""grid-container"">
        <!-- Grid items will be dynamically added here -->
    </div>    ","null","","","","","","","","","","","",""
"","null","html-keyboard-response","153","147148","0.0-11.0-0.21","bFaWd5iBub","655f8b6aead3b1448f52681b","6617fad957f7c6a12ea16e26","6622ce527487f6286fd59cc3","fixation cross","null","","","","","","","","","","","",""
"","null","html-keyboard-response","154","147956","0.0-11.0-1.21","bFaWd5iBub","655f8b6aead3b1448f52681b","6617fad957f7c6a12ea16e26","6622ce527487f6286fd59cc3","
        <div id=""grid-container"">
        <!-- Grid items will be dynamically added here -->
    </div>    ","null","","","","","","","","","","","",""
"","819","html-keyboard-response","155","147975","0.0-11.0-2.21","bFaWd5iBub","655f8b6aead3b1448f52681b","6617fad957f7c6a12ea16e26","6622ce527487f6286fd59cc3","mask grid","p","","","","","Ontogenetic_Distractor_Nonthreat_target","800","onmask","p","4","Ontogenetic","true","experimental"
"","null","html-keyboard-response","156","148704","0.0-11.0-0.22","bFaWd5iBub","655f8b6aead3b1448f52681b","6617fad957f7c6a12ea16e26","6622ce527487f6286fd59cc3","fixation cross","null","","","","","","","","","","","",""
"","null","html-keyboard-response","157","149518","0.0-11.0-1.22","bFaWd5iBub","655f8b6aead3b1448f52681b","6617fad957f7c6a12ea16e26","6622ce527487f6286fd59cc3","
        <div id=""grid-container"">
        <!-- Grid items will be dynamically added here -->
    </div>    ","null","","","","","","","","","","","",""
"","827","html-keyboard-response","158","149546","0.0-11.0-2.22","bFaWd5iBub","655f8b6aead3b1448f52681b","6617fad957f7c6a12ea16e26","6622ce527487f6286fd59cc3","mask grid"," ","","","","","Ontogenetic_Distractor_notarget","800","onmask"," ","5","Ontogenetic","true","experimental"
"","null","html-keyboard-response","159","150259","0.0-11.0-0.23","bFaWd5iBub","655f8b6aead3b1448f52681b","6617fad957f7c6a12ea16e26","6622ce527487f6286fd59cc3","fixation cross","null","","","","","","","","","","","",""
"","679","html-keyboard-response","160","150937","0.0-11.0-1.23","bFaWd5iBub","655f8b6aead3b1448f52681b","6617fad957f7c6a12ea16e26","6622ce527487f6286fd59cc3","image grid","q","","","","","Ontogenetic_Distractor_Threat_target","800","ongrid","q","1","Ontogenetic","true","experimental"
"","null","html-keyboard-response","161","151099","0.0-11.0-2.23","bFaWd5iBub","655f8b6aead3b1448f52681b","6617fad957f7c6a12ea16e26","6622ce527487f6286fd59cc3","
    <div id=""grid-container"">
        <!-- Grid items will be dynamically added here -->
    </div>    ","null","","","","","","","","","","","",""
"","null","html-keyboard-response","162","151812","0.0-11.0-0.24","bFaWd5iBub","655f8b6aead3b1448f52681b","6617fad957f7c6a12ea16e26","6622ce527487f6286fd59cc3","fixation cross","null","","","","","","","","","","","",""
"","null","html-keyboard-response","163","152626","0.0-11.0-1.24","bFaWd5iBub","655f8b6aead3b1448f52681b","6617fad957f7c6a12ea16e26","6622ce527487f6286fd59cc3","
        <div id=""grid-container"">
        <!-- Grid items will be dynamically added here -->
    </div>    ","null","","","","","","","","","","","",""
"","1026","html-keyboard-response","164","152852","0.0-11.0-2.24","bFaWd5iBub","655f8b6aead3b1448f52681b","6617fad957f7c6a12ea16e26","6622ce527487f6286fd59cc3","mask grid","p","","","","","Ontogenetic_Distractor_Threat_target","800","onmask","q","4","Ontogenetic","false","experimental"
"","null","html-keyboard-response","165","153562","0.0-11.0-0.25","bFaWd5iBub","655f8b6aead3b1448f52681b","6617fad957f7c6a12ea16e26","6622ce527487f6286fd59cc3","fixation cross","null","","","","","","","","","","","",""
"","null","html-keyboard-response","166","154378","0.0-11.0-1.25","bFaWd5iBub","655f8b6aead3b1448f52681b","6617fad957f7c6a12ea16e26","6622ce527487f6286fd59cc3","
        <div id=""grid-container"">
        <!-- Grid items will be dynamically added here -->
    </div>    ","null","","","","","","","","","","","",""
"","809","html-keyboard-response","167","154388","0.0-11.0-2.25","bFaWd5iBub","655f8b6aead3b1448f52681b","6617fad957f7c6a12ea16e26","6622ce527487f6286fd59cc3","mask grid","q","","","","","Ontogenetic_Distractor_Nonthreat_target","800","onmask","p","9","Ontogenetic","false","experimental"
"","null","html-keyboard-response","168","155098","0.0-11.0-0.26","bFaWd5iBub","655f8b6aead3b1448f52681b","6617fad957f7c6a12ea16e26","6622ce527487f6286fd59cc3","fixation cross","null","","","","","","","","","","","",""
"","699","html-keyboard-response","169","155797","0.0-11.0-1.26","bFaWd5iBub","655f8b6aead3b1448f52681b","6617fad957f7c6a12ea16e26","6622ce527487f6286fd59cc3","image grid","p","","","","","Ontogenetic_Distractor_Nonthreat_target","800","ongrid","p","1","Ontogenetic","true","experimental"
"","null","html-keyboard-response","170","155951","0.0-11.0-2.26","bFaWd5iBub","655f8b6aead3b1448f52681b","6617fad957f7c6a12ea16e26","6622ce527487f6286fd59cc3","
    <div id=""grid-container"">
        <!-- Grid items will be dynamically added here -->
    </div>    ","null","","","","","","","","","","","",""
"","null","html-keyboard-response","171","156670","0.0-11.0-0.27","bFaWd5iBub","655f8b6aead3b1448f52681b","6617fad957f7c6a12ea16e26","6622ce527487f6286fd59cc3","fixation cross","null","","","","","","","","","","","",""
"","625","html-keyboard-response","172","157295","0.0-11.0-1.27","bFaWd5iBub","655f8b6aead3b1448f52681b","6617fad957f7c6a12ea16e26","6622ce527487f6286fd59cc3","image grid","q","","","","","Ontogenetic_Distractor_Threat_target","800","ongrid","q","2","Ontogenetic","true","experimental"
"","null","html-keyboard-response","173","157457","0.0-11.0-2.27","bFaWd5iBub","655f8b6aead3b1448f52681b","6617fad957f7c6a12ea16e26","6622ce527487f6286fd59cc3","
    <div id=""grid-container"">
        <!-- Grid items will be dynamically added here -->
    </div>    ","null","","","","","","","","","","","",""
"","null","html-keyboard-response","174","158176","0.0-11.0-0.28","bFaWd5iBub","655f8b6aead3b1448f52681b","6617fad957f7c6a12ea16e26","6622ce527487f6286fd59cc3","fixation cross","null","","","","","","","","","","","",""
"","636","html-keyboard-response","175","158813","0.0-11.0-1.28","bFaWd5iBub","655f8b6aead3b1448f52681b","6617fad957f7c6a12ea16e26","6622ce527487f6286fd59cc3","image grid","q","","","","","Ontogenetic_Distractor_Threat_target","800","ongrid","q","5","Ontogenetic","true","experimental"
"","null","html-keyboard-response","176","158970","0.0-11.0-2.28","bFaWd5iBub","655f8b6aead3b1448f52681b","6617fad957f7c6a12ea16e26","6622ce527487f6286fd59cc3","
    <div id=""grid-container"">
        <!-- Grid items will be dynamically added here -->
    </div>    ","null","","","","","","","","","","","",""
"","null","html-keyboard-response","177","159680","0.0-11.0-0.29","bFaWd5iBub","655f8b6aead3b1448f52681b","6617fad957f7c6a12ea16e26","6622ce527487f6286fd59cc3","fixation cross","null","","","","","","","","","","","",""
"","null","html-keyboard-response","178","160487","0.0-11.0-1.29","bFaWd5iBub","655f8b6aead3b1448f52681b","6617fad957f7c6a12ea16e26","6622ce527487f6286fd59cc3","
        <div id=""grid-container"">
        <!-- Grid items will be dynamically added here -->
    </div>    ","null","","","","","","","","","","","",""
"","1041","html-keyboard-response","179","160729","0.0-11.0-2.29","bFaWd5iBub","655f8b6aead3b1448f52681b","6617fad957f7c6a12ea16e26","6622ce527487f6286fd59cc3","mask grid"," ","","","","","Ontogenetic_Distractor_notarget","800","onmask"," ","4","Ontogenetic","true","experimental"
"","null","html-keyboard-response","180","161452","0.0-11.0-0.30","bFaWd5iBub","655f8b6aead3b1448f52681b","6617fad957f7c6a12ea16e26","6622ce527487f6286fd59cc3","fixation cross","null","","","","","","","","","","","",""
"","785","html-keyboard-response","181","162238","0.0-11.0-1.30","bFaWd5iBub","655f8b6aead3b1448f52681b","6617fad957f7c6a12ea16e26","6622ce527487f6286fd59cc3","image grid","p","","","","","Ontogenetic_Distractor_Nonthreat_target","800","ongrid","p","9","Ontogenetic","true","experimental"
"","null","html-keyboard-response","182","162400","0.0-11.0-2.30","bFaWd5iBub","655f8b6aead3b1448f52681b","6617fad957f7c6a12ea16e26","6622ce527487f6286fd59cc3","
    <div id=""grid-container"">
        <!-- Grid items will be dynamically added here -->
    </div>    ","null","","","","","","","","","","","",""
"","null","html-keyboard-response","183","163117","0.0-11.0-0.31","bFaWd5iBub","655f8b6aead3b1448f52681b","6617fad957f7c6a12ea16e26","6622ce527487f6286fd59cc3","fixation cross","null","","","","","","","","","","","",""
"","579","html-keyboard-response","184","163696","0.0-11.0-1.31","bFaWd5iBub","655f8b6aead3b1448f52681b","6617fad957f7c6a12ea16e26","6622ce527487f6286fd59cc3","image grid","q","","","","","Ontogenetic_Distractor_Threat_target","800","ongrid","q","2","Ontogenetic","true","experimental"
"","null","html-keyboard-response","185","163850","0.0-11.0-2.31","bFaWd5iBub","655f8b6aead3b1448f52681b","6617fad957f7c6a12ea16e26","6622ce527487f6286fd59cc3","
    <div id=""grid-container"">
        <!-- Grid items will be dynamically added here -->
    </div>    ","null","","","","","","","","","","","",""
"","null","html-keyboard-response","186","164564","0.0-11.0-0.32","bFaWd5iBub","655f8b6aead3b1448f52681b","6617fad957f7c6a12ea16e26","6622ce527487f6286fd59cc3","fixation cross","null","","","","","","","","","","","",""
"","737","html-keyboard-response","187","165301","0.0-11.0-1.32","bFaWd5iBub","655f8b6aead3b1448f52681b","6617fad957f7c6a12ea16e26","6622ce527487f6286fd59cc3","image grid","p","","","","","Ontogenetic_Distractor_Nonthreat_target","800","ongrid","p","9","Ontogenetic","true","experimental"
"","null","html-keyboard-response","188","165456","0.0-11.0-2.32","bFaWd5iBub","655f8b6aead3b1448f52681b","6617fad957f7c6a12ea16e26","6622ce527487f6286fd59cc3","
    <div id=""grid-container"">
        <!-- Grid items will be dynamically added here -->
    </div>    ","null","","","","","","","","","","","",""
"","null","html-keyboard-response","189","166177","0.0-11.0-0.33","bFaWd5iBub","655f8b6aead3b1448f52681b","6617fad957f7c6a12ea16e26","6622ce527487f6286fd59cc3","fixation cross","null","","","","","","","","","","","",""
"","null","html-keyboard-response","190","166990","0.0-11.0-1.33","bFaWd5iBub","655f8b6aead3b1448f52681b","6617fad957f7c6a12ea16e26","6622ce527487f6286fd59cc3","
        <div id=""grid-container"">
        <!-- Grid items will be dynamically added here -->
    </div>    ","null","","","","","","","","","","","",""
"","952","html-keyboard-response","191","167143","0.0-11.0-2.33","bFaWd5iBub","655f8b6aead3b1448f52681b","6617fad957f7c6a12ea16e26","6622ce527487f6286fd59cc3","mask grid"," ","","","","","Ontogenetic_Distractor_notarget","800","onmask"," ","5","Ontogenetic","true","experimental"
"","null","html-keyboard-response","192","167855","0.0-11.0-0.34","bFaWd5iBub","655f8b6aead3b1448f52681b","6617fad957f7c6a12ea16e26","6622ce527487f6286fd59cc3","fixation cross","null","","","","","","","","","","","",""
"","610","html-keyboard-response","193","168466","0.0-11.0-1.34","bFaWd5iBub","655f8b6aead3b1448f52681b","6617fad957f7c6a12ea16e26","6622ce527487f6286fd59cc3","image grid","p","","","","","Ontogenetic_Distractor_Nonthreat_target","800","ongrid","p","1","Ontogenetic","true","experimental"
"","null","html-keyboard-response","194","168620","0.0-11.0-2.34","bFaWd5iBub","655f8b6aead3b1448f52681b","6617fad957f7c6a12ea16e26","6622ce527487f6286fd59cc3","
    <div id=""grid-container"">
        <!-- Grid items will be dynamically added here -->
    </div>    ","null","","","","","","","","","","","",""
"","null","html-keyboard-response","195","169339","0.0-11.0-0.35","bFaWd5iBub","655f8b6aead3b1448f52681b","6617fad957f7c6a12ea16e26","6622ce527487f6286fd59cc3","fixation cross","null","","","","","","","","","","","",""
"","605","html-keyboard-response","196","169944","0.0-11.0-1.35","bFaWd5iBub","655f8b6aead3b1448f52681b","6617fad957f7c6a12ea16e26","6622ce527487f6286fd59cc3","image grid","p","","","","","Ontogenetic_Distractor_Nonthreat_target","800","ongrid","p","3","Ontogenetic","true","experimental"
"","null","html-keyboard-response","197","170096","0.0-11.0-2.35","bFaWd5iBub","655f8b6aead3b1448f52681b","6617fad957f7c6a12ea16e26","6622ce527487f6286fd59cc3","
    <div id=""grid-container"">
        <!-- Grid items will be dynamically added here -->
    </div>    ","null","","","","","","","","","","","",""
"","null","html-keyboard-response","198","170801","0.0-11.0-0.36","bFaWd5iBub","655f8b6aead3b1448f52681b","6617fad957f7c6a12ea16e26","6622ce527487f6286fd59cc3","fixation cross","null","","","","","","","","","","","",""
"","745","html-keyboard-response","199","171546","0.0-11.0-1.36","bFaWd5iBub","655f8b6aead3b1448f52681b","6617fad957f7c6a12ea16e26","6622ce527487f6286fd59cc3","image grid","p","","","","","Ontogenetic_Distractor_Nonthreat_target","800","ongrid","p","7","Ontogenetic","true","experimental"
"","null","html-keyboard-response","200","171711","0.0-11.0-2.36","bFaWd5iBub","655f8b6aead3b1448f52681b","6617fad957f7c6a12ea16e26","6622ce527487f6286fd59cc3","
    <div id=""grid-container"">
        <!-- Grid items will be dynamically added here -->
    </div>    ","null","","","","","","","","","","","",""
"","null","html-keyboard-response","201","172426","0.0-11.0-0.37","bFaWd5iBub","655f8b6aead3b1448f52681b","6617fad957f7c6a12ea16e26","6622ce527487f6286fd59cc3","fixation cross","null","","","","","","","","","","","",""
"","691","html-keyboard-response","202","173117","0.0-11.0-1.37","bFaWd5iBub","655f8b6aead3b1448f52681b","6617fad957f7c6a12ea16e26","6622ce527487f6286fd59cc3","image grid","q","","","","","Ontogenetic_Distractor_Threat_target","800","ongrid","q","8","Ontogenetic","true","experimental"
"","null","html-keyboard-response","203","173275","0.0-11.0-2.37","bFaWd5iBub","655f8b6aead3b1448f52681b","6617fad957f7c6a12ea16e26","6622ce527487f6286fd59cc3","
    <div id=""grid-container"">
        <!-- Grid items will be dynamically added here -->
    </div>    ","null","","","","","","","","","","","",""
"","null","html-keyboard-response","204","173992","0.0-11.0-0.38","bFaWd5iBub","655f8b6aead3b1448f52681b","6617fad957f7c6a12ea16e26","6622ce527487f6286fd59cc3","fixation cross","null","","","","","","","","","","","",""
"","769","html-keyboard-response","205","174762","0.0-11.0-1.38","bFaWd5iBub","655f8b6aead3b1448f52681b","6617fad957f7c6a12ea16e26","6622ce527487f6286fd59cc3","image grid","q","","","","","Ontogenetic_Distractor_Threat_target","800","ongrid","q","1","Ontogenetic","true","experimental"
"","null","html-keyboard-response","206","174923","0.0-11.0-2.38","bFaWd5iBub","655f8b6aead3b1448f52681b","6617fad957f7c6a12ea16e26","6622ce527487f6286fd59cc3","
    <div id=""grid-container"">
        <!-- Grid items will be dynamically added here -->
    </div>    ","null","","","","","","","","","","","",""
"","null","html-keyboard-response","207","175631","0.0-11.0-0.39","bFaWd5iBub","655f8b6aead3b1448f52681b","6617fad957f7c6a12ea16e26","6622ce527487f6286fd59cc3","fixation cross","null","","","","","","","","","","","",""
"","574","html-keyboard-response","208","176205","0.0-11.0-1.39","bFaWd5iBub","655f8b6aead3b1448f52681b","6617fad957f7c6a12ea16e26","6622ce527487f6286fd59cc3","image grid","q","","","","","Ontogenetic_Distractor_Threat_target","800","ongrid","q","8","Ontogenetic","true","experimental"
"","null","html-keyboard-response","209","176362","0.0-11.0-2.39","bFaWd5iBub","655f8b6aead3b1448f52681b","6617fad957f7c6a12ea16e26","6622ce527487f6286fd59cc3","
    <div id=""grid-container"">
        <!-- Grid items will be dynamically added here -->
    </div>    ","null","","","","","","","","","","","",""
"","1568","html-keyboard-response","210","178146","0.0-12.0","bFaWd5iBub","655f8b6aead3b1448f52681b","6617fad957f7c6a12ea16e26","6622ce527487f6286fd59cc3","break screen"," ","","","","","","","","","","","",""
"","null","html-keyboard-response","211","180674","0.0-13.0-0.0","bFaWd5iBub","655f8b6aead3b1448f52681b","6617fad957f7c6a12ea16e26","6622ce527487f6286fd59cc3","fixation cross","null","","","","","","","","","","","",""
"","1376","html-keyboard-response","212","182051","0.0-13.0-1.0","bFaWd5iBub","655f8b6aead3b1448f52681b","6617fad957f7c6a12ea16e26","6622ce527487f6286fd59cc3","image grid","q","","","","","Phylogenetic_Distractor_Nonthreat_target","2500","ongrid","p","1","Phylogenetic","false","experimental"
"","null","html-keyboard-response","213","182208","0.0-13.0-2.0","bFaWd5iBub","655f8b6aead3b1448f52681b","6617fad957f7c6a12ea16e26","6622ce527487f6286fd59cc3","
    <div id=""grid-container"">
        <!-- Grid items will be dynamically added here -->
    </div>    ","null","","","","","","","","","","","",""
"","null","html-keyboard-response","214","182918","0.0-13.0-0.1","bFaWd5iBub","655f8b6aead3b1448f52681b","6617fad957f7c6a12ea16e26","6622ce527487f6286fd59cc3","fixation cross","null","","","","","","","","","","","",""
"","867","html-keyboard-response","215","183785","0.0-13.0-1.1","bFaWd5iBub","655f8b6aead3b1448f52681b","6617fad957f7c6a12ea16e26","6622ce527487f6286fd59cc3","image grid","p","","","","","Phylogenetic_Distractor_notarget","2500","ongrid"," ","1","Phylogenetic","false","experimental"
"","null","html-keyboard-response","216","183936","0.0-13.0-2.1","bFaWd5iBub","655f8b6aead3b1448f52681b","6617fad957f7c6a12ea16e26","6622ce527487f6286fd59cc3","
    <div id=""grid-container"">
        <!-- Grid items will be dynamically added here -->
    </div>    ","null","","","","","","","","","","","",""
"","null","html-keyboard-response","217","184642","0.0-13.0-0.2","bFaWd5iBub","655f8b6aead3b1448f52681b","6617fad957f7c6a12ea16e26","6622ce527487f6286fd59cc3","fixation cross","null","","","","","","","","","","","",""
"","606","html-keyboard-response","218","185248","0.0-13.0-1.2","bFaWd5iBub","655f8b6aead3b1448f52681b","6617fad957f7c6a12ea16e26","6622ce527487f6286fd59cc3","image grid","p","","","","","Phylogenetic_Distractor_Threat_target","2500","ongrid","q","1","Phylogenetic","false","experimental"
"","null","html-keyboard-response","219","185400","0.0-13.0-2.2","bFaWd5iBub","655f8b6aead3b1448f52681b","6617fad957f7c6a12ea16e26","6622ce527487f6286fd59cc3","
    <div id=""grid-container"">
        <!-- Grid items will be dynamically added here -->
    </div>    ","null","","","","","","","","","","","",""
"","null","html-keyboard-response","220","186106","0.0-13.0-0.3","bFaWd5iBub","655f8b6aead3b1448f52681b","6617fad957f7c6a12ea16e26","6622ce527487f6286fd59cc3","fixation cross","null","","","","","","","","","","","",""
"","1091","html-keyboard-response","221","187197","0.0-13.0-1.3","bFaWd5iBub","655f8b6aead3b1448f52681b","6617fad957f7c6a12ea16e26","6622ce527487f6286fd59cc3","image grid","q","","","","","Phylogenetic_Distractor_Nonthreat_target","2500","ongrid","p","3","Phylogenetic","false","experimental"
"","null","html-keyboard-response","222","187351","0.0-13.0-2.3","bFaWd5iBub","655f8b6aead3b1448f52681b","6617fad957f7c6a12ea16e26","6622ce527487f6286fd59cc3","
    <div id=""grid-container"">
        <!-- Grid items will be dynamically added here -->
    </div>    ","null","","","","","","","","","","","",""
"","null","html-keyboard-response","223","188055","0.0-13.0-0.4","bFaWd5iBub","655f8b6aead3b1448f52681b","6617fad957f7c6a12ea16e26","6622ce527487f6286fd59cc3","fixation cross","null","","","","","","","","","","","",""
"","945","html-keyboard-response","224","189001","0.0-13.0-1.4","bFaWd5iBub","655f8b6aead3b1448f52681b","6617fad957f7c6a12ea16e26","6622ce527487f6286fd59cc3","image grid","q","","","","","Phylogenetic_Distractor_Nonthreat_target","2500","ongrid","p","5","Phylogenetic","false","experimental"
"","null","html-keyboard-response","225","189157","0.0-13.0-2.4","bFaWd5iBub","655f8b6aead3b1448f52681b","6617fad957f7c6a12ea16e26","6622ce527487f6286fd59cc3","
    <div id=""grid-container"">
        <!-- Grid items will be dynamically added here -->
    </div>    ","null","","","","","","","","","","","",""
"","null","html-keyboard-response","226","189865","0.0-13.0-0.5","bFaWd5iBub","655f8b6aead3b1448f52681b","6617fad957f7c6a12ea16e26","6622ce527487f6286fd59cc3","fixation cross","null","","","","","","","","","","","",""
"","867","html-keyboard-response","227","190732","0.0-13.0-1.5","bFaWd5iBub","655f8b6aead3b1448f52681b","6617fad957f7c6a12ea16e26","6622ce527487f6286fd59cc3","image grid","q","","","","","Phylogenetic_Distractor_Nonthreat_target","2500","ongrid","p","1","Phylogenetic","false","experimental"
"","null","html-keyboard-response","228","190891","0.0-13.0-2.5","bFaWd5iBub","655f8b6aead3b1448f52681b","6617fad957f7c6a12ea16e26","6622ce527487f6286fd59cc3","
    <div id=""grid-container"">
        <!-- Grid items will be dynamically added here -->
    </div>    ","null","","","","","","","","","","","",""
"","null","html-keyboard-response","229","191593","0.0-13.0-0.6","bFaWd5iBub","655f8b6aead3b1448f52681b","6617fad957f7c6a12ea16e26","6622ce527487f6286fd59cc3","fixation cross","null","","","","","","","","","","","",""
"","695","html-keyboard-response","230","192288","0.0-13.0-1.6","bFaWd5iBub","655f8b6aead3b1448f52681b","6617fad957f7c6a12ea16e26","6622ce527487f6286fd59cc3","image grid","q","","","","","Phylogenetic_Distractor_Threat_target","2500","ongrid","q","4","Phylogenetic","true","experimental"
"","null","html-keyboard-response","231","192441","0.0-13.0-2.6","bFaWd5iBub","655f8b6aead3b1448f52681b","6617fad957f7c6a12ea16e26","6622ce527487f6286fd59cc3","
    <div id=""grid-container"">
        <!-- Grid items will be dynamically added here -->
    </div>    ","null","","","","","","","","","","","",""
"","null","html-keyboard-response","232","193153","0.0-13.0-0.7","bFaWd5iBub","655f8b6aead3b1448f52681b","6617fad957f7c6a12ea16e26","6622ce527487f6286fd59cc3","fixation cross","null","","","","","","","","","","","",""
"","1238","html-keyboard-response","233","194391","0.0-13.0-1.7","bFaWd5iBub","655f8b6aead3b1448f52681b","6617fad957f7c6a12ea16e26","6622ce527487f6286fd59cc3","image grid","q","","","","","Phylogenetic_Distractor_Threat_target","2500","ongrid","q","6","Phylogenetic","true","experimental"
"","null","html-keyboard-response","234","194546","0.0-13.0-2.7","bFaWd5iBub","655f8b6aead3b1448f52681b","6617fad957f7c6a12ea16e26","6622ce527487f6286fd59cc3","
    <div id=""grid-container"">
        <!-- Grid items will be dynamically added here -->
    </div>    ","null","","","","","","","","","","","",""
"","null","html-keyboard-response","235","195269","0.0-13.0-0.8","bFaWd5iBub","655f8b6aead3b1448f52681b","6617fad957f7c6a12ea16e26","6622ce527487f6286fd59cc3","fixation cross","null","","","","","","","","","","","",""
"","550","html-keyboard-response","236","195819","0.0-13.0-1.8","bFaWd5iBub","655f8b6aead3b1448f52681b","6617fad957f7c6a12ea16e26","6622ce527487f6286fd59cc3","image grid","q","","","","","Phylogenetic_Distractor_Threat_target","2500","ongrid","q","5","Phylogenetic","true","experimental"
"","null","html-keyboard-response","237","195978","0.0-13.0-2.8","bFaWd5iBub","655f8b6aead3b1448f52681b","6617fad957f7c6a12ea16e26","6622ce527487f6286fd59cc3","
    <div id=""grid-container"">
        <!-- Grid items will be dynamically added here -->
    </div>    ","null","","","","","","","","","","","",""
"","null","html-keyboard-response","238","196692","0.0-13.0-0.9","bFaWd5iBub","655f8b6aead3b1448f52681b","6617fad957f7c6a12ea16e26","6622ce527487f6286fd59cc3","fixation cross","null","","","","","","","","","","","",""
"","587","html-keyboard-response","239","197279","0.0-13.0-1.9","bFaWd5iBub","655f8b6aead3b1448f52681b","6617fad957f7c6a12ea16e26","6622ce527487f6286fd59cc3","image grid","q","","","","","Phylogenetic_Distractor_Threat_target","2500","ongrid","q","7","Phylogenetic","true","experimental"
"","null","html-keyboard-response","240","197437","0.0-13.0-2.9","bFaWd5iBub","655f8b6aead3b1448f52681b","6617fad957f7c6a12ea16e26","6622ce527487f6286fd59cc3","
    <div id=""grid-container"">
        <!-- Grid items will be dynamically added here -->
    </div>    ","null","","","","","","","","","","","",""
"","null","html-keyboard-response","241","198141","0.0-13.0-0.10","bFaWd5iBub","655f8b6aead3b1448f52681b","6617fad957f7c6a12ea16e26","6622ce527487f6286fd59cc3","fixation cross","null","","","","","","","","","","","",""
"","958","html-keyboard-response","242","199100","0.0-13.0-1.10","bFaWd5iBub","655f8b6aead3b1448f52681b","6617fad957f7c6a12ea16e26","6622ce527487f6286fd59cc3","image grid","q","","","","","Phylogenetic_Distractor_Nonthreat_target","2500","ongrid","p","9","Phylogenetic","false","experimental"
"","null","html-keyboard-response","243","199263","0.0-13.0-2.10","bFaWd5iBub","655f8b6aead3b1448f52681b","6617fad957f7c6a12ea16e26","6622ce527487f6286fd59cc3","
    <div id=""grid-container"">
        <!-- Grid items will be dynamically added here -->
    </div>    ","null","","","","","","","","","","","",""
"","null","html-keyboard-response","244","199970","0.0-13.0-0.11","bFaWd5iBub","655f8b6aead3b1448f52681b","6617fad957f7c6a12ea16e26","6622ce527487f6286fd59cc3","fixation cross","null","","","","","","","","","","","",""
"","702","html-keyboard-response","245","200673","0.0-13.0-1.11","bFaWd5iBub","655f8b6aead3b1448f52681b","6617fad957f7c6a12ea16e26","6622ce527487f6286fd59cc3","image grid","q","","","","","Phylogenetic_Distractor_Threat_target","2500","ongrid","q","3","Phylogenetic","true","experimental"
"","null","html-keyboard-response","246","200826","0.0-13.0-2.11","bFaWd5iBub","655f8b6aead3b1448f52681b","6617fad957f7c6a12ea16e26","6622ce527487f6286fd59cc3","
    <div id=""grid-container"">
        <!-- Grid items will be dynamically added here -->
    </div>    ","null","","","","","","","","","","","",""
"","null","html-keyboard-response","247","201538","0.0-13.0-0.12","bFaWd5iBub","655f8b6aead3b1448f52681b","6617fad957f7c6a12ea16e26","6622ce527487f6286fd59cc3","fixation cross","null","","","","","","","","","","","",""
"","1076","html-keyboard-response","248","202614","0.0-13.0-1.12","bFaWd5iBub","655f8b6aead3b1448f52681b","6617fad957f7c6a12ea16e26","6622ce527487f6286fd59cc3","image grid","q","","","","","Phylogenetic_Distractor_Nonthreat_target","2500","ongrid","p","3","Phylogenetic","false","experimental"
"","null","html-keyboard-response","249","202779","0.0-13.0-2.12","bFaWd5iBub","655f8b6aead3b1448f52681b","6617fad957f7c6a12ea16e26","6622ce527487f6286fd59cc3","
    <div id=""grid-container"">
        <!-- Grid items will be dynamically added here -->
    </div>    ","null","","","","","","","","","","","",""
"","null","html-keyboard-response","250","203498","0.0-13.0-0.13","bFaWd5iBub","655f8b6aead3b1448f52681b","6617fad957f7c6a12ea16e26","6622ce527487f6286fd59cc3","fixation cross","null","","","","","","","","","","","",""
"","641","html-keyboard-response","251","204139","0.0-13.0-1.13","bFaWd5iBub","655f8b6aead3b1448f52681b","6617fad957f7c6a12ea16e26","6622ce527487f6286fd59cc3","image grid","q","","","","","Phylogenetic_Distractor_Threat_target","2500","ongrid","q","2","Phylogenetic","true","experimental"
"","null","html-keyboard-response","252","204297","0.0-13.0-2.13","bFaWd5iBub","655f8b6aead3b1448f52681b","6617fad957f7c6a12ea16e26","6622ce527487f6286fd59cc3","
    <div id=""grid-container"">
        <!-- Grid items will be dynamically added here -->
    </div>    ","null","","","","","","","","","","","",""
"","null","html-keyboard-response","253","205019","0.0-13.0-0.14","bFaWd5iBub","655f8b6aead3b1448f52681b","6617fad957f7c6a12ea16e26","6622ce527487f6286fd59cc3","fixation cross","null","","","","","","","","","","","",""
"","668","html-keyboard-response","254","205688","0.0-13.0-1.14","bFaWd5iBub","655f8b6aead3b1448f52681b","6617fad957f7c6a12ea16e26","6622ce527487f6286fd59cc3","image grid","p","","","","","Phylogenetic_Distractor_Nonthreat_target","2500","ongrid","p","5","Phylogenetic","true","experimental"
"","null","html-keyboard-response","255","205848","0.0-13.0-2.14","bFaWd5iBub","655f8b6aead3b1448f52681b","6617fad957f7c6a12ea16e26","6622ce527487f6286fd59cc3","
    <div id=""grid-container"">
        <!-- Grid items will be dynamically added here -->
    </div>    ","null","","","","","","","","","","","",""
"","null","html-keyboard-response","256","206564","0.0-13.0-0.15","bFaWd5iBub","655f8b6aead3b1448f52681b","6617fad957f7c6a12ea16e26","6622ce527487f6286fd59cc3","fixation cross","null","","","","","","","","","","","",""
"","606","html-keyboard-response","257","207171","0.0-13.0-1.15","bFaWd5iBub","655f8b6aead3b1448f52681b","6617fad957f7c6a12ea16e26","6622ce527487f6286fd59cc3","image grid","q","","","","","Phylogenetic_Distractor_Threat_target","2500","ongrid","q","8","Phylogenetic","true","experimental"
"","null","html-keyboard-response","258","207325","0.0-13.0-2.15","bFaWd5iBub","655f8b6aead3b1448f52681b","6617fad957f7c6a12ea16e26","6622ce527487f6286fd59cc3","
    <div id=""grid-container"">
        <!-- Grid items will be dynamically added here -->
    </div>    ","null","","","","","","","","","","","",""
"","null","html-keyboard-response","259","208045","0.0-13.0-0.16","bFaWd5iBub","655f8b6aead3b1448f52681b","6617fad957f7c6a12ea16e26","6622ce527487f6286fd59cc3","fixation cross","null","","","","","","","","","","","",""
"","837","html-keyboard-response","260","208882","0.0-13.0-1.16","bFaWd5iBub","655f8b6aead3b1448f52681b","6617fad957f7c6a12ea16e26","6622ce527487f6286fd59cc3","image grid","q","","","","","Phylogenetic_Distractor_Threat_target","2500","ongrid","q","7","Phylogenetic","true","experimental"
"","null","html-keyboard-response","261","209037","0.0-13.0-2.16","bFaWd5iBub","655f8b6aead3b1448f52681b","6617fad957f7c6a12ea16e26","6622ce527487f6286fd59cc3","
    <div id=""grid-container"">
        <!-- Grid items will be dynamically added here -->
    </div>    ","null","","","","","","","","","","","",""
"","null","html-keyboard-response","262","209752","0.0-13.0-0.17","bFaWd5iBub","655f8b6aead3b1448f52681b","6617fad957f7c6a12ea16e26","6622ce527487f6286fd59cc3","fixation cross","null","","","","","","","","","","","",""
"","678","html-keyboard-response","263","210430","0.0-13.0-1.17","bFaWd5iBub","655f8b6aead3b1448f52681b","6617fad957f7c6a12ea16e26","6622ce527487f6286fd59cc3","image grid","q","","","","","Phylogenetic_Distractor_Threat_target","2500","ongrid","q","7","Phylogenetic","true","experimental"
"","null","html-keyboard-response","264","210592","0.0-13.0-2.17","bFaWd5iBub","655f8b6aead3b1448f52681b","6617fad957f7c6a12ea16e26","6622ce527487f6286fd59cc3","
    <div id=""grid-container"">
        <!-- Grid items will be dynamically added here -->
    </div>    ","null","","","","","","","","","","","",""
"","null","html-keyboard-response","265","211309","0.0-13.0-0.18","bFaWd5iBub","655f8b6aead3b1448f52681b","6617fad957f7c6a12ea16e26","6622ce527487f6286fd59cc3","fixation cross","null","","","","","","","","","","","",""
"","529","html-keyboard-response","266","211839","0.0-13.0-1.18","bFaWd5iBub","655f8b6aead3b1448f52681b","6617fad957f7c6a12ea16e26","6622ce527487f6286fd59cc3","image grid","q","","","","","Phylogenetic_Distractor_Threat_target","2500","ongrid","q","3","Phylogenetic","true","experimental"
"","null","html-keyboard-response","267","212005","0.0-13.0-2.18","bFaWd5iBub","655f8b6aead3b1448f52681b","6617fad957f7c6a12ea16e26","6622ce527487f6286fd59cc3","
    <div id=""grid-container"">
        <!-- Grid items will be dynamically added here -->
    </div>    ","null","","","","","","","","","","","",""
"","null","html-keyboard-response","268","212717","0.0-13.0-0.19","bFaWd5iBub","655f8b6aead3b1448f52681b","6617fad957f7c6a12ea16e26","6622ce527487f6286fd59cc3","fixation cross","null","","","","","","","","","","","",""
"","424","html-keyboard-response","269","213141","0.0-13.0-1.19","bFaWd5iBub","655f8b6aead3b1448f52681b","6617fad957f7c6a12ea16e26","6622ce527487f6286fd59cc3","image grid","q","","","","","Phylogenetic_Distractor_Threat_target","2500","ongrid","q","8","Phylogenetic","true","experimental"
"","null","html-keyboard-response","270","213300","0.0-13.0-2.19","bFaWd5iBub","655f8b6aead3b1448f52681b","6617fad957f7c6a12ea16e26","6622ce527487f6286fd59cc3","
    <div id=""grid-container"">
        <!-- Grid items will be dynamically added here -->
    </div>    ","null","","","","","","","","","","","",""
"","null","html-keyboard-response","271","214024","0.0-13.0-0.20","bFaWd5iBub","655f8b6aead3b1448f52681b","6617fad957f7c6a12ea16e26","6622ce527487f6286fd59cc3","fixation cross","null","","","","","","","","","","","",""
"","404","html-keyboard-response","272","214428","0.0-13.0-1.20","bFaWd5iBub","655f8b6aead3b1448f52681b","6617fad957f7c6a12ea16e26","6622ce527487f6286fd59cc3","image grid","q","","","","","Phylogenetic_Distractor_Threat_target","2500","ongrid","q","8","Phylogenetic","true","experimental"
"","null","html-keyboard-response","273","214587","0.0-13.0-2.20","bFaWd5iBub","655f8b6aead3b1448f52681b","6617fad957f7c6a12ea16e26","6622ce527487f6286fd59cc3","
    <div id=""grid-container"">
        <!-- Grid items will be dynamically added here -->
    </div>    ","null","","","","","","","","","","","",""
"","null","html-keyboard-response","274","215318","0.0-13.0-0.21","bFaWd5iBub","655f8b6aead3b1448f52681b","6617fad957f7c6a12ea16e26","6622ce527487f6286fd59cc3","fixation cross","null","","","","","","","","","","","",""
"","945","html-keyboard-response","275","216263","0.0-13.0-1.21","bFaWd5iBub","655f8b6aead3b1448f52681b","6617fad957f7c6a12ea16e26","6622ce527487f6286fd59cc3","image grid","p","","","","","Phylogenetic_Distractor_Nonthreat_target","2500","ongrid","p","9","Phylogenetic","true","experimental"
"","null","html-keyboard-response","276","216431","0.0-13.0-2.21","bFaWd5iBub","655f8b6aead3b1448f52681b","6617fad957f7c6a12ea16e26","6622ce527487f6286fd59cc3","
    <div id=""grid-container"">
        <!-- Grid items will be dynamically added here -->
    </div>    ","null","","","","","","","","","","","",""
"","null","html-keyboard-response","277","217153","0.0-13.0-0.22","bFaWd5iBub","655f8b6aead3b1448f52681b","6617fad957f7c6a12ea16e26","6622ce527487f6286fd59cc3","fixation cross","null","","","","","","","","","","","",""
"","519","html-keyboard-response","278","217672","0.0-13.0-1.22","bFaWd5iBub","655f8b6aead3b1448f52681b","6617fad957f7c6a12ea16e26","6622ce527487f6286fd59cc3","image grid","q","","","","","Phylogenetic_Distractor_Threat_target","2500","ongrid","q","5","Phylogenetic","true","experimental"
"","null","html-keyboard-response","279","217832","0.0-13.0-2.22","bFaWd5iBub","655f8b6aead3b1448f52681b","6617fad957f7c6a12ea16e26","6622ce527487f6286fd59cc3","
    <div id=""grid-container"">
        <!-- Grid items will be dynamically added here -->
    </div>    ","null","","","","","","","","","","","",""
"","null","html-keyboard-response","280","218562","0.0-13.0-0.23","bFaWd5iBub","655f8b6aead3b1448f52681b","6617fad957f7c6a12ea16e26","6622ce527487f6286fd59cc3","fixation cross","null","","","","","","","","","","","",""
"","585","html-keyboard-response","281","219147","0.0-13.0-1.23","bFaWd5iBub","655f8b6aead3b1448f52681b","6617fad957f7c6a12ea16e26","6622ce527487f6286fd59cc3","image grid","q","","","","","Phylogenetic_Distractor_Threat_target","2500","ongrid","q","1","Phylogenetic","true","experimental"
"","null","html-keyboard-response","282","219302","0.0-13.0-2.23","bFaWd5iBub","655f8b6aead3b1448f52681b","6617fad957f7c6a12ea16e26","6622ce527487f6286fd59cc3","
    <div id=""grid-container"">
        <!-- Grid items will be dynamically added here -->
    </div>    ","null","","","","","","","","","","","",""
"","null","html-keyboard-response","283","220013","0.0-13.0-0.24","bFaWd5iBub","655f8b6aead3b1448f52681b","6617fad957f7c6a12ea16e26","6622ce527487f6286fd59cc3","fixation cross","null","","","","","","","","","","","",""
"","1168","html-keyboard-response","284","221181","0.0-13.0-1.24","bFaWd5iBub","655f8b6aead3b1448f52681b","6617fad957f7c6a12ea16e26","6622ce527487f6286fd59cc3","image grid"," ","","","","","Phylogenetic_Distractor_notarget","2500","ongrid"," ","3","Phylogenetic","true","experimental"
"","null","html-keyboard-response","285","221334","0.0-13.0-2.24","bFaWd5iBub","655f8b6aead3b1448f52681b","6617fad957f7c6a12ea16e26","6622ce527487f6286fd59cc3","
    <div id=""grid-container"">
        <!-- Grid items will be dynamically added here -->
    </div>    ","null","","","","","","","","","","","",""
"","null","html-keyboard-response","286","222052","0.0-13.0-0.25","bFaWd5iBub","655f8b6aead3b1448f52681b","6617fad957f7c6a12ea16e26","6622ce527487f6286fd59cc3","fixation cross","null","","","","","","","","","","","",""
"","911","html-keyboard-response","287","222963","0.0-13.0-1.25","bFaWd5iBub","655f8b6aead3b1448f52681b","6617fad957f7c6a12ea16e26","6622ce527487f6286fd59cc3","image grid","p","","","","","Phylogenetic_Distractor_notarget","2500","ongrid"," ","1","Phylogenetic","false","experimental"
"","null","html-keyboard-response","288","223121","0.0-13.0-2.25","bFaWd5iBub","655f8b6aead3b1448f52681b","6617fad957f7c6a12ea16e26","6622ce527487f6286fd59cc3","
    <div id=""grid-container"">
        <!-- Grid items will be dynamically added here -->
    </div>    ","null","","","","","","","","","","","",""
"","null","html-keyboard-response","289","223826","0.0-13.0-0.26","bFaWd5iBub","655f8b6aead3b1448f52681b","6617fad957f7c6a12ea16e26","6622ce527487f6286fd59cc3","fixation cross","null","","","","","","","","","","","",""
"","669","html-keyboard-response","290","224496","0.0-13.0-1.26","bFaWd5iBub","655f8b6aead3b1448f52681b","6617fad957f7c6a12ea16e26","6622ce527487f6286fd59cc3","image grid","q","","","","","Phylogenetic_Distractor_Nonthreat_target","2500","ongrid","p","1","Phylogenetic","false","experimental"
"","null","html-keyboard-response","291","224661","0.0-13.0-2.26","bFaWd5iBub","655f8b6aead3b1448f52681b","6617fad957f7c6a12ea16e26","6622ce527487f6286fd59cc3","
    <div id=""grid-container"">
        <!-- Grid items will be dynamically added here -->
    </div>    ","null","","","","","","","","","","","",""
"","null","html-keyboard-response","292","225378","0.0-13.0-0.27","bFaWd5iBub","655f8b6aead3b1448f52681b","6617fad957f7c6a12ea16e26","6622ce527487f6286fd59cc3","fixation cross","null","","","","","","","","","","","",""
"","1003","html-keyboard-response","293","226381","0.0-13.0-1.27","bFaWd5iBub","655f8b6aead3b1448f52681b","6617fad957f7c6a12ea16e26","6622ce527487f6286fd59cc3","image grid","q","","","","","Phylogenetic_Distractor_Nonthreat_target","2500","ongrid","p","4","Phylogenetic","false","experimental"
"","null","html-keyboard-response","294","226543","0.0-13.0-2.27","bFaWd5iBub","655f8b6aead3b1448f52681b","6617fad957f7c6a12ea16e26","6622ce527487f6286fd59cc3","
    <div id=""grid-container"">
        <!-- Grid items will be dynamically added here -->
    </div>    ","null","","","","","","","","","","","",""
"","null","html-keyboard-response","295","227254","0.0-13.0-0.28","bFaWd5iBub","655f8b6aead3b1448f52681b","6617fad957f7c6a12ea16e26","6622ce527487f6286fd59cc3","fixation cross","null","","","","","","","","","","","",""
"","961","html-keyboard-response","296","228215","0.0-13.0-1.28","bFaWd5iBub","655f8b6aead3b1448f52681b","6617fad957f7c6a12ea16e26","6622ce527487f6286fd59cc3","image grid","p","","","","","Phylogenetic_Distractor_Nonthreat_target","2500","ongrid","p","1","Phylogenetic","true","experimental"
"","null","html-keyboard-response","297","228369","0.0-13.0-2.28","bFaWd5iBub","655f8b6aead3b1448f52681b","6617fad957f7c6a12ea16e26","6622ce527487f6286fd59cc3","
    <div id=""grid-container"">
        <!-- Grid items will be dynamically added here -->
    </div>    ","null","","","","","","","","","","","",""
"","null","html-keyboard-response","298","229072","0.0-13.0-0.29","bFaWd5iBub","655f8b6aead3b1448f52681b","6617fad957f7c6a12ea16e26","6622ce527487f6286fd59cc3","fixation cross","null","","","","","","","","","","","",""
"","527","html-keyboard-response","299","229599","0.0-13.0-1.29","bFaWd5iBub","655f8b6aead3b1448f52681b","6617fad957f7c6a12ea16e26","6622ce527487f6286fd59cc3","image grid","q","","","","","Phylogenetic_Distractor_Threat_target","2500","ongrid","q","5","Phylogenetic","true","experimental"
"","null","html-keyboard-response","300","229753","0.0-13.0-2.29","bFaWd5iBub","655f8b6aead3b1448f52681b","6617fad957f7c6a12ea16e26","6622ce527487f6286fd59cc3","
    <div id=""grid-container"">
        <!-- Grid items will be dynamically added here -->
    </div>    ","null","","","","","","","","","","","",""
"","null","html-keyboard-response","301","230471","0.0-13.0-0.30","bFaWd5iBub","655f8b6aead3b1448f52681b","6617fad957f7c6a12ea16e26","6622ce527487f6286fd59cc3","fixation cross","null","","","","","","","","","","","",""
"","665","html-keyboard-response","302","231136","0.0-13.0-1.30","bFaWd5iBub","655f8b6aead3b1448f52681b","6617fad957f7c6a12ea16e26","6622ce527487f6286fd59cc3","image grid","p","","","","","Phylogenetic_Distractor_Nonthreat_target","2500","ongrid","p","4","Phylogenetic","true","experimental"
"","null","html-keyboard-response","303","231297","0.0-13.0-2.30","bFaWd5iBub","655f8b6aead3b1448f52681b","6617fad957f7c6a12ea16e26","6622ce527487f6286fd59cc3","
    <div id=""grid-container"">
        <!-- Grid items will be dynamically added here -->
    </div>    ","null","","","","","","","","","","","",""
"","null","html-keyboard-response","304","232026","0.0-13.0-0.31","bFaWd5iBub","655f8b6aead3b1448f52681b","6617fad957f7c6a12ea16e26","6622ce527487f6286fd59cc3","fixation cross","null","","","","","","","","","","","",""
"","1184","html-keyboard-response","305","233210","0.0-13.0-1.31","bFaWd5iBub","655f8b6aead3b1448f52681b","6617fad957f7c6a12ea16e26","6622ce527487f6286fd59cc3","image grid"," ","","","","","Phylogenetic_Distractor_Nonthreat_target","2500","ongrid","p","3","Phylogenetic","false","experimental"
"","null","html-keyboard-response","306","233374","0.0-13.0-2.31","bFaWd5iBub","655f8b6aead3b1448f52681b","6617fad957f7c6a12ea16e26","6622ce527487f6286fd59cc3","
    <div id=""grid-container"">
        <!-- Grid items will be dynamically added here -->
    </div>    ","null","","","","","","","","","","","",""
"","null","html-keyboard-response","307","234092","0.0-13.0-0.32","bFaWd5iBub","655f8b6aead3b1448f52681b","6617fad957f7c6a12ea16e26","6622ce527487f6286fd59cc3","fixation cross","null","","","","","","","","","","","",""
"","1079","html-keyboard-response","308","235172","0.0-13.0-1.32","bFaWd5iBub","655f8b6aead3b1448f52681b","6617fad957f7c6a12ea16e26","6622ce527487f6286fd59cc3","image grid","q","","","","","Phylogenetic_Distractor_Nonthreat_target","2500","ongrid","p","5","Phylogenetic","false","experimental"
"","null","html-keyboard-response","309","235336","0.0-13.0-2.32","bFaWd5iBub","655f8b6aead3b1448f52681b","6617fad957f7c6a12ea16e26","6622ce527487f6286fd59cc3","
    <div id=""grid-container"">
        <!-- Grid items will be dynamically added here -->
    </div>    ","null","","","","","","","","","","","",""
"","null","html-keyboard-response","310","236062","0.0-13.0-0.33","bFaWd5iBub","655f8b6aead3b1448f52681b","6617fad957f7c6a12ea16e26","6622ce527487f6286fd59cc3","fixation cross","null","","","","","","","","","","","",""
"","973","html-keyboard-response","311","237035","0.0-13.0-1.33","bFaWd5iBub","655f8b6aead3b1448f52681b","6617fad957f7c6a12ea16e26","6622ce527487f6286fd59cc3","image grid","p","","","","","Phylogenetic_Distractor_Nonthreat_target","2500","ongrid","p","2","Phylogenetic","true","experimental"
"","null","html-keyboard-response","312","237200","0.0-13.0-2.33","bFaWd5iBub","655f8b6aead3b1448f52681b","6617fad957f7c6a12ea16e26","6622ce527487f6286fd59cc3","
    <div id=""grid-container"">
        <!-- Grid items will be dynamically added here -->
    </div>    ","null","","","","","","","","","","","",""
"","null","html-keyboard-response","313","237907","0.0-13.0-0.34","bFaWd5iBub","655f8b6aead3b1448f52681b","6617fad957f7c6a12ea16e26","6622ce527487f6286fd59cc3","fixation cross","null","","","","","","","","","","","",""
"","1028","html-keyboard-response","314","238935","0.0-13.0-1.34","bFaWd5iBub","655f8b6aead3b1448f52681b","6617fad957f7c6a12ea16e26","6622ce527487f6286fd59cc3","image grid","p","","","","","Phylogenetic_Distractor_Nonthreat_target","2500","ongrid","p","2","Phylogenetic","true","experimental"
"","null","html-keyboard-response","315","239091","0.0-13.0-2.34","bFaWd5iBub","655f8b6aead3b1448f52681b","6617fad957f7c6a12ea16e26","6622ce527487f6286fd59cc3","
    <div id=""grid-container"">
        <!-- Grid items will be dynamically added here -->
    </div>    ","null","","","","","","","","","","","",""
"","null","html-keyboard-response","316","239799","0.0-13.0-0.35","bFaWd5iBub","655f8b6aead3b1448f52681b","6617fad957f7c6a12ea16e26","6622ce527487f6286fd59cc3","fixation cross","null","","","","","","","","","","","",""
"","1312","html-keyboard-response","317","241112","0.0-13.0-1.35","bFaWd5iBub","655f8b6aead3b1448f52681b","6617fad957f7c6a12ea16e26","6622ce527487f6286fd59cc3","image grid"," ","","","","","Phylogenetic_Distractor_notarget","2500","ongrid"," ","2","Phylogenetic","true","experimental"
"","null","html-keyboard-response","318","241273","0.0-13.0-2.35","bFaWd5iBub","655f8b6aead3b1448f52681b","6617fad957f7c6a12ea16e26","6622ce527487f6286fd59cc3","
    <div id=""grid-container"">
        <!-- Grid items will be dynamically added here -->
    </div>    ","null","","","","","","","","","","","",""
"","null","html-keyboard-response","319","241977","0.0-13.0-0.36","bFaWd5iBub","655f8b6aead3b1448f52681b","6617fad957f7c6a12ea16e26","6622ce527487f6286fd59cc3","fixation cross","null","","","","","","","","","","","",""
"","816","html-keyboard-response","320","242793","0.0-13.0-1.36","bFaWd5iBub","655f8b6aead3b1448f52681b","6617fad957f7c6a12ea16e26","6622ce527487f6286fd59cc3","image grid","q","","","","","Phylogenetic_Distractor_Threat_target","2500","ongrid","q","6","Phylogenetic","true","experimental"
"","null","html-keyboard-response","321","242956","0.0-13.0-2.36","bFaWd5iBub","655f8b6aead3b1448f52681b","6617fad957f7c6a12ea16e26","6622ce527487f6286fd59cc3","
    <div id=""grid-container"">
        <!-- Grid items will be dynamically added here -->
    </div>    ","null","","","","","","","","","","","",""
"","null","html-keyboard-response","322","243673","0.0-13.0-0.37","bFaWd5iBub","655f8b6aead3b1448f52681b","6617fad957f7c6a12ea16e26","6622ce527487f6286fd59cc3","fixation cross","null","","","","","","","","","","","",""
"","1052","html-keyboard-response","323","244726","0.0-13.0-1.37","bFaWd5iBub","655f8b6aead3b1448f52681b","6617fad957f7c6a12ea16e26","6622ce527487f6286fd59cc3","image grid","p","","","","","Phylogenetic_Distractor_Nonthreat_target","2500","ongrid","p","8","Phylogenetic","true","experimental"
"","null","html-keyboard-response","324","244878","0.0-13.0-2.37","bFaWd5iBub","655f8b6aead3b1448f52681b","6617fad957f7c6a12ea16e26","6622ce527487f6286fd59cc3","
    <div id=""grid-container"">
        <!-- Grid items will be dynamically added here -->
    </div>    ","null","","","","","","","","","","","",""
"","null","html-keyboard-response","325","245588","0.0-13.0-0.38","bFaWd5iBub","655f8b6aead3b1448f52681b","6617fad957f7c6a12ea16e26","6622ce527487f6286fd59cc3","fixation cross","null","","","","","","","","","","","",""
"","661","html-keyboard-response","326","246249","0.0-13.0-1.38","bFaWd5iBub","655f8b6aead3b1448f52681b","6617fad957f7c6a12ea16e26","6622ce527487f6286fd59cc3","image grid","q","","","","","Phylogenetic_Distractor_Threat_target","2500","ongrid","q","1","Phylogenetic","true","experimental"
"","null","html-keyboard-response","327","246411","0.0-13.0-2.38","bFaWd5iBub","655f8b6aead3b1448f52681b","6617fad957f7c6a12ea16e26","6622ce527487f6286fd59cc3","
    <div id=""grid-container"">
        <!-- Grid items will be dynamically added here -->
    </div>    ","null","","","","","","","","","","","",""
"","null","html-keyboard-response","328","247132","0.0-13.0-0.39","bFaWd5iBub","655f8b6aead3b1448f52681b","6617fad957f7c6a12ea16e26","6622ce527487f6286fd59cc3","fixation cross","null","","","","","","","","","","","",""
"","1073","html-keyboard-response","329","248205","0.0-13.0-1.39","bFaWd5iBub","655f8b6aead3b1448f52681b","6617fad957f7c6a12ea16e26","6622ce527487f6286fd59cc3","image grid","p","","","","","Phylogenetic_Distractor_Nonthreat_target","2500","ongrid","p","1","Phylogenetic","true","experimental"
"","null","html-keyboard-response","330","248358","0.0-13.0-2.39","bFaWd5iBub","655f8b6aead3b1448f52681b","6617fad957f7c6a12ea16e26","6622ce527487f6286fd59cc3","
    <div id=""grid-container"">
        <!-- Grid items will be dynamically added here -->
    </div>    ","null","","","","","","","","","","","",""
"","1307","html-keyboard-response","331","249873","0.0-14.0","bFaWd5iBub","655f8b6aead3b1448f52681b","6617fad957f7c6a12ea16e26","6622ce527487f6286fd59cc3","break screen"," ","","","","","","","","","","","",""
"","null","html-keyboard-response","332","252394","0.0-15.0-0.0","bFaWd5iBub","655f8b6aead3b1448f52681b","6617fad957f7c6a12ea16e26","6622ce527487f6286fd59cc3","fixation cross","null","","","","","","","","","","","",""
"","1085","html-keyboard-response","333","253480","0.0-15.0-1.0","bFaWd5iBub","655f8b6aead3b1448f52681b","6617fad957f7c6a12ea16e26","6622ce527487f6286fd59cc3","image grid","p","","","","","Phylogenetic_Distractor_Nonthreat_target","2500","ongrid","p","6","Phylogenetic","true","experimental"
"","null","html-keyboard-response","334","253633","0.0-15.0-2.0","bFaWd5iBub","655f8b6aead3b1448f52681b","6617fad957f7c6a12ea16e26","6622ce527487f6286fd59cc3","
    <div id=""grid-container"">
        <!-- Grid items will be dynamically added here -->
    </div>    ","null","","","","","","","","","","","",""
"","null","html-keyboard-response","335","254339","0.0-15.0-0.1","bFaWd5iBub","655f8b6aead3b1448f52681b","6617fad957f7c6a12ea16e26","6622ce527487f6286fd59cc3","fixation cross","null","","","","","","","","","","","",""
"","559","html-keyboard-response","336","254899","0.0-15.0-1.1","bFaWd5iBub","655f8b6aead3b1448f52681b","6617fad957f7c6a12ea16e26","6622ce527487f6286fd59cc3","image grid","q","","","","","Phylogenetic_Distractor_Threat_target","2500","ongrid","q","7","Phylogenetic","true","experimental"
"","null","html-keyboard-response","337","255064","0.0-15.0-2.1","bFaWd5iBub","655f8b6aead3b1448f52681b","6617fad957f7c6a12ea16e26","6622ce527487f6286fd59cc3","
    <div id=""grid-container"">
        <!-- Grid items will be dynamically added here -->
    </div>    ","null","","","","","","","","","","","",""
"","null","html-keyboard-response","338","255780","0.0-15.0-0.2","bFaWd5iBub","655f8b6aead3b1448f52681b","6617fad957f7c6a12ea16e26","6622ce527487f6286fd59cc3","fixation cross","null","","","","","","","","","","","",""
"","635","html-keyboard-response","339","256416","0.0-15.0-1.2","bFaWd5iBub","655f8b6aead3b1448f52681b","6617fad957f7c6a12ea16e26","6622ce527487f6286fd59cc3","image grid","p","","","","","Phylogenetic_Distractor_Nonthreat_target","2500","ongrid","p","3","Phylogenetic","true","experimental"
"","null","html-keyboard-response","340","256571","0.0-15.0-2.2","bFaWd5iBub","655f8b6aead3b1448f52681b","6617fad957f7c6a12ea16e26","6622ce527487f6286fd59cc3","
    <div id=""grid-container"">
        <!-- Grid items will be dynamically added here -->
    </div>    ","null","","","","","","","","","","","",""
"","null","html-keyboard-response","341","257279","0.0-15.0-0.3","bFaWd5iBub","655f8b6aead3b1448f52681b","6617fad957f7c6a12ea16e26","6622ce527487f6286fd59cc3","fixation cross","null","","","","","","","","","","","",""
"","901","html-keyboard-response","342","258180","0.0-15.0-1.3","bFaWd5iBub","655f8b6aead3b1448f52681b","6617fad957f7c6a12ea16e26","6622ce527487f6286fd59cc3","image grid"," ","","","","","Phylogenetic_Distractor_Threat_target","2500","ongrid","q","9","Phylogenetic","false","experimental"
"","null","html-keyboard-response","343","258345","0.0-15.0-2.3","bFaWd5iBub","655f8b6aead3b1448f52681b","6617fad957f7c6a12ea16e26","6622ce527487f6286fd59cc3","
    <div id=""grid-container"">
        <!-- Grid items will be dynamically added here -->
    </div>    ","null","","","","","","","","","","","",""
"","null","html-keyboard-response","344","259056","0.0-15.0-0.4","bFaWd5iBub","655f8b6aead3b1448f52681b","6617fad957f7c6a12ea16e26","6622ce527487f6286fd59cc3","fixation cross","null","","","","","","","","","","","",""
"","828","html-keyboard-response","345","259884","0.0-15.0-1.4","bFaWd5iBub","655f8b6aead3b1448f52681b","6617fad957f7c6a12ea16e26","6622ce527487f6286fd59cc3","image grid","p","","","","","Phylogenetic_Distractor_Nonthreat_target","2500","ongrid","p","7","Phylogenetic","true","experimental"
"","null","html-keyboard-response","346","260044","0.0-15.0-2.4","bFaWd5iBub","655f8b6aead3b1448f52681b","6617fad957f7c6a12ea16e26","6622ce527487f6286fd59cc3","
    <div id=""grid-container"">
        <!-- Grid items will be dynamically added here -->
    </div>    ","null","","","","","","","","","","","",""
"","null","html-keyboard-response","347","260776","0.0-15.0-0.5","bFaWd5iBub","655f8b6aead3b1448f52681b","6617fad957f7c6a12ea16e26","6622ce527487f6286fd59cc3","fixation cross","null","","","","","","","","","","","",""
"","1335","html-keyboard-response","348","262112","0.0-15.0-1.5","bFaWd5iBub","655f8b6aead3b1448f52681b","6617fad957f7c6a12ea16e26","6622ce527487f6286fd59cc3","image grid","p","","","","","Phylogenetic_Distractor_Nonthreat_target","2500","ongrid","p","3","Phylogenetic","true","experimental"
"","null","html-keyboard-response","349","262267","0.0-15.0-2.5","bFaWd5iBub","655f8b6aead3b1448f52681b","6617fad957f7c6a12ea16e26","6622ce527487f6286fd59cc3","
    <div id=""grid-container"">
        <!-- Grid items will be dynamically added here -->
    </div>    ","null","","","","","","","","","","","",""
"","null","html-keyboard-response","350","262998","0.0-15.0-0.6","bFaWd5iBub","655f8b6aead3b1448f52681b","6617fad957f7c6a12ea16e26","6622ce527487f6286fd59cc3","fixation cross","null","","","","","","","","","","","",""
"","1372","html-keyboard-response","351","264370","0.0-15.0-1.6","bFaWd5iBub","655f8b6aead3b1448f52681b","6617fad957f7c6a12ea16e26","6622ce527487f6286fd59cc3","image grid","p","","","","","Phylogenetic_Distractor_Nonthreat_target","2500","ongrid","p","6","Phylogenetic","true","experimental"
"","null","html-keyboard-response","352","264523","0.0-15.0-2.6","bFaWd5iBub","655f8b6aead3b1448f52681b","6617fad957f7c6a12ea16e26","6622ce527487f6286fd59cc3","
    <div id=""grid-container"">
        <!-- Grid items will be dynamically added here -->
    </div>    ","null","","","","","","","","","","","",""
"","null","html-keyboard-response","353","265235","0.0-15.0-0.7","bFaWd5iBub","655f8b6aead3b1448f52681b","6617fad957f7c6a12ea16e26","6622ce527487f6286fd59cc3","fixation cross","null","","","","","","","","","","","",""
"","437","html-keyboard-response","354","265673","0.0-15.0-1.7","bFaWd5iBub","655f8b6aead3b1448f52681b","6617fad957f7c6a12ea16e26","6622ce527487f6286fd59cc3","image grid","q","","","","","Phylogenetic_Distractor_Threat_target","2500","ongrid","q","5","Phylogenetic","true","experimental"
"","null","html-keyboard-response","355","265839","0.0-15.0-2.7","bFaWd5iBub","655f8b6aead3b1448f52681b","6617fad957f7c6a12ea16e26","6622ce527487f6286fd59cc3","
    <div id=""grid-container"">
        <!-- Grid items will be dynamically added here -->
    </div>    ","null","","","","","","","","","","","",""
"","null","html-keyboard-response","356","266548","0.0-15.0-0.8","bFaWd5iBub","655f8b6aead3b1448f52681b","6617fad957f7c6a12ea16e26","6622ce527487f6286fd59cc3","fixation cross","null","","","","","","","","","","","",""
"","753","html-keyboard-response","357","267301","0.0-15.0-1.8","bFaWd5iBub","655f8b6aead3b1448f52681b","6617fad957f7c6a12ea16e26","6622ce527487f6286fd59cc3","image grid","q","","","","","Phylogenetic_Distractor_Threat_target","2500","ongrid","q","2","Phylogenetic","true","experimental"
"","null","html-keyboard-response","358","267453","0.0-15.0-2.8","bFaWd5iBub","655f8b6aead3b1448f52681b","6617fad957f7c6a12ea16e26","6622ce527487f6286fd59cc3","
    <div id=""grid-container"">
        <!-- Grid items will be dynamically added here -->
    </div>    ","null","","","","","","","","","","","",""
"","null","html-keyboard-response","359","268158","0.0-15.0-0.9","bFaWd5iBub","655f8b6aead3b1448f52681b","6617fad957f7c6a12ea16e26","6622ce527487f6286fd59cc3","fixation cross","null","","","","","","","","","","","",""
"","493","html-keyboard-response","360","268652","0.0-15.0-1.9","bFaWd5iBub","655f8b6aead3b1448f52681b","6617fad957f7c6a12ea16e26","6622ce527487f6286fd59cc3","image grid","q","","","","","Phylogenetic_Distractor_Threat_target","2500","ongrid","q","4","Phylogenetic","true","experimental"
"","null","html-keyboard-response","361","268815","0.0-15.0-2.9","bFaWd5iBub","655f8b6aead3b1448f52681b","6617fad957f7c6a12ea16e26","6622ce527487f6286fd59cc3","
    <div id=""grid-container"">
        <!-- Grid items will be dynamically added here -->
    </div>    ","null","","","","","","","","","","","",""
"","null","html-keyboard-response","362","269537","0.0-15.0-0.10","bFaWd5iBub","655f8b6aead3b1448f52681b","6617fad957f7c6a12ea16e26","6622ce527487f6286fd59cc3","fixation cross","null","","","","","","","","","","","",""
"","621","html-keyboard-response","363","270158","0.0-15.0-1.10","bFaWd5iBub","655f8b6aead3b1448f52681b","6617fad957f7c6a12ea16e26","6622ce527487f6286fd59cc3","image grid","p","","","","","Phylogenetic_Distractor_Nonthreat_target","2500","ongrid","p","5","Phylogenetic","true","experimental"
"","null","html-keyboard-response","364","270321","0.0-15.0-2.10","bFaWd5iBub","655f8b6aead3b1448f52681b","6617fad957f7c6a12ea16e26","6622ce527487f6286fd59cc3","
    <div id=""grid-container"">
        <!-- Grid items will be dynamically added here -->
    </div>    ","null","","","","","","","","","","","",""
"","null","html-keyboard-response","365","271032","0.0-15.0-0.11","bFaWd5iBub","655f8b6aead3b1448f52681b","6617fad957f7c6a12ea16e26","6622ce527487f6286fd59cc3","fixation cross","null","","","","","","","","","","","",""
"","527","html-keyboard-response","366","271560","0.0-15.0-1.11","bFaWd5iBub","655f8b6aead3b1448f52681b","6617fad957f7c6a12ea16e26","6622ce527487f6286fd59cc3","image grid","p","","","","","Phylogenetic_Distractor_Nonthreat_target","2500","ongrid","p","5","Phylogenetic","true","experimental"
"","null","html-keyboard-response","367","271714","0.0-15.0-2.11","bFaWd5iBub","655f8b6aead3b1448f52681b","6617fad957f7c6a12ea16e26","6622ce527487f6286fd59cc3","
    <div id=""grid-container"">
        <!-- Grid items will be dynamically added here -->
    </div>    ","null","","","","","","","","","","","",""
"","null","html-keyboard-response","368","272439","0.0-15.0-0.12","bFaWd5iBub","655f8b6aead3b1448f52681b","6617fad957f7c6a12ea16e26","6622ce527487f6286fd59cc3","fixation cross","null","","","","","","","","","","","",""
"","770","html-keyboard-response","369","273209","0.0-15.0-1.12","bFaWd5iBub","655f8b6aead3b1448f52681b","6617fad957f7c6a12ea16e26","6622ce527487f6286fd59cc3","image grid","q","","","","","Phylogenetic_Distractor_Threat_target","2500","ongrid","q","9","Phylogenetic","true","experimental"
"","null","html-keyboard-response","370","273370","0.0-15.0-2.12","bFaWd5iBub","655f8b6aead3b1448f52681b","6617fad957f7c6a12ea16e26","6622ce527487f6286fd59cc3","
    <div id=""grid-container"">
        <!-- Grid items will be dynamically added here -->
