"success","rt","trial_type","trial_index","time_elapsed","internal_node_id","unique_identifier","subject_id","study_id","session_id","stimulus","response","timeout","failed_images","failed_audio","failed_video","task","time_manipulation","respondedwhen","correctresponse","targetimagelocation","blocktype","correct","roundtype"
"true","2851","fullscreen","0","3868","0.0-0.0","VZLXR5QrXu","63c34086cb929e7c9b844a67","6617fad957f7c6a12ea16e26","6622cf0da83cde040ac06e69","","","","","","","","","","","","","",""
"","6580","html-keyboard-response","1","10450","0.0-1.0","VZLXR5QrXu","63c34086cb929e7c9b844a67","6617fad957f7c6a12ea16e26","6622cf0da83cde040ac06e69","instruction screen 0"," ","","","","","","","","","","","",""
"true","","preload","2","12561","0.0-2.0","VZLXR5QrXu","63c34086cb929e7c9b844a67","6617fad957f7c6a12ea16e26","6622cf0da83cde040ac06e69","","","false","[]","[]","[]","","","","","","","",""
"","8943","html-keyboard-response","3","21505","0.0-3.0","VZLXR5QrXu","63c34086cb929e7c9b844a67","6617fad957f7c6a12ea16e26","6622cf0da83cde040ac06e69","instruction screen 1"," ","","","","","","","","","","","",""
"","9150","html-keyboard-response","4","30656","0.0-4.0","VZLXR5QrXu","63c34086cb929e7c9b844a67","6617fad957f7c6a12ea16e26","6622cf0da83cde040ac06e69","instruction screen 2","q","","","","","","","","","","","",""
"","3712","html-keyboard-response","5","34369","0.0-5.0","VZLXR5QrXu","63c34086cb929e7c9b844a67","6617fad957f7c6a12ea16e26","6622cf0da83cde040ac06e69","instruction screen 3","p","","","","","","","","","","","",""
"","2872","html-keyboard-response","6","37241","0.0-6.0","VZLXR5QrXu","63c34086cb929e7c9b844a67","6617fad957f7c6a12ea16e26","6622cf0da83cde040ac06e69","instruction screen 4"," ","","","","","","","","","","","",""
"","7240","html-keyboard-response","7","44481","0.0-7.0","VZLXR5QrXu","63c34086cb929e7c9b844a67","6617fad957f7c6a12ea16e26","6622cf0da83cde040ac06e69","instruction screen 5"," ","","","","","","","","","","","",""
"","null","html-keyboard-response","8","44984","0.0-8.0","VZLXR5QrXu","63c34086cb929e7c9b844a67","6617fad957f7c6a12ea16e26","6622cf0da83cde040ac06e69","fixation cross","null","","","","","","","","","","","",""
"","null","html-keyboard-response","9","45486","0.0-9.0-0.0","VZLXR5QrXu","63c34086cb929e7c9b844a67","6617fad957f7c6a12ea16e26","6622cf0da83cde040ac06e69","fixation cross","null","","","","","","","","","","","",""
"","2618","html-keyboard-response","10","48105","0.0-9.0-1.0","VZLXR5QrXu","63c34086cb929e7c9b844a67","6617fad957f7c6a12ea16e26","6622cf0da83cde040ac06e69","image grid","p","","","","","Phylogenetic_Distractor_Nonthreat_target","3000","ongrid","p","4","Phylogenetic","true","practice"
"","null","html-keyboard-response","11","48260","0.0-9.0-2.0","VZLXR5QrXu","63c34086cb929e7c9b844a67","6617fad957f7c6a12ea16e26","6622cf0da83cde040ac06e69","
    <div id=""grid-container"">
        <!-- Grid items will be dynamically added here -->
    </div>    ","null","","","","","","","","","","","",""
"","null","html-keyboard-response","12","49465","0.0-9.0-3.0","VZLXR5QrXu","63c34086cb929e7c9b844a67","6617fad957f7c6a12ea16e26","6622cf0da83cde040ac06e69","feedback screen","null","","","","","","","","","","","",""
"","null","html-keyboard-response","13","49966","0.0-9.0-0.1","VZLXR5QrXu","63c34086cb929e7c9b844a67","6617fad957f7c6a12ea16e26","6622cf0da83cde040ac06e69","fixation cross","null","","","","","","","","","","","",""
"","1754","html-keyboard-response","14","51720","0.0-9.0-1.1","VZLXR5QrXu","63c34086cb929e7c9b844a67","6617fad957f7c6a12ea16e26","6622cf0da83cde040ac06e69","image grid"," ","","","","","Ontogenetic_Distractor_notarget","2900","ongrid"," ","9","Phylogenetic","true","practice"
"","null","html-keyboard-response","15","51876","0.0-9.0-2.1","VZLXR5QrXu","63c34086cb929e7c9b844a67","6617fad957f7c6a12ea16e26","6622cf0da83cde040ac06e69","
    <div id=""grid-container"">
        <!-- Grid items will be dynamically added here -->
    </div>    ","null","","","","","","","","","","","",""
"","null","html-keyboard-response","16","53084","0.0-9.0-3.1","VZLXR5QrXu","63c34086cb929e7c9b844a67","6617fad957f7c6a12ea16e26","6622cf0da83cde040ac06e69","feedback screen","null","","","","","","","","","","","",""
"","null","html-keyboard-response","17","53585","0.0-9.0-0.2","VZLXR5QrXu","63c34086cb929e7c9b844a67","6617fad957f7c6a12ea16e26","6622cf0da83cde040ac06e69","fixation cross","null","","","","","","","","","","","",""
"","2335","html-keyboard-response","18","55921","0.0-9.0-1.2","VZLXR5QrXu","63c34086cb929e7c9b844a67","6617fad957f7c6a12ea16e26","6622cf0da83cde040ac06e69","image grid"," ","","","","","Phylogenetic_Distractor_notarget","2800","ongrid"," ","6","Phylogenetic","true","practice"
"","null","html-keyboard-response","19","56078","0.0-9.0-2.2","VZLXR5QrXu","63c34086cb929e7c9b844a67","6617fad957f7c6a12ea16e26","6622cf0da83cde040ac06e69","
    <div id=""grid-container"">
        <!-- Grid items will be dynamically added here -->
    </div>    ","null","","","","","","","","","","","",""
"","null","html-keyboard-response","20","57281","0.0-9.0-3.2","VZLXR5QrXu","63c34086cb929e7c9b844a67","6617fad957f7c6a12ea16e26","6622cf0da83cde040ac06e69","feedback screen","null","","","","","","","","","","","",""
"","null","html-keyboard-response","21","57782","0.0-9.0-0.3","VZLXR5QrXu","63c34086cb929e7c9b844a67","6617fad957f7c6a12ea16e26","6622cf0da83cde040ac06e69","fixation cross","null","","","","","","","","","","","",""
"","1538","html-keyboard-response","22","59320","0.0-9.0-1.3","VZLXR5QrXu","63c34086cb929e7c9b844a67","6617fad957f7c6a12ea16e26","6622cf0da83cde040ac06e69","image grid","q","","","","","Ontogenetic_Distractor_Threat_target","2700","ongrid","q","8","Phylogenetic","true","practice"
"","null","html-keyboard-response","23","59481","0.0-9.0-2.3","VZLXR5QrXu","63c34086cb929e7c9b844a67","6617fad957f7c6a12ea16e26","6622cf0da83cde040ac06e69","
    <div id=""grid-container"">
        <!-- Grid items will be dynamically added here -->
    </div>    ","null","","","","","","","","","","","",""
"","null","html-keyboard-response","24","60684","0.0-9.0-3.3","VZLXR5QrXu","63c34086cb929e7c9b844a67","6617fad957f7c6a12ea16e26","6622cf0da83cde040ac06e69","feedback screen","null","","","","","","","","","","","",""
"","null","html-keyboard-response","25","61185","0.0-9.0-0.4","VZLXR5QrXu","63c34086cb929e7c9b844a67","6617fad957f7c6a12ea16e26","6622cf0da83cde040ac06e69","fixation cross","null","","","","","","","","","","","",""
"","1264","html-keyboard-response","26","62449","0.0-9.0-1.4","VZLXR5QrXu","63c34086cb929e7c9b844a67","6617fad957f7c6a12ea16e26","6622cf0da83cde040ac06e69","image grid","p","","","","","Ontogenetic_Distractor_Nonthreat_target","2600","ongrid","p","9","Phylogenetic","true","practice"
"","null","html-keyboard-response","27","62609","0.0-9.0-2.4","VZLXR5QrXu","63c34086cb929e7c9b844a67","6617fad957f7c6a12ea16e26","6622cf0da83cde040ac06e69","
    <div id=""grid-container"">
        <!-- Grid items will be dynamically added here -->
    </div>    ","null","","","","","","","","","","","",""
"","null","html-keyboard-response","28","63813","0.0-9.0-3.4","VZLXR5QrXu","63c34086cb929e7c9b844a67","6617fad957f7c6a12ea16e26","6622cf0da83cde040ac06e69","feedback screen","null","","","","","","","","","","","",""
"","null","html-keyboard-response","29","64314","0.0-9.0-0.5","VZLXR5QrXu","63c34086cb929e7c9b844a67","6617fad957f7c6a12ea16e26","6622cf0da83cde040ac06e69","fixation cross","null","","","","","","","","","","","",""
"","1141","html-keyboard-response","30","65457","0.0-9.0-1.5","VZLXR5QrXu","63c34086cb929e7c9b844a67","6617fad957f7c6a12ea16e26","6622cf0da83cde040ac06e69","image grid","q","","","","","Ontogenetic_Distractor_Threat_target","2500","ongrid","q","1","Phylogenetic","true","practice"
"","null","html-keyboard-response","31","65617","0.0-9.0-2.5","VZLXR5QrXu","63c34086cb929e7c9b844a67","6617fad957f7c6a12ea16e26","6622cf0da83cde040ac06e69","
    <div id=""grid-container"">
        <!-- Grid items will be dynamically added here -->
    </div>    ","null","","","","","","","","","","","",""
"","null","html-keyboard-response","32","66820","0.0-9.0-3.5","VZLXR5QrXu","63c34086cb929e7c9b844a67","6617fad957f7c6a12ea16e26","6622cf0da83cde040ac06e69","feedback screen","null","","","","","","","","","","","",""
"","null","html-keyboard-response","33","67321","0.0-9.0-0.6","VZLXR5QrXu","63c34086cb929e7c9b844a67","6617fad957f7c6a12ea16e26","6622cf0da83cde040ac06e69","fixation cross","null","","","","","","","","","","","",""
"","1807","html-keyboard-response","34","69128","0.0-9.0-1.6","VZLXR5QrXu","63c34086cb929e7c9b844a67","6617fad957f7c6a12ea16e26","6622cf0da83cde040ac06e69","image grid"," ","","","","","Phylogenetic_Distractor_notarget","2400","ongrid"," ","1","Phylogenetic","true","practice"
"","null","html-keyboard-response","35","69295","0.0-9.0-2.6","VZLXR5QrXu","63c34086cb929e7c9b844a67","6617fad957f7c6a12ea16e26","6622cf0da83cde040ac06e69","
    <div id=""grid-container"">
        <!-- Grid items will be dynamically added here -->
    </div>    ","null","","","","","","","","","","","",""
"","null","html-keyboard-response","36","70500","0.0-9.0-3.6","VZLXR5QrXu","63c34086cb929e7c9b844a67","6617fad957f7c6a12ea16e26","6622cf0da83cde040ac06e69","feedback screen","null","","","","","","","","","","","",""
"","null","html-keyboard-response","37","71016","0.0-9.0-0.7","VZLXR5QrXu","63c34086cb929e7c9b844a67","6617fad957f7c6a12ea16e26","6622cf0da83cde040ac06e69","fixation cross","null","","","","","","","","","","","",""
"","994","html-keyboard-response","38","72009","0.0-9.0-1.7","VZLXR5QrXu","63c34086cb929e7c9b844a67","6617fad957f7c6a12ea16e26","6622cf0da83cde040ac06e69","image grid","p","","","","","Ontogenetic_Distractor_Nonthreat_target","2300","ongrid","p","8","Phylogenetic","true","practice"
"","null","html-keyboard-response","39","72171","0.0-9.0-2.7","VZLXR5QrXu","63c34086cb929e7c9b844a67","6617fad957f7c6a12ea16e26","6622cf0da83cde040ac06e69","
    <div id=""grid-container"">
        <!-- Grid items will be dynamically added here -->
    </div>    ","null","","","","","","","","","","","",""
"","null","html-keyboard-response","40","73375","0.0-9.0-3.7","VZLXR5QrXu","63c34086cb929e7c9b844a67","6617fad957f7c6a12ea16e26","6622cf0da83cde040ac06e69","feedback screen","null","","","","","","","","","","","",""
"","null","html-keyboard-response","41","73875","0.0-9.0-0.8","VZLXR5QrXu","63c34086cb929e7c9b844a67","6617fad957f7c6a12ea16e26","6622cf0da83cde040ac06e69","fixation cross","null","","","","","","","","","","","",""
"","1332","html-keyboard-response","42","75209","0.0-9.0-1.8","VZLXR5QrXu","63c34086cb929e7c9b844a67","6617fad957f7c6a12ea16e26","6622cf0da83cde040ac06e69","image grid","q","","","","","Ontogenetic_Distractor_Threat_target","2200","ongrid","q","3","Phylogenetic","true","practice"
"","null","html-keyboard-response","43","75379","0.0-9.0-2.8","VZLXR5QrXu","63c34086cb929e7c9b844a67","6617fad957f7c6a12ea16e26","6622cf0da83cde040ac06e69","
    <div id=""grid-container"">
        <!-- Grid items will be dynamically added here -->
    </div>    ","null","","","","","","","","","","","",""
"","null","html-keyboard-response","44","76644","0.0-9.0-3.8","VZLXR5QrXu","63c34086cb929e7c9b844a67","6617fad957f7c6a12ea16e26","6622cf0da83cde040ac06e69","feedback screen","null","","","","","","","","","","","",""
"","null","html-keyboard-response","45","77167","0.0-9.0-0.9","VZLXR5QrXu","63c34086cb929e7c9b844a67","6617fad957f7c6a12ea16e26","6622cf0da83cde040ac06e69","fixation cross","null","","","","","","","","","","","",""
"","1849","html-keyboard-response","46","79016","0.0-9.0-1.9","VZLXR5QrXu","63c34086cb929e7c9b844a67","6617fad957f7c6a12ea16e26","6622cf0da83cde040ac06e69","image grid"," ","","","","","Phylogenetic_Distractor_Nonthreat_target","2100","ongrid","p","4","Phylogenetic","false","practice"
"","null","html-keyboard-response","47","79186","0.0-9.0-2.9","VZLXR5QrXu","63c34086cb929e7c9b844a67","6617fad957f7c6a12ea16e26","6622cf0da83cde040ac06e69","
    <div id=""grid-container"">
        <!-- Grid items will be dynamically added here -->
    </div>    ","null","","","","","","","","","","","",""
"","null","html-keyboard-response","48","80511","0.0-9.0-3.9","VZLXR5QrXu","63c34086cb929e7c9b844a67","6617fad957f7c6a12ea16e26","6622cf0da83cde040ac06e69","feedback screen","null","","","","","","","","","","","",""
"","null","html-keyboard-response","49","81027","0.0-9.0-0.10","VZLXR5QrXu","63c34086cb929e7c9b844a67","6617fad957f7c6a12ea16e26","6622cf0da83cde040ac06e69","fixation cross","null","","","","","","","","","","","",""
"","null","html-keyboard-response","50","83053","0.0-9.0-1.10","VZLXR5QrXu","63c34086cb929e7c9b844a67","6617fad957f7c6a12ea16e26","6622cf0da83cde040ac06e69","
        <div id=""grid-container"">
        <!-- Grid items will be dynamically added here -->
    </div>    ","null","","","","","","","","","","","",""
"","2000","html-keyboard-response","51","88059","0.0-9.0-2.10","VZLXR5QrXu","63c34086cb929e7c9b844a67","6617fad957f7c6a12ea16e26","6622cf0da83cde040ac06e69","mask grid","null","","","","","Phylogenetic_Distractor_Nonthreat_target","2000","onmask","p","3","Phylogenetic","false","practice"
"","null","html-keyboard-response","52","89262","0.0-9.0-3.10","VZLXR5QrXu","63c34086cb929e7c9b844a67","6617fad957f7c6a12ea16e26","6622cf0da83cde040ac06e69","feedback screen","null","","","","","","","","","","","",""
"","2","html-keyboard-response","53","89762","0.0-9.0-0.11","VZLXR5QrXu","63c34086cb929e7c9b844a67","6617fad957f7c6a12ea16e26","6622cf0da83cde040ac06e69","fixation cross"," ","","","","","","","","","","","",""
"","1701","html-keyboard-response","54","91464","0.0-9.0-1.11","VZLXR5QrXu","63c34086cb929e7c9b844a67","6617fad957f7c6a12ea16e26","6622cf0da83cde040ac06e69","image grid","p","","","","","Phylogenetic_Distractor_Threat_target","1900","ongrid","q","7","Phylogenetic","false","practice"
"","null","html-keyboard-response","55","91620","0.0-9.0-2.11","VZLXR5QrXu","63c34086cb929e7c9b844a67","6617fad957f7c6a12ea16e26","6622cf0da83cde040ac06e69","
    <div id=""grid-container"">
        <!-- Grid items will be dynamically added here -->
    </div>    ","null","","","","","","","","","","","",""
"","null","html-keyboard-response","56","92844","0.0-9.0-3.11","VZLXR5QrXu","63c34086cb929e7c9b844a67","6617fad957f7c6a12ea16e26","6622cf0da83cde040ac06e69","feedback screen","null","","","","","","","","","","","",""
"","null","html-keyboard-response","57","93346","0.0-9.0-0.12","VZLXR5QrXu","63c34086cb929e7c9b844a67","6617fad957f7c6a12ea16e26","6622cf0da83cde040ac06e69","fixation cross","null","","","","","","","","","","","",""
"","999","html-keyboard-response","58","94345","0.0-9.0-1.12","VZLXR5QrXu","63c34086cb929e7c9b844a67","6617fad957f7c6a12ea16e26","6622cf0da83cde040ac06e69","image grid","p","","","","","Ontogenetic_Distractor_Nonthreat_target","1800","ongrid","p","6","Phylogenetic","true","practice"
"","null","html-keyboard-response","59","94495","0.0-9.0-2.12","VZLXR5QrXu","63c34086cb929e7c9b844a67","6617fad957f7c6a12ea16e26","6622cf0da83cde040ac06e69","
    <div id=""grid-container"">
        <!-- Grid items will be dynamically added here -->
    </div>    ","null","","","","","","","","","","","",""
"","null","html-keyboard-response","60","95698","0.0-9.0-3.12","VZLXR5QrXu","63c34086cb929e7c9b844a67","6617fad957f7c6a12ea16e26","6622cf0da83cde040ac06e69","feedback screen","null","","","","","","","","","","","",""
"","null","html-keyboard-response","61","96199","0.0-9.0-0.13","VZLXR5QrXu","63c34086cb929e7c9b844a67","6617fad957f7c6a12ea16e26","6622cf0da83cde040ac06e69","fixation cross","null","","","","","","","","","","","",""
"","null","html-keyboard-response","62","97904","0.0-9.0-1.13","VZLXR5QrXu","63c34086cb929e7c9b844a67","6617fad957f7c6a12ea16e26","6622cf0da83cde040ac06e69","
        <div id=""grid-container"">
        <!-- Grid items will be dynamically added here -->
    </div>    ","null","","","","","","","","","","","",""
"","2037","html-keyboard-response","63","98240","0.0-9.0-2.13","VZLXR5QrXu","63c34086cb929e7c9b844a67","6617fad957f7c6a12ea16e26","6622cf0da83cde040ac06e69","mask grid","p","","","","","Phylogenetic_Distractor_Threat_target","1700","onmask","q","9","Phylogenetic","false","practice"
"","null","html-keyboard-response","64","99466","0.0-9.0-3.13","VZLXR5QrXu","63c34086cb929e7c9b844a67","6617fad957f7c6a12ea16e26","6622cf0da83cde040ac06e69","feedback screen","null","","","","","","","","","","","",""
"","null","html-keyboard-response","65","99984","0.0-9.0-0.14","VZLXR5QrXu","63c34086cb929e7c9b844a67","6617fad957f7c6a12ea16e26","6622cf0da83cde040ac06e69","fixation cross","null","","","","","","","","","","","",""
"","1481","html-keyboard-response","66","101465","0.0-9.0-1.14","VZLXR5QrXu","63c34086cb929e7c9b844a67","6617fad957f7c6a12ea16e26","6622cf0da83cde040ac06e69","image grid"," ","","","","","Ontogenetic_Distractor_notarget","1600","ongrid"," ","3","Phylogenetic","true","practice"
"","null","html-keyboard-response","67","101619","0.0-9.0-2.14","VZLXR5QrXu","63c34086cb929e7c9b844a67","6617fad957f7c6a12ea16e26","6622cf0da83cde040ac06e69","
    <div id=""grid-container"">
        <!-- Grid items will be dynamically added here -->
    </div>    ","null","","","","","","","","","","","",""
"","null","html-keyboard-response","68","102828","0.0-9.0-3.14","VZLXR5QrXu","63c34086cb929e7c9b844a67","6617fad957f7c6a12ea16e26","6622cf0da83cde040ac06e69","feedback screen","null","","","","","","","","","","","",""
"","null","html-keyboard-response","69","103330","0.0-9.0-0.15","VZLXR5QrXu","63c34086cb929e7c9b844a67","6617fad957f7c6a12ea16e26","6622cf0da83cde040ac06e69","fixation cross","null","","","","","","","","","","","",""
"","null","html-keyboard-response","70","104838","0.0-9.0-1.15","VZLXR5QrXu","63c34086cb929e7c9b844a67","6617fad957f7c6a12ea16e26","6622cf0da83cde040ac06e69","
        <div id=""grid-container"">
        <!-- Grid items will be dynamically added here -->
    </div>    ","null","","","","","","","","","","","",""
"","2078","html-keyboard-response","71","105416","0.0-9.0-2.15","VZLXR5QrXu","63c34086cb929e7c9b844a67","6617fad957f7c6a12ea16e26","6622cf0da83cde040ac06e69","mask grid"," ","","","","","Phylogenetic_Distractor_Nonthreat_target","1500","onmask","p","9","Phylogenetic","false","practice"
"","null","html-keyboard-response","72","106626","0.0-9.0-3.15","VZLXR5QrXu","63c34086cb929e7c9b844a67","6617fad957f7c6a12ea16e26","6622cf0da83cde040ac06e69","feedback screen","null","","","","","","","","","","","",""
"","null","html-keyboard-response","73","107127","0.0-9.0-0.16","VZLXR5QrXu","63c34086cb929e7c9b844a67","6617fad957f7c6a12ea16e26","6622cf0da83cde040ac06e69","fixation cross","null","","","","","","","","","","","",""
"","null","html-keyboard-response","74","108532","0.0-9.0-1.16","VZLXR5QrXu","63c34086cb929e7c9b844a67","6617fad957f7c6a12ea16e26","6622cf0da83cde040ac06e69","
        <div id=""grid-container"">
        <!-- Grid items will be dynamically added here -->
    </div>    ","null","","","","","","","","","","","",""
"","1908","html-keyboard-response","75","109040","0.0-9.0-2.16","VZLXR5QrXu","63c34086cb929e7c9b844a67","6617fad957f7c6a12ea16e26","6622cf0da83cde040ac06e69","mask grid","q","","","","","Phylogenetic_Distractor_Threat_target","1400","onmask","q","4","Phylogenetic","true","practice"
"","null","html-keyboard-response","76","110256","0.0-9.0-3.16","VZLXR5QrXu","63c34086cb929e7c9b844a67","6617fad957f7c6a12ea16e26","6622cf0da83cde040ac06e69","feedback screen","null","","","","","","","","","","","",""
"","null","html-keyboard-response","77","110757","0.0-9.0-0.17","VZLXR5QrXu","63c34086cb929e7c9b844a67","6617fad957f7c6a12ea16e26","6622cf0da83cde040ac06e69","fixation cross","null","","","","","","","","","","","",""
"","956","html-keyboard-response","78","111712","0.0-9.0-1.17","VZLXR5QrXu","63c34086cb929e7c9b844a67","6617fad957f7c6a12ea16e26","6622cf0da83cde040ac06e69","image grid","p","","","","","Ontogenetic_Distractor_Threat_target","1300","ongrid","q","5","Phylogenetic","false","practice"
"","null","html-keyboard-response","79","111875","0.0-9.0-2.17","VZLXR5QrXu","63c34086cb929e7c9b844a67","6617fad957f7c6a12ea16e26","6622cf0da83cde040ac06e69","
    <div id=""grid-container"">
        <!-- Grid items will be dynamically added here -->
    </div>    ","null","","","","","","","","","","","",""
"","null","html-keyboard-response","80","113077","0.0-9.0-3.17","VZLXR5QrXu","63c34086cb929e7c9b844a67","6617fad957f7c6a12ea16e26","6622cf0da83cde040ac06e69","feedback screen","null","","","","","","","","","","","",""
"","null","html-keyboard-response","81","113578","0.0-9.0-0.18","VZLXR5QrXu","63c34086cb929e7c9b844a67","6617fad957f7c6a12ea16e26","6622cf0da83cde040ac06e69","fixation cross","null","","","","","","","","","","","",""
"","949","html-keyboard-response","82","114529","0.0-9.0-1.18","VZLXR5QrXu","63c34086cb929e7c9b844a67","6617fad957f7c6a12ea16e26","6622cf0da83cde040ac06e69","image grid","p","","","","","Ontogenetic_Distractor_Nonthreat_target","1200","ongrid","p","3","Phylogenetic","true","practice"
"","null","html-keyboard-response","83","114681","0.0-9.0-2.18","VZLXR5QrXu","63c34086cb929e7c9b844a67","6617fad957f7c6a12ea16e26","6622cf0da83cde040ac06e69","
    <div id=""grid-container"">
        <!-- Grid items will be dynamically added here -->
    </div>    ","null","","","","","","","","","","","",""
"","null","html-keyboard-response","84","115883","0.0-9.0-3.18","VZLXR5QrXu","63c34086cb929e7c9b844a67","6617fad957f7c6a12ea16e26","6622cf0da83cde040ac06e69","feedback screen","null","","","","","","","","","","","",""
"","null","html-keyboard-response","85","116384","0.0-9.0-0.19","VZLXR5QrXu","63c34086cb929e7c9b844a67","6617fad957f7c6a12ea16e26","6622cf0da83cde040ac06e69","fixation cross","null","","","","","","","","","","","",""
"","null","html-keyboard-response","86","117487","0.0-9.0-1.19","VZLXR5QrXu","63c34086cb929e7c9b844a67","6617fad957f7c6a12ea16e26","6622cf0da83cde040ac06e69","
        <div id=""grid-container"">
        <!-- Grid items will be dynamically added here -->
    </div>    ","null","","","","","","","","","","","",""
"","1630","html-keyboard-response","87","118017","0.0-9.0-2.19","VZLXR5QrXu","63c34086cb929e7c9b844a67","6617fad957f7c6a12ea16e26","6622cf0da83cde040ac06e69","mask grid"," ","","","","","Phylogenetic_Distractor_Threat_target","1100","onmask","q","7","Phylogenetic","false","practice"
"","null","html-keyboard-response","88","119235","0.0-9.0-3.19","VZLXR5QrXu","63c34086cb929e7c9b844a67","6617fad957f7c6a12ea16e26","6622cf0da83cde040ac06e69","feedback screen","null","","","","","","","","","","","",""
"","3029","html-keyboard-response","89","122265","0.0-10.0","VZLXR5QrXu","63c34086cb929e7c9b844a67","6617fad957f7c6a12ea16e26","6622cf0da83cde040ac06e69","pre-experimental_briefing"," ","","","","","","","","","","","",""
"","null","html-keyboard-response","90","124770","0.0-11.0-0.0","VZLXR5QrXu","63c34086cb929e7c9b844a67","6617fad957f7c6a12ea16e26","6622cf0da83cde040ac06e69","fixation cross","null","","","","","","","","","","","",""
"","1494","html-keyboard-response","91","126265","0.0-11.0-1.0","VZLXR5QrXu","63c34086cb929e7c9b844a67","6617fad957f7c6a12ea16e26","6622cf0da83cde040ac06e69","image grid","p","","","","","Phylogenetic_Distractor_Threat_target","2500","ongrid","q","9","Phylogenetic","false","experimental"
"","null","html-keyboard-response","92","126419","0.0-11.0-2.0","VZLXR5QrXu","63c34086cb929e7c9b844a67","6617fad957f7c6a12ea16e26","6622cf0da83cde040ac06e69","
    <div id=""grid-container"">
        <!-- Grid items will be dynamically added here -->
    </div>    ","null","","","","","","","","","","","",""
"","null","html-keyboard-response","93","127137","0.0-11.0-0.1","VZLXR5QrXu","63c34086cb929e7c9b844a67","6617fad957f7c6a12ea16e26","6622cf0da83cde040ac06e69","fixation cross","null","","","","","","","","","","","",""
"","1719","html-keyboard-response","94","128856","0.0-11.0-1.1","VZLXR5QrXu","63c34086cb929e7c9b844a67","6617fad957f7c6a12ea16e26","6622cf0da83cde040ac06e69","image grid"," ","","","","","Phylogenetic_Distractor_Nonthreat_target","2500","ongrid","p","7","Phylogenetic","false","experimental"
"","null","html-keyboard-response","95","129010","0.0-11.0-2.1","VZLXR5QrXu","63c34086cb929e7c9b844a67","6617fad957f7c6a12ea16e26","6622cf0da83cde040ac06e69","
    <div id=""grid-container"">
        <!-- Grid items will be dynamically added here -->
    </div>    ","null","","","","","","","","","","","",""
"","null","html-keyboard-response","96","129718","0.0-11.0-0.2","VZLXR5QrXu","63c34086cb929e7c9b844a67","6617fad957f7c6a12ea16e26","6622cf0da83cde040ac06e69","fixation cross","null","","","","","","","","","","","",""
"","1618","html-keyboard-response","97","131336","0.0-11.0-1.2","VZLXR5QrXu","63c34086cb929e7c9b844a67","6617fad957f7c6a12ea16e26","6622cf0da83cde040ac06e69","image grid","p","","","","","Phylogenetic_Distractor_Threat_target","2500","ongrid","q","8","Phylogenetic","false","experimental"
"","null","html-keyboard-response","98","131490","0.0-11.0-2.2","VZLXR5QrXu","63c34086cb929e7c9b844a67","6617fad957f7c6a12ea16e26","6622cf0da83cde040ac06e69","
    <div id=""grid-container"">
        <!-- Grid items will be dynamically added here -->
    </div>    ","null","","","","","","","","","","","",""
"","null","html-keyboard-response","99","132191","0.0-11.0-0.3","VZLXR5QrXu","63c34086cb929e7c9b844a67","6617fad957f7c6a12ea16e26","6622cf0da83cde040ac06e69","fixation cross","null","","","","","","","","","","","",""
"","1441","html-keyboard-response","100","133632","0.0-11.0-1.3","VZLXR5QrXu","63c34086cb929e7c9b844a67","6617fad957f7c6a12ea16e26","6622cf0da83cde040ac06e69","image grid","q","","","","","Phylogenetic_Distractor_Threat_target","2500","ongrid","q","2","Phylogenetic","true","experimental"
"","null","html-keyboard-response","101","133795","0.0-11.0-2.3","VZLXR5QrXu","63c34086cb929e7c9b844a67","6617fad957f7c6a12ea16e26","6622cf0da83cde040ac06e69","
    <div id=""grid-container"">
        <!-- Grid items will be dynamically added here -->
    </div>    ","null","","","","","","","","","","","",""
"","null","html-keyboard-response","102","134497","0.0-11.0-0.4","VZLXR5QrXu","63c34086cb929e7c9b844a67","6617fad957f7c6a12ea16e26","6622cf0da83cde040ac06e69","fixation cross","null","","","","","","","","","","","",""
"","1384","html-keyboard-response","103","135880","0.0-11.0-1.4","VZLXR5QrXu","63c34086cb929e7c9b844a67","6617fad957f7c6a12ea16e26","6622cf0da83cde040ac06e69","image grid","p","","","","","Phylogenetic_Distractor_Nonthreat_target","2500","ongrid","p","2","Phylogenetic","true","experimental"
"","null","html-keyboard-response","104","136033","0.0-11.0-2.4","VZLXR5QrXu","63c34086cb929e7c9b844a67","6617fad957f7c6a12ea16e26","6622cf0da83cde040ac06e69","
    <div id=""grid-container"">
        <!-- Grid items will be dynamically added here -->
    </div>    ","null","","","","","","","","","","","",""
"","null","html-keyboard-response","105","136750","0.0-11.0-0.5","VZLXR5QrXu","63c34086cb929e7c9b844a67","6617fad957f7c6a12ea16e26","6622cf0da83cde040ac06e69","fixation cross","null","","","","","","","","","","","",""
"","1330","html-keyboard-response","106","138080","0.0-11.0-1.5","VZLXR5QrXu","63c34086cb929e7c9b844a67","6617fad957f7c6a12ea16e26","6622cf0da83cde040ac06e69","image grid","q","","","","","Phylogenetic_Distractor_Threat_target","2500","ongrid","q","9","Phylogenetic","true","experimental"
"","null","html-keyboard-response","107","138238","0.0-11.0-2.5","VZLXR5QrXu","63c34086cb929e7c9b844a67","6617fad957f7c6a12ea16e26","6622cf0da83cde040ac06e69","
    <div id=""grid-container"">
        <!-- Grid items will be dynamically added here -->
    </div>    ","null","","","","","","","","","","","",""
"","null","html-keyboard-response","108","138940","0.0-11.0-0.6","VZLXR5QrXu","63c34086cb929e7c9b844a67","6617fad957f7c6a12ea16e26","6622cf0da83cde040ac06e69","fixation cross","null","","","","","","","","","","","",""
"","843","html-keyboard-response","109","139784","0.0-11.0-1.6","VZLXR5QrXu","63c34086cb929e7c9b844a67","6617fad957f7c6a12ea16e26","6622cf0da83cde040ac06e69","image grid","q","","","","","Phylogenetic_Distractor_Threat_target","2500","ongrid","q","9","Phylogenetic","true","experimental"
"","null","html-keyboard-response","110","139943","0.0-11.0-2.6","VZLXR5QrXu","63c34086cb929e7c9b844a67","6617fad957f7c6a12ea16e26","6622cf0da83cde040ac06e69","
    <div id=""grid-container"">
        <!-- Grid items will be dynamically added here -->
    </div>    ","null","","","","","","","","","","","",""
"","null","html-keyboard-response","111","140644","0.0-11.0-0.7","VZLXR5QrXu","63c34086cb929e7c9b844a67","6617fad957f7c6a12ea16e26","6622cf0da83cde040ac06e69","fixation cross","null","","","","","","","","","","","",""
"","1340","html-keyboard-response","112","141985","0.0-11.0-1.7","VZLXR5QrXu","63c34086cb929e7c9b844a67","6617fad957f7c6a12ea16e26","6622cf0da83cde040ac06e69","image grid","q","","","","","Phylogenetic_Distractor_Threat_target","2500","ongrid","q","6","Phylogenetic","true","experimental"
"","null","html-keyboard-response","113","142148","0.0-11.0-2.7","VZLXR5QrXu","63c34086cb929e7c9b844a67","6617fad957f7c6a12ea16e26","6622cf0da83cde040ac06e69","
    <div id=""grid-container"">
        <!-- Grid items will be dynamically added here -->
    </div>    ","null","","","","","","","","","","","",""
"","null","html-keyboard-response","114","142850","0.0-11.0-0.8","VZLXR5QrXu","63c34086cb929e7c9b844a67","6617fad957f7c6a12ea16e26","6622cf0da83cde040ac06e69","fixation cross","null","","","","","","","","","","","",""
"","1654","html-keyboard-response","115","144506","0.0-11.0-1.8","VZLXR5QrXu","63c34086cb929e7c9b844a67","6617fad957f7c6a12ea16e26","6622cf0da83cde040ac06e69","image grid"," ","","","","","Phylogenetic_Distractor_notarget","2500","ongrid"," ","6","Phylogenetic","true","experimental"
"","null","html-keyboard-response","116","144660","0.0-11.0-2.8","VZLXR5QrXu","63c34086cb929e7c9b844a67","6617fad957f7c6a12ea16e26","6622cf0da83cde040ac06e69","
    <div id=""grid-container"">
        <!-- Grid items will be dynamically added here -->
    </div>    ","null","","","","","","","","","","","",""
"","null","html-keyboard-response","117","145361","0.0-11.0-0.9","VZLXR5QrXu","63c34086cb929e7c9b844a67","6617fad957f7c6a12ea16e26","6622cf0da83cde040ac06e69","fixation cross","null","","","","","","","","","","","",""
"","1615","html-keyboard-response","118","146976","0.0-11.0-1.9","VZLXR5QrXu","63c34086cb929e7c9b844a67","6617fad957f7c6a12ea16e26","6622cf0da83cde040ac06e69","image grid","p","","","","","Phylogenetic_Distractor_Nonthreat_target","2500","ongrid","p","8","Phylogenetic","true","experimental"
"","null","html-keyboard-response","119","147135","0.0-11.0-2.9","VZLXR5QrXu","63c34086cb929e7c9b844a67","6617fad957f7c6a12ea16e26","6622cf0da83cde040ac06e69","
    <div id=""grid-container"">
        <!-- Grid items will be dynamically added here -->
    </div>    ","null","","","","","","","","","","","",""
"","null","html-keyboard-response","120","147838","0.0-11.0-0.10","VZLXR5QrXu","63c34086cb929e7c9b844a67","6617fad957f7c6a12ea16e26","6622cf0da83cde040ac06e69","fixation cross","null","","","","","","","","","","","",""
"","2291","html-keyboard-response","121","150129","0.0-11.0-1.10","VZLXR5QrXu","63c34086cb929e7c9b844a67","6617fad957f7c6a12ea16e26","6622cf0da83cde040ac06e69","image grid"," ","","","","","Phylogenetic_Distractor_notarget","2500","ongrid"," ","7","Phylogenetic","true","experimental"
"","null","html-keyboard-response","122","150290","0.0-11.0-2.10","VZLXR5QrXu","63c34086cb929e7c9b844a67","6617fad957f7c6a12ea16e26","6622cf0da83cde040ac06e69","
    <div id=""grid-container"">
        <!-- Grid items will be dynamically added here -->
    </div>    ","null","","","","","","","","","","","",""
"","null","html-keyboard-response","123","150992","0.0-11.0-0.11","VZLXR5QrXu","63c34086cb929e7c9b844a67","6617fad957f7c6a12ea16e26","6622cf0da83cde040ac06e69","fixation cross","null","","","","","","","","","","","",""
"","1178","html-keyboard-response","124","152169","0.0-11.0-1.11","VZLXR5QrXu","63c34086cb929e7c9b844a67","6617fad957f7c6a12ea16e26","6622cf0da83cde040ac06e69","image grid","q","","","","","Phylogenetic_Distractor_Threat_target","2500","ongrid","q","6","Phylogenetic","true","experimental"
"","null","html-keyboard-response","125","152331","0.0-11.0-2.11","VZLXR5QrXu","63c34086cb929e7c9b844a67","6617fad957f7c6a12ea16e26","6622cf0da83cde040ac06e69","
    <div id=""grid-container"">
        <!-- Grid items will be dynamically added here -->
    </div>    ","null","","","","","","","","","","","",""
"","null","html-keyboard-response","126","153032","0.0-11.0-0.12","VZLXR5QrXu","63c34086cb929e7c9b844a67","6617fad957f7c6a12ea16e26","6622cf0da83cde040ac06e69","fixation cross","null","","","","","","","","","","","",""
"","1063","html-keyboard-response","127","154096","0.0-11.0-1.12","VZLXR5QrXu","63c34086cb929e7c9b844a67","6617fad957f7c6a12ea16e26","6622cf0da83cde040ac06e69","image grid","q","","","","","Phylogenetic_Distractor_Threat_target","2500","ongrid","q","8","Phylogenetic","true","experimental"
"","null","html-keyboard-response","128","154273","0.0-11.0-2.12","VZLXR5QrXu","63c34086cb929e7c9b844a67","6617fad957f7c6a12ea16e26","6622cf0da83cde040ac06e69","
    <div id=""grid-container"">
        <!-- Grid items will be dynamically added here -->
    </div>    ","null","","","","","","","","","","","",""
"","null","html-keyboard-response","129","154981","0.0-11.0-0.13","VZLXR5QrXu","63c34086cb929e7c9b844a67","6617fad957f7c6a12ea16e26","6622cf0da83cde040ac06e69","fixation cross","null","","","","","","","","","","","",""
"","1052","html-keyboard-response","130","156033","0.0-11.0-1.13","VZLXR5QrXu","63c34086cb929e7c9b844a67","6617fad957f7c6a12ea16e26","6622cf0da83cde040ac06e69","image grid","p","","","","","Phylogenetic_Distractor_Nonthreat_target","2500","ongrid","p","9","Phylogenetic","true","experimental"
"","null","html-keyboard-response","131","156189","0.0-11.0-2.13","VZLXR5QrXu","63c34086cb929e7c9b844a67","6617fad957f7c6a12ea16e26","6622cf0da83cde040ac06e69","
    <div id=""grid-container"">
        <!-- Grid items will be dynamically added here -->
    </div>    ","null","","","","","","","","","","","",""
"","null","html-keyboard-response","132","156907","0.0-11.0-0.14","VZLXR5QrXu","63c34086cb929e7c9b844a67","6617fad957f7c6a12ea16e26","6622cf0da83cde040ac06e69","fixation cross","null","","","","","","","","","","","",""
"","1013","html-keyboard-response","133","157920","0.0-11.0-1.14","VZLXR5QrXu","63c34086cb929e7c9b844a67","6617fad957f7c6a12ea16e26","6622cf0da83cde040ac06e69","image grid","q","","","","","Phylogenetic_Distractor_Threat_target","2500","ongrid","q","7","Phylogenetic","true","experimental"
"","null","html-keyboard-response","134","158075","0.0-11.0-2.14","VZLXR5QrXu","63c34086cb929e7c9b844a67","6617fad957f7c6a12ea16e26","6622cf0da83cde040ac06e69","
    <div id=""grid-container"">
        <!-- Grid items will be dynamically added here -->
    </div>    ","null","","","","","","","","","","","",""
"","null","html-keyboard-response","135","158789","0.0-11.0-0.15","VZLXR5QrXu","63c34086cb929e7c9b844a67","6617fad957f7c6a12ea16e26","6622cf0da83cde040ac06e69","fixation cross","null","","","","","","","","","","","",""
"","1699","html-keyboard-response","136","160489","0.0-11.0-1.15","VZLXR5QrXu","63c34086cb929e7c9b844a67","6617fad957f7c6a12ea16e26","6622cf0da83cde040ac06e69","image grid","p","","","","","Phylogenetic_Distractor_Nonthreat_target","2500","ongrid","p","5","Phylogenetic","true","experimental"
"","null","html-keyboard-response","137","160646","0.0-11.0-2.15","VZLXR5QrXu","63c34086cb929e7c9b844a67","6617fad957f7c6a12ea16e26","6622cf0da83cde040ac06e69","
    <div id=""grid-container"">
        <!-- Grid items will be dynamically added here -->
    </div>    ","null","","","","","","","","","","","",""
"","null","html-keyboard-response","138","161347","0.0-11.0-0.16","VZLXR5QrXu","63c34086cb929e7c9b844a67","6617fad957f7c6a12ea16e26","6622cf0da83cde040ac06e69","fixation cross","null","","","","","","","","","","","",""
"","1317","html-keyboard-response","139","162665","0.0-11.0-1.16","VZLXR5QrXu","63c34086cb929e7c9b844a67","6617fad957f7c6a12ea16e26","6622cf0da83cde040ac06e69","image grid","p","","","","","Phylogenetic_Distractor_Nonthreat_target","2500","ongrid","p","7","Phylogenetic","true","experimental"
"","null","html-keyboard-response","140","162819","0.0-11.0-2.16","VZLXR5QrXu","63c34086cb929e7c9b844a67","6617fad957f7c6a12ea16e26","6622cf0da83cde040ac06e69","
    <div id=""grid-container"">
        <!-- Grid items will be dynamically added here -->
    </div>    ","null","","","","","","","","","","","",""
"","null","html-keyboard-response","141","163521","0.0-11.0-0.17","VZLXR5QrXu","63c34086cb929e7c9b844a67","6617fad957f7c6a12ea16e26","6622cf0da83cde040ac06e69","fixation cross","null","","","","","","","","","","","",""
"","1079","html-keyboard-response","142","164600","0.0-11.0-1.17","VZLXR5QrXu","63c34086cb929e7c9b844a67","6617fad957f7c6a12ea16e26","6622cf0da83cde040ac06e69","image grid","p","","","","","Phylogenetic_Distractor_Nonthreat_target","2500","ongrid","p","6","Phylogenetic","true","experimental"
"","null","html-keyboard-response","143","164754","0.0-11.0-2.17","VZLXR5QrXu","63c34086cb929e7c9b844a67","6617fad957f7c6a12ea16e26","6622cf0da83cde040ac06e69","
    <div id=""grid-container"">
        <!-- Grid items will be dynamically added here -->
    </div>    ","null","","","","","","","","","","","",""
"","null","html-keyboard-response","144","165477","0.0-11.0-0.18","VZLXR5QrXu","63c34086cb929e7c9b844a67","6617fad957f7c6a12ea16e26","6622cf0da83cde040ac06e69","fixation cross","null","","","","","","","","","","","",""
"","1731","html-keyboard-response","145","167208","0.0-11.0-1.18","VZLXR5QrXu","63c34086cb929e7c9b844a67","6617fad957f7c6a12ea16e26","6622cf0da83cde040ac06e69","image grid","p","","","","","Phylogenetic_Distractor_Nonthreat_target","2500","ongrid","p","3","Phylogenetic","true","experimental"
"","null","html-keyboard-response","146","167361","0.0-11.0-2.18","VZLXR5QrXu","63c34086cb929e7c9b844a67","6617fad957f7c6a12ea16e26","6622cf0da83cde040ac06e69","
    <div id=""grid-container"">
        <!-- Grid items will be dynamically added here -->
    </div>    ","null","","","","","","","","","","","",""
"","null","html-keyboard-response","147","168062","0.0-11.0-0.19","VZLXR5QrXu","63c34086cb929e7c9b844a67","6617fad957f7c6a12ea16e26","6622cf0da83cde040ac06e69","fixation cross","null","","","","","","","","","","","",""
"","1274","html-keyboard-response","148","169336","0.0-11.0-1.19","VZLXR5QrXu","63c34086cb929e7c9b844a67","6617fad957f7c6a12ea16e26","6622cf0da83cde040ac06e69","image grid","p","","","","","Phylogenetic_Distractor_Nonthreat_target","2500","ongrid","p","3","Phylogenetic","true","experimental"
"","null","html-keyboard-response","149","169487","0.0-11.0-2.19","VZLXR5QrXu","63c34086cb929e7c9b844a67","6617fad957f7c6a12ea16e26","6622cf0da83cde040ac06e69","
    <div id=""grid-container"">
        <!-- Grid items will be dynamically added here -->
    </div>    ","null","","","","","","","","","","","",""
"","null","html-keyboard-response","150","170189","0.0-11.0-0.20","VZLXR5QrXu","63c34086cb929e7c9b844a67","6617fad957f7c6a12ea16e26","6622cf0da83cde040ac06e69","fixation cross","null","","","","","","","","","","","",""
"","2035","html-keyboard-response","151","172225","0.0-11.0-1.20","VZLXR5QrXu","63c34086cb929e7c9b844a67","6617fad957f7c6a12ea16e26","6622cf0da83cde040ac06e69","image grid","p","","","","","Phylogenetic_Distractor_Nonthreat_target","2500","ongrid","p","5","Phylogenetic","true","experimental"
"","null","html-keyboard-response","152","172395","0.0-11.0-2.20","VZLXR5QrXu","63c34086cb929e7c9b844a67","6617fad957f7c6a12ea16e26","6622cf0da83cde040ac06e69","
    <div id=""grid-container"">
        <!-- Grid items will be dynamically added here -->
    </div>    ","null","","","","","","","","","","","",""
"","null","html-keyboard-response","153","173097","0.0-11.0-0.21","VZLXR5QrXu","63c34086cb929e7c9b844a67","6617fad957f7c6a12ea16e26","6622cf0da83cde040ac06e69","fixation cross","null","","","","","","","","","","","",""
"","855","html-keyboard-response","154","173953","0.0-11.0-1.21","VZLXR5QrXu","63c34086cb929e7c9b844a67","6617fad957f7c6a12ea16e26","6622cf0da83cde040ac06e69","image grid","p","","","","","Phylogenetic_Distractor_Nonthreat_target","2500","ongrid","p","4","Phylogenetic","true","experimental"
"","null","html-keyboard-response","155","174116","0.0-11.0-2.21","VZLXR5QrXu","63c34086cb929e7c9b844a67","6617fad957f7c6a12ea16e26","6622cf0da83cde040ac06e69","
    <div id=""grid-container"">
        <!-- Grid items will be dynamically added here -->
    </div>    ","null","","","","","","","","","","","",""
"","null","html-keyboard-response","156","174817","0.0-11.0-0.22","VZLXR5QrXu","63c34086cb929e7c9b844a67","6617fad957f7c6a12ea16e26","6622cf0da83cde040ac06e69","fixation cross","null","","","","","","","","","","","",""
"","1270","html-keyboard-response","157","176088","0.0-11.0-1.22","VZLXR5QrXu","63c34086cb929e7c9b844a67","6617fad957f7c6a12ea16e26","6622cf0da83cde040ac06e69","image grid","p","","","","","Phylogenetic_Distractor_Nonthreat_target","2500","ongrid","p","4","Phylogenetic","true","experimental"
"","null","html-keyboard-response","158","176242","0.0-11.0-2.22","VZLXR5QrXu","63c34086cb929e7c9b844a67","6617fad957f7c6a12ea16e26","6622cf0da83cde040ac06e69","
    <div id=""grid-container"">
        <!-- Grid items will be dynamically added here -->
    </div>    ","null","","","","","","","","","","","",""
"","null","html-keyboard-response","159","176944","0.0-11.0-0.23","VZLXR5QrXu","63c34086cb929e7c9b844a67","6617fad957f7c6a12ea16e26","6622cf0da83cde040ac06e69","fixation cross","null","","","","","","","","","","","",""
"","2072","html-keyboard-response","160","179016","0.0-11.0-1.23","VZLXR5QrXu","63c34086cb929e7c9b844a67","6617fad957f7c6a12ea16e26","6622cf0da83cde040ac06e69","image grid","q","","","","","Phylogenetic_Distractor_Threat_target","2500","ongrid","q","7","Phylogenetic","true","experimental"
"","null","html-keyboard-response","161","179171","0.0-11.0-2.23","VZLXR5QrXu","63c34086cb929e7c9b844a67","6617fad957f7c6a12ea16e26","6622cf0da83cde040ac06e69","
    <div id=""grid-container"">
        <!-- Grid items will be dynamically added here -->
    </div>    ","null","","","","","","","","","","","",""
"","null","html-keyboard-response","162","179873","0.0-11.0-0.24","VZLXR5QrXu","63c34086cb929e7c9b844a67","6617fad957f7c6a12ea16e26","6622cf0da83cde040ac06e69","fixation cross","null","","","","","","","","","","","",""
"","928","html-keyboard-response","163","180801","0.0-11.0-1.24","VZLXR5QrXu","63c34086cb929e7c9b844a67","6617fad957f7c6a12ea16e26","6622cf0da83cde040ac06e69","image grid","q","","","","","Phylogenetic_Distractor_Threat_target","2500","ongrid","q","5","Phylogenetic","true","experimental"
"","null","html-keyboard-response","164","180959","0.0-11.0-2.24","VZLXR5QrXu","63c34086cb929e7c9b844a67","6617fad957f7c6a12ea16e26","6622cf0da83cde040ac06e69","
    <div id=""grid-container"">
        <!-- Grid items will be dynamically added here -->
    </div>    ","null","","","","","","","","","","","",""
"","null","html-keyboard-response","165","181660","0.0-11.0-0.25","VZLXR5QrXu","63c34086cb929e7c9b844a67","6617fad957f7c6a12ea16e26","6622cf0da83cde040ac06e69","fixation cross","null","","","","","","","","","","","",""
"","1020","html-keyboard-response","166","182680","0.0-11.0-1.25","VZLXR5QrXu","63c34086cb929e7c9b844a67","6617fad957f7c6a12ea16e26","6622cf0da83cde040ac06e69","image grid","p","","","","","Phylogenetic_Distractor_Nonthreat_target","2500","ongrid","p","7","Phylogenetic","true","experimental"
"","null","html-keyboard-response","167","182845","0.0-11.0-2.25","VZLXR5QrXu","63c34086cb929e7c9b844a67","6617fad957f7c6a12ea16e26","6622cf0da83cde040ac06e69","
    <div id=""grid-container"">
        <!-- Grid items will be dynamically added here -->
    </div>    ","null","","","","","","","","","","","",""
"","null","html-keyboard-response","168","183565","0.0-11.0-0.26","VZLXR5QrXu","63c34086cb929e7c9b844a67","6617fad957f7c6a12ea16e26","6622cf0da83cde040ac06e69","fixation cross","null","","","","","","","","","","","",""
"","1235","html-keyboard-response","169","184800","0.0-11.0-1.26","VZLXR5QrXu","63c34086cb929e7c9b844a67","6617fad957f7c6a12ea16e26","6622cf0da83cde040ac06e69","image grid","p","","","","","Phylogenetic_Distractor_Nonthreat_target","2500","ongrid","p","8","Phylogenetic","true","experimental"
"","null","html-keyboard-response","170","184968","0.0-11.0-2.26","VZLXR5QrXu","63c34086cb929e7c9b844a67","6617fad957f7c6a12ea16e26","6622cf0da83cde040ac06e69","
    <div id=""grid-container"">
        <!-- Grid items will be dynamically added here -->
    </div>    ","null","","","","","","","","","","","",""
"","null","html-keyboard-response","171","185670","0.0-11.0-0.27","VZLXR5QrXu","63c34086cb929e7c9b844a67","6617fad957f7c6a12ea16e26","6622cf0da83cde040ac06e69","fixation cross","null","","","","","","","","","","","",""
"","1722","html-keyboard-response","172","187392","0.0-11.0-1.27","VZLXR5QrXu","63c34086cb929e7c9b844a67","6617fad957f7c6a12ea16e26","6622cf0da83cde040ac06e69","image grid"," ","","","","","Phylogenetic_Distractor_Threat_target","2500","ongrid","q","2","Phylogenetic","false","experimental"
"","null","html-keyboard-response","173","187554","0.0-11.0-2.27","VZLXR5QrXu","63c34086cb929e7c9b844a67","6617fad957f7c6a12ea16e26","6622cf0da83cde040ac06e69","
    <div id=""grid-container"">
        <!-- Grid items will be dynamically added here -->
    </div>    ","null","","","","","","","","","","","",""
"","null","html-keyboard-response","174","188255","0.0-11.0-0.28","VZLXR5QrXu","63c34086cb929e7c9b844a67","6617fad957f7c6a12ea16e26","6622cf0da83cde040ac06e69","fixation cross","null","","","","","","","","","","","",""
"","1289","html-keyboard-response","175","189543","0.0-11.0-1.28","VZLXR5QrXu","63c34086cb929e7c9b844a67","6617fad957f7c6a12ea16e26","6622cf0da83cde040ac06e69","image grid","p","","","","","Phylogenetic_Distractor_Nonthreat_target","2500","ongrid","p","6","Phylogenetic","true","experimental"
"","null","html-keyboard-response","176","189696","0.0-11.0-2.28","VZLXR5QrXu","63c34086cb929e7c9b844a67","6617fad957f7c6a12ea16e26","6622cf0da83cde040ac06e69","
    <div id=""grid-container"">
        <!-- Grid items will be dynamically added here -->
    </div>    ","null","","","","","","","","","","","",""
"","null","html-keyboard-response","177","190401","0.0-11.0-0.29","VZLXR5QrXu","63c34086cb929e7c9b844a67","6617fad957f7c6a12ea16e26","6622cf0da83cde040ac06e69","fixation cross","null","","","","","","","","","","","",""
"","1159","html-keyboard-response","178","191560","0.0-11.0-1.29","VZLXR5QrXu","63c34086cb929e7c9b844a67","6617fad957f7c6a12ea16e26","6622cf0da83cde040ac06e69","image grid","q","","","","","Phylogenetic_Distractor_Threat_target","2500","ongrid","q","7","Phylogenetic","true","experimental"
"","null","html-keyboard-response","179","191720","0.0-11.0-2.29","VZLXR5QrXu","63c34086cb929e7c9b844a67","6617fad957f7c6a12ea16e26","6622cf0da83cde040ac06e69","
    <div id=""grid-container"">
        <!-- Grid items will be dynamically added here -->
    </div>    ","null","","","","","","","","","","","",""
"","null","html-keyboard-response","180","192422","0.0-11.0-0.30","VZLXR5QrXu","63c34086cb929e7c9b844a67","6617fad957f7c6a12ea16e26","6622cf0da83cde040ac06e69","fixation cross","null","","","","","","","","","","","",""
"","1243","html-keyboard-response","181","193665","0.0-11.0-1.30","VZLXR5QrXu","63c34086cb929e7c9b844a67","6617fad957f7c6a12ea16e26","6622cf0da83cde040ac06e69","image grid","p","","","","","Phylogenetic_Distractor_Nonthreat_target","2500","ongrid","p","6","Phylogenetic","true","experimental"
"","null","html-keyboard-response","182","193825","0.0-11.0-2.30","VZLXR5QrXu","63c34086cb929e7c9b844a67","6617fad957f7c6a12ea16e26","6622cf0da83cde040ac06e69","
    <div id=""grid-container"">
        <!-- Grid items will be dynamically added here -->
    </div>    ","null","","","","","","","","","","","",""
"","null","html-keyboard-response","183","194526","0.0-11.0-0.31","VZLXR5QrXu","63c34086cb929e7c9b844a67","6617fad957f7c6a12ea16e26","6622cf0da83cde040ac06e69","fixation cross","null","","","","","","","","","","","",""
"","1392","html-keyboard-response","184","195920","0.0-11.0-1.31","VZLXR5QrXu","63c34086cb929e7c9b844a67","6617fad957f7c6a12ea16e26","6622cf0da83cde040ac06e69","image grid","q","","","","","Phylogenetic_Distractor_Threat_target","2500","ongrid","q","6","Phylogenetic","true","experimental"
"","null","html-keyboard-response","185","196073","0.0-11.0-2.31","VZLXR5QrXu","63c34086cb929e7c9b844a67","6617fad957f7c6a12ea16e26","6622cf0da83cde040ac06e69","
    <div id=""grid-container"">
        <!-- Grid items will be dynamically added here -->
    </div>    ","null","","","","","","","","","","","",""
"","null","html-keyboard-response","186","196790","0.0-11.0-0.32","VZLXR5QrXu","63c34086cb929e7c9b844a67","6617fad957f7c6a12ea16e26","6622cf0da83cde040ac06e69","fixation cross","null","","","","","","","","","","","",""
"","1385","html-keyboard-response","187","198176","0.0-11.0-1.32","VZLXR5QrXu","63c34086cb929e7c9b844a67","6617fad957f7c6a12ea16e26","6622cf0da83cde040ac06e69","image grid","q","","","","","Phylogenetic_Distractor_Threat_target","2500","ongrid","q","9","Phylogenetic","true","experimental"
"","null","html-keyboard-response","188","198331","0.0-11.0-2.32","VZLXR5QrXu","63c34086cb929e7c9b844a67","6617fad957f7c6a12ea16e26","6622cf0da83cde040ac06e69","
    <div id=""grid-container"">
        <!-- Grid items will be dynamically added here -->
    </div>    ","null","","","","","","","","","","","",""
"","null","html-keyboard-response","189","199032","0.0-11.0-0.33","VZLXR5QrXu","63c34086cb929e7c9b844a67","6617fad957f7c6a12ea16e26","6622cf0da83cde040ac06e69","fixation cross","null","","","","","","","","","","","",""
"","1664","html-keyboard-response","190","200697","0.0-11.0-1.33","VZLXR5QrXu","63c34086cb929e7c9b844a67","6617fad957f7c6a12ea16e26","6622cf0da83cde040ac06e69","image grid","q","","","","","Phylogenetic_Distractor_Threat_target","2500","ongrid","q","4","Phylogenetic","true","experimental"
"","null","html-keyboard-response","191","200858","0.0-11.0-2.33","VZLXR5QrXu","63c34086cb929e7c9b844a67","6617fad957f7c6a12ea16e26","6622cf0da83cde040ac06e69","
    <div id=""grid-container"">
        <!-- Grid items will be dynamically added here -->
    </div>    ","null","","","","","","","","","","","",""
"","null","html-keyboard-response","192","201560","0.0-11.0-0.34","VZLXR5QrXu","63c34086cb929e7c9b844a67","6617fad957f7c6a12ea16e26","6622cf0da83cde040ac06e69","fixation cross","null","","","","","","","","","","","",""
"","1024","html-keyboard-response","193","202585","0.0-11.0-1.34","VZLXR5QrXu","63c34086cb929e7c9b844a67","6617fad957f7c6a12ea16e26","6622cf0da83cde040ac06e69","image grid","q","","","","","Phylogenetic_Distractor_Threat_target","2500","ongrid","q","2","Phylogenetic","true","experimental"
"","null","html-keyboard-response","194","202747","0.0-11.0-2.34","VZLXR5QrXu","63c34086cb929e7c9b844a67","6617fad957f7c6a12ea16e26","6622cf0da83cde040ac06e69","
    <div id=""grid-container"">
        <!-- Grid items will be dynamically added here -->
    </div>    ","null","","","","","","","","","","","",""
"","null","html-keyboard-response","195","203448","0.0-11.0-0.35","VZLXR5QrXu","63c34086cb929e7c9b844a67","6617fad957f7c6a12ea16e26","6622cf0da83cde040ac06e69","fixation cross","null","","","","","","","","","","","",""
"","991","html-keyboard-response","196","204440","0.0-11.0-1.35","VZLXR5QrXu","63c34086cb929e7c9b844a67","6617fad957f7c6a12ea16e26","6622cf0da83cde040ac06e69","image grid","p","","","","","Phylogenetic_Distractor_Nonthreat_target","2500","ongrid","p","6","Phylogenetic","true","experimental"
"","null","html-keyboard-response","197","204597","0.0-11.0-2.35","VZLXR5QrXu","63c34086cb929e7c9b844a67","6617fad957f7c6a12ea16e26","6622cf0da83cde040ac06e69","
    <div id=""grid-container"">
        <!-- Grid items will be dynamically added here -->
    </div>    ","null","","","","","","","","","","","",""
"","null","html-keyboard-response","198","205314","0.0-11.0-0.36","VZLXR5QrXu","63c34086cb929e7c9b844a67","6617fad957f7c6a12ea16e26","6622cf0da83cde040ac06e69","fixation cross","null","","","","","","","","","","","",""
"","1925","html-keyboard-response","199","207240","0.0-11.0-1.36","VZLXR5QrXu","63c34086cb929e7c9b844a67","6617fad957f7c6a12ea16e26","6622cf0da83cde040ac06e69","image grid"," ","","","","","Phylogenetic_Distractor_Threat_target","2500","ongrid","q","8","Phylogenetic","false","experimental"
"","null","html-keyboard-response","200","207395","0.0-11.0-2.36","VZLXR5QrXu","63c34086cb929e7c9b844a67","6617fad957f7c6a12ea16e26","6622cf0da83cde040ac06e69","
    <div id=""grid-container"">
        <!-- Grid items will be dynamically added here -->
    </div>    ","null","","","","","","","","","","","",""
"","null","html-keyboard-response","201","208095","0.0-11.0-0.37","VZLXR5QrXu","63c34086cb929e7c9b844a67","6617fad957f7c6a12ea16e26","6622cf0da83cde040ac06e69","fixation cross","null","","","","","","","","","","","",""
"","1912","html-keyboard-response","202","210009","0.0-11.0-1.37","VZLXR5QrXu","63c34086cb929e7c9b844a67","6617fad957f7c6a12ea16e26","6622cf0da83cde040ac06e69","image grid"," ","","","","","Phylogenetic_Distractor_notarget","2500","ongrid"," ","2","Phylogenetic","true","experimental"
"","null","html-keyboard-response","203","210165","0.0-11.0-2.37","VZLXR5QrXu","63c34086cb929e7c9b844a67","6617fad957f7c6a12ea16e26","6622cf0da83cde040ac06e69","
    <div id=""grid-container"">
        <!-- Grid items will be dynamically added here -->
    </div>    ","null","","","","","","","","","","","",""
"","null","html-keyboard-response","204","210867","0.0-11.0-0.38","VZLXR5QrXu","63c34086cb929e7c9b844a67","6617fad957f7c6a12ea16e26","6622cf0da83cde040ac06e69","fixation cross","null","","","","","","","","","","","",""
"","1149","html-keyboard-response","205","212017","0.0-11.0-1.38","VZLXR5QrXu","63c34086cb929e7c9b844a67","6617fad957f7c6a12ea16e26","6622cf0da83cde040ac06e69","image grid","p","","","","","Phylogenetic_Distractor_Nonthreat_target","2500","ongrid","p","7","Phylogenetic","true","experimental"
"","null","html-keyboard-response","206","212170","0.0-11.0-2.38","VZLXR5QrXu","63c34086cb929e7c9b844a67","6617fad957f7c6a12ea16e26","6622cf0da83cde040ac06e69","
    <div id=""grid-container"">
        <!-- Grid items will be dynamically added here -->
    </div>    ","null","","","","","","","","","","","",""
"","null","html-keyboard-response","207","212871","0.0-11.0-0.39","VZLXR5QrXu","63c34086cb929e7c9b844a67","6617fad957f7c6a12ea16e26","6622cf0da83cde040ac06e69","fixation cross","null","","","","","","","","","","","",""
"","2026","html-keyboard-response","208","214897","0.0-11.0-1.39","VZLXR5QrXu","63c34086cb929e7c9b844a67","6617fad957f7c6a12ea16e26","6622cf0da83cde040ac06e69","image grid"," ","","","","","Phylogenetic_Distractor_notarget","2500","ongrid"," ","6","Phylogenetic","true","experimental"
"","null","html-keyboard-response","209","215051","0.0-11.0-2.39","VZLXR5QrXu","63c34086cb929e7c9b844a67","6617fad957f7c6a12ea16e26","6622cf0da83cde040ac06e69","
    <div id=""grid-container"">
        <!-- Grid items will be dynamically added here -->
    </div>    ","null","","","","","","","","","","","",""
"","7318","html-keyboard-response","210","222569","0.0-12.0","VZLXR5QrXu","63c34086cb929e7c9b844a67","6617fad957f7c6a12ea16e26","6622cf0da83cde040ac06e69","break screen"," ","","","","","","","","","","","",""
"","null","html-keyboard-response","211","225091","0.0-13.0-0.0","VZLXR5QrXu","63c34086cb929e7c9b844a67","6617fad957f7c6a12ea16e26","6622cf0da83cde040ac06e69","fixation cross","null","","","","","","","","","","","",""
"","null","html-keyboard-response","212","225893","0.0-13.0-1.0","VZLXR5QrXu","63c34086cb929e7c9b844a67","6617fad957f7c6a12ea16e26","6622cf0da83cde040ac06e69","
        <div id=""grid-container"">
        <!-- Grid items will be dynamically added here -->
    </div>    ","null","","","","","","","","","","","",""
"","829","html-keyboard-response","213","225921","0.0-13.0-2.0","VZLXR5QrXu","63c34086cb929e7c9b844a67","6617fad957f7c6a12ea16e26","6622cf0da83cde040ac06e69","mask grid","p","","","","","Phylogenetic_Distractor_Nonthreat_target","800","onmask","p","6","Phylogenetic","true","experimental"
"","null","html-keyboard-response","214","226626","0.0-13.0-0.1","VZLXR5QrXu","63c34086cb929e7c9b844a67","6617fad957f7c6a12ea16e26","6622cf0da83cde040ac06e69","fixation cross","null","","","","","","","","","","","",""
"","null","html-keyboard-response","215","227429","0.0-13.0-1.1","VZLXR5QrXu","63c34086cb929e7c9b844a67","6617fad957f7c6a12ea16e26","6622cf0da83cde040ac06e69","
        <div id=""grid-container"">
        <!-- Grid items will be dynamically added here -->
    </div>    ","null","","","","","","","","","","","",""
"","963","html-keyboard-response","216","227592","0.0-13.0-2.1","VZLXR5QrXu","63c34086cb929e7c9b844a67","6617fad957f7c6a12ea16e26","6622cf0da83cde040ac06e69","mask grid","p","","","","","Phylogenetic_Distractor_Nonthreat_target","800","onmask","p","3","Phylogenetic","true","experimental"
"","null","html-keyboard-response","217","228299","0.0-13.0-0.2","VZLXR5QrXu","63c34086cb929e7c9b844a67","6617fad957f7c6a12ea16e26","6622cf0da83cde040ac06e69","fixation cross","null","","","","","","","","","","","",""
"","null","html-keyboard-response","218","229101","0.0-13.0-1.2","VZLXR5QrXu","63c34086cb929e7c9b844a67","6617fad957f7c6a12ea16e26","6622cf0da83cde040ac06e69","
        <div id=""grid-container"">
        <!-- Grid items will be dynamically added here -->
    </div>    ","null","","","","","","","","","","","",""
"","1148","html-keyboard-response","219","229449","0.0-13.0-2.2","VZLXR5QrXu","63c34086cb929e7c9b844a67","6617fad957f7c6a12ea16e26","6622cf0da83cde040ac06e69","mask grid","q","","","","","Phylogenetic_Distractor_Threat_target","800","onmask","q","7","Phylogenetic","true","experimental"
"","null","html-keyboard-response","220","230150","0.0-13.0-0.3","VZLXR5QrXu","63c34086cb929e7c9b844a67","6617fad957f7c6a12ea16e26","6622cf0da83cde040ac06e69","fixation cross","null","","","","","","","","","","","",""
"","null","html-keyboard-response","221","230958","0.0-13.0-1.3","VZLXR5QrXu","63c34086cb929e7c9b844a67","6617fad957f7c6a12ea16e26","6622cf0da83cde040ac06e69","
        <div id=""grid-container"">
        <!-- Grid items will be dynamically added here -->
    </div>    ","null","","","","","","","","","","","",""
"","1651","html-keyboard-response","222","231808","0.0-13.0-2.3","VZLXR5QrXu","63c34086cb929e7c9b844a67","6617fad957f7c6a12ea16e26","6622cf0da83cde040ac06e69","mask grid","q","","","","","Phylogenetic_Distractor_Threat_target","800","onmask","q","8","Phylogenetic","true","experimental"
"","null","html-keyboard-response","223","232527","0.0-13.0-0.4","VZLXR5QrXu","63c34086cb929e7c9b844a67","6617fad957f7c6a12ea16e26","6622cf0da83cde040ac06e69","fixation cross","null","","","","","","","","","","","",""
"","null","html-keyboard-response","224","233329","0.0-13.0-1.4","VZLXR5QrXu","63c34086cb929e7c9b844a67","6617fad957f7c6a12ea16e26","6622cf0da83cde040ac06e69","
        <div id=""grid-container"">
        <!-- Grid items will be dynamically added here -->
    </div>    ","null","","","","","","","","","","","",""
"","1296","html-keyboard-response","225","233825","0.0-13.0-2.4","VZLXR5QrXu","63c34086cb929e7c9b844a67","6617fad957f7c6a12ea16e26","6622cf0da83cde040ac06e69","mask grid","q","","","","","Phylogenetic_Distractor_Threat_target","800","onmask","q","9","Phylogenetic","true","experimental"
"","null","html-keyboard-response","226","234531","0.0-13.0-0.5","VZLXR5QrXu","63c34086cb929e7c9b844a67","6617fad957f7c6a12ea16e26","6622cf0da83cde040ac06e69","fixation cross","null","","","","","","","","","","","",""
"","null","html-keyboard-response","227","235333","0.0-13.0-1.5","VZLXR5QrXu","63c34086cb929e7c9b844a67","6617fad957f7c6a12ea16e26","6622cf0da83cde040ac06e69","
        <div id=""grid-container"">
        <!-- Grid items will be dynamically added here -->
    </div>    ","null","","","","","","","","","","","",""
"","1139","html-keyboard-response","228","235673","0.0-13.0-2.5","VZLXR5QrXu","63c34086cb929e7c9b844a67","6617fad957f7c6a12ea16e26","6622cf0da83cde040ac06e69","mask grid","q","","","","","Phylogenetic_Distractor_Threat_target","800","onmask","q","8","Phylogenetic","true","experimental"
"","null","html-keyboard-response","229","236382","0.0-13.0-0.6","VZLXR5QrXu","63c34086cb929e7c9b844a67","6617fad957f7c6a12ea16e26","6622cf0da83cde040ac06e69","fixation cross","null","","","","","","","","","","","",""
"","null","html-keyboard-response","230","237184","0.0-13.0-1.6","VZLXR5QrXu","63c34086cb929e7c9b844a67","6617fad957f7c6a12ea16e26","6622cf0da83cde040ac06e69","
        <div id=""grid-container"">
        <!-- Grid items will be dynamically added here -->
    </div>    ","null","","","","","","","","","","","",""
"","1297","html-keyboard-response","231","237680","0.0-13.0-2.6","VZLXR5QrXu","63c34086cb929e7c9b844a67","6617fad957f7c6a12ea16e26","6622cf0da83cde040ac06e69","mask grid","p","","","","","Phylogenetic_Distractor_Nonthreat_target","800","onmask","p","4","Phylogenetic","true","experimental"
"","null","html-keyboard-response","232","238388","0.0-13.0-0.7","VZLXR5QrXu","63c34086cb929e7c9b844a67","6617fad957f7c6a12ea16e26","6622cf0da83cde040ac06e69","fixation cross","null","","","","","","","","","","","",""
"","null","html-keyboard-response","233","239197","0.0-13.0-1.7","VZLXR5QrXu","63c34086cb929e7c9b844a67","6617fad957f7c6a12ea16e26","6622cf0da83cde040ac06e69","
        <div id=""grid-container"">
        <!-- Grid items will be dynamically added here -->
    </div>    ","null","","","","","","","","","","","",""
"","842","html-keyboard-response","234","239240","0.0-13.0-2.7","VZLXR5QrXu","63c34086cb929e7c9b844a67","6617fad957f7c6a12ea16e26","6622cf0da83cde040ac06e69","mask grid","q","","","","","Phylogenetic_Distractor_Threat_target","800","onmask","q","2","Phylogenetic","true","experimental"
"","null","html-keyboard-response","235","239944","0.0-13.0-0.8","VZLXR5QrXu","63c34086cb929e7c9b844a67","6617fad957f7c6a12ea16e26","6622cf0da83cde040ac06e69","fixation cross","null","","","","","","","","","","","",""
"","null","html-keyboard-response","236","240747","0.0-13.0-1.8","VZLXR5QrXu","63c34086cb929e7c9b844a67","6617fad957f7c6a12ea16e26","6622cf0da83cde040ac06e69","
        <div id=""grid-container"">
        <!-- Grid items will be dynamically added here -->
    </div>    ","null","","","","","","","","","","","",""
"","1205","html-keyboard-response","237","241153","0.0-13.0-2.8","VZLXR5QrXu","63c34086cb929e7c9b844a67","6617fad957f7c6a12ea16e26","6622cf0da83cde040ac06e69","mask grid","q","","","","","Phylogenetic_Distractor_Threat_target","800","onmask","q","3","Phylogenetic","true","experimental"
"","null","html-keyboard-response","238","241864","0.0-13.0-0.9","VZLXR5QrXu","63c34086cb929e7c9b844a67","6617fad957f7c6a12ea16e26","6622cf0da83cde040ac06e69","fixation cross","null","","","","","","","","","","","",""
"","null","html-keyboard-response","239","242667","0.0-13.0-1.9","VZLXR5QrXu","63c34086cb929e7c9b844a67","6617fad957f7c6a12ea16e26","6622cf0da83cde040ac06e69","
        <div id=""grid-container"">
        <!-- Grid items will be dynamically added here -->
    </div>    ","null","","","","","","","","","","","",""
"","1405","html-keyboard-response","240","243273","0.0-13.0-2.9","VZLXR5QrXu","63c34086cb929e7c9b844a67","6617fad957f7c6a12ea16e26","6622cf0da83cde040ac06e69","mask grid","p","","","","","Phylogenetic_Distractor_Nonthreat_target","800","onmask","p","2","Phylogenetic","true","experimental"
"","null","html-keyboard-response","241","243986","0.0-13.0-0.10","VZLXR5QrXu","63c34086cb929e7c9b844a67","6617fad957f7c6a12ea16e26","6622cf0da83cde040ac06e69","fixation cross","null","","","","","","","","","","","",""
"","null","html-keyboard-response","242","244787","0.0-13.0-1.10","VZLXR5QrXu","63c34086cb929e7c9b844a67","6617fad957f7c6a12ea16e26","6622cf0da83cde040ac06e69","
        <div id=""grid-container"">
        <!-- Grid items will be dynamically added here -->
    </div>    ","null","","","","","","","","","","","",""
"","925","html-keyboard-response","243","244913","0.0-13.0-2.10","VZLXR5QrXu","63c34086cb929e7c9b844a67","6617fad957f7c6a12ea16e26","6622cf0da83cde040ac06e69","mask grid","q","","","","","Phylogenetic_Distractor_Threat_target","800","onmask","q","8","Phylogenetic","true","experimental"
"","null","html-keyboard-response","244","245635","0.0-13.0-0.11","VZLXR5QrXu","63c34086cb929e7c9b844a67","6617fad957f7c6a12ea16e26","6622cf0da83cde040ac06e69","fixation cross","null","","","","","","","","","","","",""
"","null","html-keyboard-response","245","246437","0.0-13.0-1.11","VZLXR5QrXu","63c34086cb929e7c9b844a67","6617fad957f7c6a12ea16e26","6622cf0da83cde040ac06e69","
        <div id=""grid-container"">
        <!-- Grid items will be dynamically added here -->
    </div>    ","null","","","","","","","","","","","",""
"","1348","html-keyboard-response","246","246985","0.0-13.0-2.11","VZLXR5QrXu","63c34086cb929e7c9b844a67","6617fad957f7c6a12ea16e26","6622cf0da83cde040ac06e69","mask grid"," ","","","","","Phylogenetic_Distractor_Nonthreat_target","800","onmask","p","4","Phylogenetic","false","experimental"
"","null","html-keyboard-response","247","247692","0.0-13.0-0.12","VZLXR5QrXu","63c34086cb929e7c9b844a67","6617fad957f7c6a12ea16e26","6622cf0da83cde040ac06e69","fixation cross","null","","","","","","","","","","","",""
"","null","html-keyboard-response","248","248495","0.0-13.0-1.12","VZLXR5QrXu","63c34086cb929e7c9b844a67","6617fad957f7c6a12ea16e26","6622cf0da83cde040ac06e69","
        <div id=""grid-container"">
        <!-- Grid items will be dynamically added here -->
    </div>    ","null","","","","","","","","","","","",""
"","882","html-keyboard-response","249","248576","0.0-13.0-2.12","VZLXR5QrXu","63c34086cb929e7c9b844a67","6617fad957f7c6a12ea16e26","6622cf0da83cde040ac06e69","mask grid","q","","","","","Phylogenetic_Distractor_Threat_target","800","onmask","q","5","Phylogenetic","true","experimental"
"","null","html-keyboard-response","250","249280","0.0-13.0-0.13","VZLXR5QrXu","63c34086cb929e7c9b844a67","6617fad957f7c6a12ea16e26","6622cf0da83cde040ac06e69","fixation cross","null","","","","","","","","","","","",""
"","743","html-keyboard-response","251","250025","0.0-13.0-1.13","VZLXR5QrXu","63c34086cb929e7c9b844a67","6617fad957f7c6a12ea16e26","6622cf0da83cde040ac06e69","image grid","q","","","","","Phylogenetic_Distractor_Threat_target","800","ongrid","q","7","Phylogenetic","true","experimental"
"","null","html-keyboard-response","252","250182","0.0-13.0-2.13","VZLXR5QrXu","63c34086cb929e7c9b844a67","6617fad957f7c6a12ea16e26","6622cf0da83cde040ac06e69","
    <div id=""grid-container"">
        <!-- Grid items will be dynamically added here -->
    </div>    ","null","","","","","","","","","","","",""
"","null","html-keyboard-response","253","250892","0.0-13.0-0.14","VZLXR5QrXu","63c34086cb929e7c9b844a67","6617fad957f7c6a12ea16e26","6622cf0da83cde040ac06e69","fixation cross","null","","","","","","","","","","","",""
"","788","html-keyboard-response","254","251680","0.0-13.0-1.14","VZLXR5QrXu","63c34086cb929e7c9b844a67","6617fad957f7c6a12ea16e26","6622cf0da83cde040ac06e69","image grid","q","","","","","Phylogenetic_Distractor_Threat_target","800","ongrid","q","7","Phylogenetic","true","experimental"
"","null","html-keyboard-response","255","251833","0.0-13.0-2.14","VZLXR5QrXu","63c34086cb929e7c9b844a67","6617fad957f7c6a12ea16e26","6622cf0da83cde040ac06e69","
    <div id=""grid-container"">
        <!-- Grid items will be dynamically added here -->
    </div>    ","null","","","","","","","","","","","",""
"","null","html-keyboard-response","256","252534","0.0-13.0-0.15","VZLXR5QrXu","63c34086cb929e7c9b844a67","6617fad957f7c6a12ea16e26","6622cf0da83cde040ac06e69","fixation cross","null","","","","","","","","","","","",""
"","null","html-keyboard-response","257","253336","0.0-13.0-1.15","VZLXR5QrXu","63c34086cb929e7c9b844a67","6617fad957f7c6a12ea16e26","6622cf0da83cde040ac06e69","
        <div id=""grid-container"">
        <!-- Grid items will be dynamically added here -->
    </div>    ","null","","","","","","","","","","","",""
"","1023","html-keyboard-response","258","253560","0.0-13.0-2.15","VZLXR5QrXu","63c34086cb929e7c9b844a67","6617fad957f7c6a12ea16e26","6622cf0da83cde040ac06e69","mask grid","p","","","","","Phylogenetic_Distractor_Nonthreat_target","800","onmask","p","2","Phylogenetic","true","experimental"
"","null","html-keyboard-response","259","254276","0.0-13.0-0.16","VZLXR5QrXu","63c34086cb929e7c9b844a67","6617fad957f7c6a12ea16e26","6622cf0da83cde040ac06e69","fixation cross","null","","","","","","","","","","","",""
"","null","html-keyboard-response","260","255078","0.0-13.0-1.16","VZLXR5QrXu","63c34086cb929e7c9b844a67","6617fad957f7c6a12ea16e26","6622cf0da83cde040ac06e69","
        <div id=""grid-container"">
        <!-- Grid items will be dynamically added here -->
    </div>    ","null","","","","","","","","","","","",""
"","970","html-keyboard-response","261","255249","0.0-13.0-2.16","VZLXR5QrXu","63c34086cb929e7c9b844a67","6617fad957f7c6a12ea16e26","6622cf0da83cde040ac06e69","mask grid","p","","","","","Phylogenetic_Distractor_Nonthreat_target","800","onmask","p","9","Phylogenetic","true","experimental"
"","null","html-keyboard-response","262","255958","0.0-13.0-0.17","VZLXR5QrXu","63c34086cb929e7c9b844a67","6617fad957f7c6a12ea16e26","6622cf0da83cde040ac06e69","fixation cross","null","","","","","","","","","","","",""
"","null","html-keyboard-response","263","256760","0.0-13.0-1.17","VZLXR5QrXu","63c34086cb929e7c9b844a67","6617fad957f7c6a12ea16e26","6622cf0da83cde040ac06e69","
        <div id=""grid-container"">
        <!-- Grid items will be dynamically added here -->
    </div>    ","null","","","","","","","","","","","",""
"","832","html-keyboard-response","264","256793","0.0-13.0-2.17","VZLXR5QrXu","63c34086cb929e7c9b844a67","6617fad957f7c6a12ea16e26","6622cf0da83cde040ac06e69","mask grid","q","","","","","Phylogenetic_Distractor_Threat_target","800","onmask","q","4","Phylogenetic","true","experimental"
"","null","html-keyboard-response","265","257499","0.0-13.0-0.18","VZLXR5QrXu","63c34086cb929e7c9b844a67","6617fad957f7c6a12ea16e26","6622cf0da83cde040ac06e69","fixation cross","null","","","","","","","","","","","",""
"","null","html-keyboard-response","266","258348","0.0-13.0-1.18","VZLXR5QrXu","63c34086cb929e7c9b844a67","6617fad957f7c6a12ea16e26","6622cf0da83cde040ac06e69","
        <div id=""grid-container"">
        <!-- Grid items will be dynamically added here -->
    </div>    ","null","","","","","","","","","","","",""
"","861","html-keyboard-response","267","258408","0.0-13.0-2.18","VZLXR5QrXu","63c34086cb929e7c9b844a67","6617fad957f7c6a12ea16e26","6622cf0da83cde040ac06e69","mask grid","p","","","","","Phylogenetic_Distractor_Nonthreat_target","800","onmask","p","5","Phylogenetic","true","experimental"
"","null","html-keyboard-response","268","259118","0.0-13.0-0.19","VZLXR5QrXu","63c34086cb929e7c9b844a67","6617fad957f7c6a12ea16e26","6622cf0da83cde040ac06e69","fixation cross","null","","","","","","","","","","","",""
"","787","html-keyboard-response","269","259904","0.0-13.0-1.19","VZLXR5QrXu","63c34086cb929e7c9b844a67","6617fad957f7c6a12ea16e26","6622cf0da83cde040ac06e69","image grid","q","","","","","Phylogenetic_Distractor_Threat_target","800","ongrid","q","4","Phylogenetic","true","experimental"
"","null","html-keyboard-response","270","260067","0.0-13.0-2.19","VZLXR5QrXu","63c34086cb929e7c9b844a67","6617fad957f7c6a12ea16e26","6622cf0da83cde040ac06e69","
    <div id=""grid-container"">
        <!-- Grid items will be dynamically added here -->
    </div>    ","null","","","","","","","","","","","",""
"","null","html-keyboard-response","271","260789","0.0-13.0-0.20","VZLXR5QrXu","63c34086cb929e7c9b844a67","6617fad957f7c6a12ea16e26","6622cf0da83cde040ac06e69","fixation cross","null","","","","","","","","","","","",""
"","754","html-keyboard-response","272","261545","0.0-13.0-1.20","VZLXR5QrXu","63c34086cb929e7c9b844a67","6617fad957f7c6a12ea16e26","6622cf0da83cde040ac06e69","image grid","p","","","","","Phylogenetic_Distractor_Nonthreat_target","800","ongrid","p","5","Phylogenetic","true","experimental"
"","null","html-keyboard-response","273","261707","0.0-13.0-2.20","VZLXR5QrXu","63c34086cb929e7c9b844a67","6617fad957f7c6a12ea16e26","6622cf0da83cde040ac06e69","
    <div id=""grid-container"">
        <!-- Grid items will be dynamically added here -->
    </div>    ","null","","","","","","","","","","","",""
"","null","html-keyboard-response","274","262410","0.0-13.0-0.21","VZLXR5QrXu","63c34086cb929e7c9b844a67","6617fad957f7c6a12ea16e26","6622cf0da83cde040ac06e69","fixation cross","null","","","","","","","","","","","",""
"","null","html-keyboard-response","275","263211","0.0-13.0-1.21","VZLXR5QrXu","63c34086cb929e7c9b844a67","6617fad957f7c6a12ea16e26","6622cf0da83cde040ac06e69","
        <div id=""grid-container"">
        <!-- Grid items will be dynamically added here -->
    </div>    ","null","","","","","","","","","","","",""
"","1444","html-keyboard-response","276","263857","0.0-13.0-2.21","VZLXR5QrXu","63c34086cb929e7c9b844a67","6617fad957f7c6a12ea16e26","6622cf0da83cde040ac06e69","mask grid","p","","","","","Phylogenetic_Distractor_Nonthreat_target","800","onmask","p","3","Phylogenetic","true","experimental"
"","null","html-keyboard-response","277","264561","0.0-13.0-0.22","VZLXR5QrXu","63c34086cb929e7c9b844a67","6617fad957f7c6a12ea16e26","6622cf0da83cde040ac06e69","fixation cross","null","","","","","","","","","","","",""
"","null","html-keyboard-response","278","265364","0.0-13.0-1.22","VZLXR5QrXu","63c34086cb929e7c9b844a67","6617fad957f7c6a12ea16e26","6622cf0da83cde040ac06e69","
        <div id=""grid-container"">
        <!-- Grid items will be dynamically added here -->
    </div>    ","null","","","","","","","","","","","",""
"","1356","html-keyboard-response","279","265921","0.0-13.0-2.22","VZLXR5QrXu","63c34086cb929e7c9b844a67","6617fad957f7c6a12ea16e26","6622cf0da83cde040ac06e69","mask grid","p","","","","","Phylogenetic_Distractor_Nonthreat_target","800","onmask","p","3","Phylogenetic","true","experimental"
"","null","html-keyboard-response","280","266635","0.0-13.0-0.23","VZLXR5QrXu","63c34086cb929e7c9b844a67","6617fad957f7c6a12ea16e26","6622cf0da83cde040ac06e69","fixation cross","null","","","","","","","","","","","",""
"","null","html-keyboard-response","281","267437","0.0-13.0-1.23","VZLXR5QrXu","63c34086cb929e7c9b844a67","6617fad957f7c6a12ea16e26","6622cf0da83cde040ac06e69","
        <div id=""grid-container"">
        <!-- Grid items will be dynamically added here -->
    </div>    ","null","","","","","","","","","","","",""
"","1339","html-keyboard-response","282","267976","0.0-13.0-2.23","VZLXR5QrXu","63c34086cb929e7c9b844a67","6617fad957f7c6a12ea16e26","6622cf0da83cde040ac06e69","mask grid"," ","","","","","Phylogenetic_Distractor_Nonthreat_target","800","onmask","p","3","Phylogenetic","false","experimental"
"","null","html-keyboard-response","283","268693","0.0-13.0-0.24","VZLXR5QrXu","63c34086cb929e7c9b844a67","6617fad957f7c6a12ea16e26","6622cf0da83cde040ac06e69","fixation cross","null","","","","","","","","","","","",""
"","null","html-keyboard-response","284","269495","0.0-13.0-1.24","VZLXR5QrXu","63c34086cb929e7c9b844a67","6617fad957f7c6a12ea16e26","6622cf0da83cde040ac06e69","
        <div id=""grid-container"">
        <!-- Grid items will be dynamically added here -->
    </div>    ","null","","","","","","","","","","","",""
"","1584","html-keyboard-response","285","270281","0.0-13.0-2.24","VZLXR5QrXu","63c34086cb929e7c9b844a67","6617fad957f7c6a12ea16e26","6622cf0da83cde040ac06e69","mask grid","p","","","","","Phylogenetic_Distractor_notarget","800","onmask"," ","3","Phylogenetic","false","experimental"
"","null","html-keyboard-response","286","270999","0.0-13.0-0.25","VZLXR5QrXu","63c34086cb929e7c9b844a67","6617fad957f7c6a12ea16e26","6622cf0da83cde040ac06e69","fixation cross","null","","","","","","","","","","","",""
"","768","html-keyboard-response","287","271768","0.0-13.0-1.25","VZLXR5QrXu","63c34086cb929e7c9b844a67","6617fad957f7c6a12ea16e26","6622cf0da83cde040ac06e69","image grid","q","","","","","Phylogenetic_Distractor_Threat_target","800","ongrid","q","5","Phylogenetic","true","experimental"
"","null","html-keyboard-response","288","271933","0.0-13.0-2.25","VZLXR5QrXu","63c34086cb929e7c9b844a67","6617fad957f7c6a12ea16e26","6622cf0da83cde040ac06e69","
    <div id=""grid-container"">
        <!-- Grid items will be dynamically added here -->
    </div>    ","null","","","","","","","","","","","",""
"","null","html-keyboard-response","289","272634","0.0-13.0-0.26","VZLXR5QrXu","63c34086cb929e7c9b844a67","6617fad957f7c6a12ea16e26","6622cf0da83cde040ac06e69","fixation cross","null","","","","","","","","","","","",""
"","798","html-keyboard-response","290","273432","0.0-13.0-1.26","VZLXR5QrXu","63c34086cb929e7c9b844a67","6617fad957f7c6a12ea16e26","6622cf0da83cde040ac06e69","image grid","q","","","","","Phylogenetic_Distractor_Threat_target","800","ongrid","q","2","Phylogenetic","true","experimental"
"","null","html-keyboard-response","291","273589","0.0-13.0-2.26","VZLXR5QrXu","63c34086cb929e7c9b844a67","6617fad957f7c6a12ea16e26","6622cf0da83cde040ac06e69","
    <div id=""grid-container"">
        <!-- Grid items will be dynamically added here -->
    </div>    ","null","","","","","","","","","","","",""
"","null","html-keyboard-response","292","274307","0.0-13.0-0.27","VZLXR5QrXu","63c34086cb929e7c9b844a67","6617fad957f7c6a12ea16e26","6622cf0da83cde040ac06e69","fixation cross","null","","","","","","","","","","","",""
"","null","html-keyboard-response","293","275109","0.0-13.0-1.27","VZLXR5QrXu","63c34086cb929e7c9b844a67","6617fad957f7c6a12ea16e26","6622cf0da83cde040ac06e69","
        <div id=""grid-container"">
        <!-- Grid items will be dynamically added here -->
    </div>    ","null","","","","","","","","","","","",""
"","1019","html-keyboard-response","294","275329","0.0-13.0-2.27","VZLXR5QrXu","63c34086cb929e7c9b844a67","6617fad957f7c6a12ea16e26","6622cf0da83cde040ac06e69","mask grid","p","","","","","Phylogenetic_Distractor_Nonthreat_target","800","onmask","p","3","Phylogenetic","true","experimental"
"","null","html-keyboard-response","295","276043","0.0-13.0-0.28","VZLXR5QrXu","63c34086cb929e7c9b844a67","6617fad957f7c6a12ea16e26","6622cf0da83cde040ac06e69","fixation cross","null","","","","","","","","","","","",""
"","null","html-keyboard-response","296","276845","0.0-13.0-1.28","VZLXR5QrXu","63c34086cb929e7c9b844a67","6617fad957f7c6a12ea16e26","6622cf0da83cde040ac06e69","
        <div id=""grid-container"">
        <!-- Grid items will be dynamically added here -->
    </div>    ","null","","","","","","","","","","","",""
"","1196","html-keyboard-response","297","277241","0.0-13.0-2.28","VZLXR5QrXu","63c34086cb929e7c9b844a67","6617fad957f7c6a12ea16e26","6622cf0da83cde040ac06e69","mask grid","p","","","","","Phylogenetic_Distractor_notarget","800","onmask"," ","9","Phylogenetic","false","experimental"
"","null","html-keyboard-response","298","277947","0.0-13.0-0.29","VZLXR5QrXu","63c34086cb929e7c9b844a67","6617fad957f7c6a12ea16e26","6622cf0da83cde040ac06e69","fixation cross","null","","","","","","","","","","","",""
"","null","html-keyboard-response","299","278781","0.0-13.0-1.29","VZLXR5QrXu","63c34086cb929e7c9b844a67","6617fad957f7c6a12ea16e26","6622cf0da83cde040ac06e69","
        <div id=""grid-container"">
        <!-- Grid items will be dynamically added here -->
    </div>    ","null","","","","","","","","","","","",""
"","1026","html-keyboard-response","300","279008","0.0-13.0-2.29","VZLXR5QrXu","63c34086cb929e7c9b844a67","6617fad957f7c6a12ea16e26","6622cf0da83cde040ac06e69","mask grid","p","","","","","Phylogenetic_Distractor_Nonthreat_target","800","onmask","p","8","Phylogenetic","true","experimental"
"","null","html-keyboard-response","301","279722","0.0-13.0-0.30","VZLXR5QrXu","63c34086cb929e7c9b844a67","6617fad957f7c6a12ea16e26","6622cf0da83cde040ac06e69","fixation cross","null","","","","","","","","","","","",""
"","null","html-keyboard-response","302","280524","0.0-13.0-1.30","VZLXR5QrXu","63c34086cb929e7c9b844a67","6617fad957f7c6a12ea16e26","6622cf0da83cde040ac06e69","
        <div id=""grid-container"">
        <!-- Grid items will be dynamically added here -->
    </div>    ","null","","","","","","","","","","","",""
"","1300","html-keyboard-response","303","281024","0.0-13.0-2.30","VZLXR5QrXu","63c34086cb929e7c9b844a67","6617fad957f7c6a12ea16e26","6622cf0da83cde040ac06e69","mask grid","p","","","","","Phylogenetic_Distractor_Nonthreat_target","800","onmask","p","9","Phylogenetic","true","experimental"
"","null","html-keyboard-response","304","281727","0.0-13.0-0.31","VZLXR5QrXu","63c34086cb929e7c9b844a67","6617fad957f7c6a12ea16e26","6622cf0da83cde040ac06e69","fixation cross","null","","","","","","","","","","","",""
"","null","html-keyboard-response","305","282529","0.0-13.0-1.31","VZLXR5QrXu","63c34086cb929e7c9b844a67","6617fad957f7c6a12ea16e26","6622cf0da83cde040ac06e69","
        <div id=""grid-container"">
        <!-- Grid items will be dynamically added here -->
    </div>    ","null","","","","","","","","","","","",""
"","911","html-keyboard-response","306","282640","0.0-13.0-2.31","VZLXR5QrXu","63c34086cb929e7c9b844a67","6617fad957f7c6a12ea16e26","6622cf0da83cde040ac06e69","mask grid","q","","","","","Phylogenetic_Distractor_Threat_target","800","onmask","q","8","Phylogenetic","true","experimental"
"","null","html-keyboard-response","307","283346","0.0-13.0-0.32","VZLXR5QrXu","63c34086cb929e7c9b844a67","6617fad957f7c6a12ea16e26","6622cf0da83cde040ac06e69","fixation cross","null","","","","","","","","","","","",""
"","null","html-keyboard-response","308","284154","0.0-13.0-1.32","VZLXR5QrXu","63c34086cb929e7c9b844a67","6617fad957f7c6a12ea16e26","6622cf0da83cde040ac06e69","
        <div id=""grid-container"">
        <!-- Grid items will be dynamically added here -->
    </div>    ","null","","","","","","","","","","","",""
"","1183","html-keyboard-response","309","284537","0.0-13.0-2.32","VZLXR5QrXu","63c34086cb929e7c9b844a67","6617fad957f7c6a12ea16e26","6622cf0da83cde040ac06e69","mask grid","p","","","","","Phylogenetic_Distractor_Nonthreat_target","800","onmask","p","7","Phylogenetic","true","experimental"
"","null","html-keyboard-response","310","285256","0.0-13.0-0.33","VZLXR5QrXu","63c34086cb929e7c9b844a67","6617fad957f7c6a12ea16e26","6622cf0da83cde040ac06e69","fixation cross","null","","","","","","","","","","","",""
"","null","html-keyboard-response","311","286058","0.0-13.0-1.33","VZLXR5QrXu","63c34086cb929e7c9b844a67","6617fad957f7c6a12ea16e26","6622cf0da83cde040ac06e69","
        <div id=""grid-container"">
        <!-- Grid items will be dynamically added here -->
    </div>    ","null","","","","","","","","","","","",""
"","1007","html-keyboard-response","312","286264","0.0-13.0-2.33","VZLXR5QrXu","63c34086cb929e7c9b844a67","6617fad957f7c6a12ea16e26","6622cf0da83cde040ac06e69","mask grid","q","","","","","Phylogenetic_Distractor_Threat_target","800","onmask","q","2","Phylogenetic","true","experimental"
"","null","html-keyboard-response","313","287002","0.0-13.0-0.34","VZLXR5QrXu","63c34086cb929e7c9b844a67","6617fad957f7c6a12ea16e26","6622cf0da83cde040ac06e69","fixation cross","null","","","","","","","","","","","",""
"","null","html-keyboard-response","314","287804","0.0-13.0-1.34","VZLXR5QrXu","63c34086cb929e7c9b844a67","6617fad957f7c6a12ea16e26","6622cf0da83cde040ac06e69","
        <div id=""grid-container"">
        <!-- Grid items will be dynamically added here -->
    </div>    ","null","","","","","","","","","","","",""
"","1117","html-keyboard-response","315","288120","0.0-13.0-2.34","VZLXR5QrXu","63c34086cb929e7c9b844a67","6617fad957f7c6a12ea16e26","6622cf0da83cde040ac06e69","mask grid","q","","","","","Phylogenetic_Distractor_Threat_target","800","onmask","q","9","Phylogenetic","true","experimental"
"","null","html-keyboard-response","316","288838","0.0-13.0-0.35","VZLXR5QrXu","63c34086cb929e7c9b844a67","6617fad957f7c6a12ea16e26","6622cf0da83cde040ac06e69","fixation cross","null","","","","","","","","","","","",""
"","null","html-keyboard-response","317","289640","0.0-13.0-1.35","VZLXR5QrXu","63c34086cb929e7c9b844a67","6617fad957f7c6a12ea16e26","6622cf0da83cde040ac06e69","
        <div id=""grid-container"">
        <!-- Grid items will be dynamically added here -->
    </div>    ","null","","","","","","","","","","","",""
"","1176","html-keyboard-response","318","290016","0.0-13.0-2.35","VZLXR5QrXu","63c34086cb929e7c9b844a67","6617fad957f7c6a12ea16e26","6622cf0da83cde040ac06e69","mask grid"," ","","","","","Phylogenetic_Distractor_Nonthreat_target","800","onmask","p","6","Phylogenetic","false","experimental"
"","null","html-keyboard-response","319","290727","0.0-13.0-0.36","VZLXR5QrXu","63c34086cb929e7c9b844a67","6617fad957f7c6a12ea16e26","6622cf0da83cde040ac06e69","fixation cross","null","","","","","","","","","","","",""
"","null","html-keyboard-response","320","291535","0.0-13.0-1.36","VZLXR5QrXu","63c34086cb929e7c9b844a67","6617fad957f7c6a12ea16e26","6622cf0da83cde040ac06e69","
        <div id=""grid-container"">
        <!-- Grid items will be dynamically added here -->
    </div>    ","null","","","","","","","","","","","",""
"","1586","html-keyboard-response","321","292321","0.0-13.0-2.36","VZLXR5QrXu","63c34086cb929e7c9b844a67","6617fad957f7c6a12ea16e26","6622cf0da83cde040ac06e69","mask grid","q","","","","","Phylogenetic_Distractor_notarget","800","onmask"," ","8","Phylogenetic","false","experimental"
"","null","html-keyboard-response","322","293022","0.0-13.0-0.37","VZLXR5QrXu","63c34086cb929e7c9b844a67","6617fad957f7c6a12ea16e26","6622cf0da83cde040ac06e69","fixation cross","null","","","","","","","","","","","",""
"","null","html-keyboard-response","323","293825","0.0-13.0-1.37","VZLXR5QrXu","63c34086cb929e7c9b844a67","6617fad957f7c6a12ea16e26","6622cf0da83cde040ac06e69","
        <div id=""grid-container"">
        <!-- Grid items will be dynamically added here -->
    </div>    ","null","","","","","","","","","","","",""
"","1800","html-keyboard-response","324","294825","0.0-13.0-2.37","VZLXR5QrXu","63c34086cb929e7c9b844a67","6617fad957f7c6a12ea16e26","6622cf0da83cde040ac06e69","mask grid","q","","","","","Phylogenetic_Distractor_Threat_target","800","onmask","q","7","Phylogenetic","true","experimental"
"","null","html-keyboard-response","325","295566","0.0-13.0-0.38","VZLXR5QrXu","63c34086cb929e7c9b844a67","6617fad957f7c6a12ea16e26","6622cf0da83cde040ac06e69","fixation cross","null","","","","","","","","","","","",""
"","null","html-keyboard-response","326","296367","0.0-13.0-1.38","VZLXR5QrXu","63c34086cb929e7c9b844a67","6617fad957f7c6a12ea16e26","6622cf0da83cde040ac06e69","
        <div id=""grid-container"">
        <!-- Grid items will be dynamically added here -->
    </div>    ","null","","","","","","","","","","","",""
"","1425","html-keyboard-response","327","296992","0.0-13.0-2.38","VZLXR5QrXu","63c34086cb929e7c9b844a67","6617fad957f7c6a12ea16e26","6622cf0da83cde040ac06e69","mask grid","p","","","","","Phylogenetic_Distractor_Nonthreat_target","800","onmask","p","4","Phylogenetic","true","experimental"
"","null","html-keyboard-response","328","297707","0.0-13.0-0.39","VZLXR5QrXu","63c34086cb929e7c9b844a67","6617fad957f7c6a12ea16e26","6622cf0da83cde040ac06e69","fixation cross","null","","","","","","","","","","","",""
"","null","html-keyboard-response","329","298509","0.0-13.0-1.39","VZLXR5QrXu","63c34086cb929e7c9b844a67","6617fad957f7c6a12ea16e26","6622cf0da83cde040ac06e69","
        <div id=""grid-container"">
        <!-- Grid items will be dynamically added here -->
    </div>    ","null","","","","","","","","","","","",""
"","1450","html-keyboard-response","330","299161","0.0-13.0-2.39","VZLXR5QrXu","63c34086cb929e7c9b844a67","6617fad957f7c6a12ea16e26","6622cf0da83cde040ac06e69","mask grid"," ","","","","","Phylogenetic_Distractor_notarget","800","onmask"," ","3","Phylogenetic","true","experimental"
"","16681","html-keyboard-response","331","316048","0.0-14.0","VZLXR5QrXu","63c34086cb929e7c9b844a67","6617fad957f7c6a12ea16e26","6622cf0da83cde040ac06e69","break screen"," ","","","","","","","","","","","",""
"","null","html-keyboard-response","332","318557","0.0-15.0-0.0","VZLXR5QrXu","63c34086cb929e7c9b844a67","6617fad957f7c6a12ea16e26","6622cf0da83cde040ac06e69","fixation cross","null","","","","","","","","","","","",""
"","1516","html-keyboard-response","333","320073","0.0-15.0-1.0","VZLXR5QrXu","63c34086cb929e7c9b844a67","6617fad957f7c6a12ea16e26","6622cf0da83cde040ac06e69","image grid","p","","","","","Ontogenetic_Distractor_Nonthreat_target","2500","ongrid","p","9","Ontogenetic","true","experimental"
"","null","html-keyboard-response","334","320230","0.0-15.0-2.0","VZLXR5QrXu","63c34086cb929e7c9b844a67","6617fad957f7c6a12ea16e26","6622cf0da83cde040ac06e69","
    <div id=""grid-container"">
        <!-- Grid items will be dynamically added here -->
    </div>    ","null","","","","","","","","","","","",""
"","null","html-keyboard-response","335","320931","0.0-15.0-0.1","VZLXR5QrXu","63c34086cb929e7c9b844a67","6617fad957f7c6a12ea16e26","6622cf0da83cde040ac06e69","fixation cross","null","","","","","","","","","","","",""
"","765","html-keyboard-response","336","321697","0.0-15.0-1.1","VZLXR5QrXu","63c34086cb929e7c9b844a67","6617fad957f7c6a12ea16e26","6622cf0da83cde040ac06e69","image grid","q","","","","","Ontogenetic_Distractor_Threat_target","2500","ongrid","q","1","Ontogenetic","true","experimental"
"","null","html-keyboard-response","337","321849","0.0-15.0-2.1","VZLXR5QrXu","63c34086cb929e7c9b844a67","6617fad957f7c6a12ea16e26","6622cf0da83cde040ac06e69","
    <div id=""grid-container"">
        <!-- Grid items will be dynamically added here -->
    </div>    ","null","","","","","","","","","","","",""
"","null","html-keyboard-response","338","322581","0.0-15.0-0.2","VZLXR5QrXu","63c34086cb929e7c9b844a67","6617fad957f7c6a12ea16e26","6622cf0da83cde040ac06e69","fixation cross","null","","","","","","","","","","","",""
"","1180","html-keyboard-response","339","323761","0.0-15.0-1.2","VZLXR5QrXu","63c34086cb929e7c9b844a67","6617fad957f7c6a12ea16e26","6622cf0da83cde040ac06e69","image grid","q","","","","","Ontogenetic_Distractor_Threat_target","2500","ongrid","q","7","Ontogenetic","true","experimental"
"","null","html-keyboard-response","340","323914","0.0-15.0-2.2","VZLXR5QrXu","63c34086cb929e7c9b844a67","6617fad957f7c6a12ea16e26","6622cf0da83cde040ac06e69","
    <div id=""grid-container"">
        <!-- Grid items will be dynamically added here -->
    </div>    ","null","","","","","","","","","","","",""
"","null","html-keyboard-response","341","324615","0.0-15.0-0.3","VZLXR5QrXu","63c34086cb929e7c9b844a67","6617fad957f7c6a12ea16e26","6622cf0da83cde040ac06e69","fixation cross","null","","","","","","","","","","","",""
"","1394","html-keyboard-response","342","326009","0.0-15.0-1.3","VZLXR5QrXu","63c34086cb929e7c9b844a67","6617fad957f7c6a12ea16e26","6622cf0da83cde040ac06e69","image grid","p","","","","","Ontogenetic_Distractor_Nonthreat_target","2500","ongrid","p","6","Ontogenetic","true","experimental"
"","null","html-keyboard-response","343","326161","0.0-15.0-2.3","VZLXR5QrXu","63c34086cb929e7c9b844a67","6617fad957f7c6a12ea16e26","6622cf0da83cde040ac06e69","
    <div id=""grid-container"">
        <!-- Grid items will be dynamically added here -->
    </div>    ","null","","","","","","","","","","","",""
"","null","html-keyboard-response","344","326863","0.0-15.0-0.4","VZLXR5QrXu","63c34086cb929e7c9b844a67","6617fad957f7c6a12ea16e26","6622cf0da83cde040ac06e69","fixation cross","null","","","","","","","","","","","",""
"","1034","html-keyboard-response","345","327897","0.0-15.0-1.4","VZLXR5QrXu","63c34086cb929e7c9b844a67","6617fad957f7c6a12ea16e26","6622cf0da83cde040ac06e69","image grid"," ","","","","","Ontogenetic_Distractor_notarget","2500","ongrid"," ","4","Ontogenetic","true","experimental"
"","null","html-keyboard-response","346","328066","0.0-15.0-2.4","VZLXR5QrXu","63c34086cb929e7c9b844a67","6617fad957f7c6a12ea16e26","6622cf0da83cde040ac06e69","
    <div id=""grid-container"">
        <!-- Grid items will be dynamically added here -->
    </div>    ","null","","","","","","","","","","","",""
"","null","html-keyboard-response","347","328767","0.0-15.0-0.5","VZLXR5QrXu","63c34086cb929e7c9b844a67","6617fad957f7c6a12ea16e26","6622cf0da83cde040ac06e69","fixation cross","null","","","","","","","","","","","",""
"","873","html-keyboard-response","348","329641","0.0-15.0-1.5","VZLXR5QrXu","63c34086cb929e7c9b844a67","6617fad957f7c6a12ea16e26","6622cf0da83cde040ac06e69","image grid","p","","","","","Ontogenetic_Distractor_Nonthreat_target","2500","ongrid","p","6","Ontogenetic","true","experimental"
"","null","html-keyboard-response","349","329801","0.0-15.0-2.5","VZLXR5QrXu","63c34086cb929e7c9b844a67","6617fad957f7c6a12ea16e26","6622cf0da83cde040ac06e69","
    <div id=""grid-container"">
        <!-- Grid items will be dynamically added here -->
    </div>    ","null","","","","","","","","","","","",""
"","null","html-keyboard-response","350","330504","0.0-15.0-0.6","VZLXR5QrXu","63c34086cb929e7c9b844a67","6617fad957f7c6a12ea16e26","6622cf0da83cde040ac06e69","fixation cross","null","","","","","","","","","","","",""
"","1313","html-keyboard-response","351","331816","0.0-15.0-1.6","VZLXR5QrXu","63c34086cb929e7c9b844a67","6617fad957f7c6a12ea16e26","6622cf0da83cde040ac06e69","image grid","p","","","","","Ontogenetic_Distractor_Nonthreat_target","2500","ongrid","p","6","Ontogenetic","true","experimental"
"","null","html-keyboard-response","352","331971","0.0-15.0-2.6","VZLXR5QrXu","63c34086cb929e7c9b844a67","6617fad957f7c6a12ea16e26","6622cf0da83cde040ac06e69","
    <div id=""grid-container"">
        <!-- Grid items will be dynamically added here -->
    </div>    ","null","","","","","","","","","","","",""
"","null","html-keyboard-response","353","332672","0.0-15.0-0.7","VZLXR5QrXu","63c34086cb929e7c9b844a67","6617fad957f7c6a12ea16e26","6622cf0da83cde040ac06e69","fixation cross","null","","","","","","","","","","","",""
"","1048","html-keyboard-response","354","333720","0.0-15.0-1.7","VZLXR5QrXu","63c34086cb929e7c9b844a67","6617fad957f7c6a12ea16e26","6622cf0da83cde040ac06e69","image grid","q","","","","","Ontogenetic_Distractor_Threat_target","2500","ongrid","q","3","Ontogenetic","true","experimental"
"","null","html-keyboard-response","355","333874","0.0-15.0-2.7","VZLXR5QrXu","63c34086cb929e7c9b844a67","6617fad957f7c6a12ea16e26","6622cf0da83cde040ac06e69","
    <div id=""grid-container"">
        <!-- Grid items will be dynamically added here -->
    </div>    ","null","","","","","","","","","","","",""
"","null","html-keyboard-response","356","334574","0.0-15.0-0.8","VZLXR5QrXu","63c34086cb929e7c9b844a67","6617fad957f7c6a12ea16e26","6622cf0da83cde040ac06e69","fixation cross","null","","","","","","","","","","","",""
"","1138","html-keyboard-response","357","335712","0.0-15.0-1.8","VZLXR5QrXu","63c34086cb929e7c9b844a67","6617fad957f7c6a12ea16e26","6622cf0da83cde040ac06e69","image grid","p","","","","","Ontogenetic_Distractor_Nonthreat_target","2500","ongrid","p","5","Ontogenetic","true","experimental"
"","null","html-keyboard-response","358","335877","0.0-15.0-2.8","VZLXR5QrXu","63c34086cb929e7c9b844a67","6617fad957f7c6a12ea16e26","6622cf0da83cde040ac06e69","
    <div id=""grid-container"">
        <!-- Grid items will be dynamically added here -->
    </div>    ","null","","","","","","","","","","","",""
"","null","html-keyboard-response","359","336581","0.0-15.0-0.9","VZLXR5QrXu","63c34086cb929e7c9b844a67","6617fad957f7c6a12ea16e26","6622cf0da83cde040ac06e69","fixation cross","null","","","","","","","","","","","",""
"","923","html-keyboard-response","360","337504","0.0-15.0-1.9","VZLXR5QrXu","63c34086cb929e7c9b844a67","6617fad957f7c6a12ea16e26","6622cf0da83cde040ac06e69","image grid","q","","","","","Ontogenetic_Distractor_Threat_target","2500","ongrid","q","2","Ontogenetic","true","experimental"
"","null","html-keyboard-response","361","337666","0.0-15.0-2.9","VZLXR5QrXu","63c34086cb929e7c9b844a67","6617fad957f7c6a12ea16e26","6622cf0da83cde040ac06e69","
    <div id=""grid-container"">
        <!-- Grid items will be dynamically added here -->
    </div>    ","null","","","","","","","","","","","",""
"","null","html-keyboard-response","362","338369","0.0-15.0-0.10","VZLXR5QrXu","63c34086cb929e7c9b844a67","6617fad957f7c6a12ea16e26","6622cf0da83cde040ac06e69","fixation cross","null","","","","","","","","","","","",""
"","1247","html-keyboard-response","363","339617","0.0-15.0-1.10","VZLXR5QrXu","63c34086cb929e7c9b844a67","6617fad957f7c6a12ea16e26","6622cf0da83cde040ac06e69","image grid","q","","","","","Ontogenetic_Distractor_Threat_target","2500","ongrid","q","9","Ontogenetic","true","experimental"
"","null","html-keyboard-response","364","339773","0.0-15.0-2.10","VZLXR5QrXu","63c34086cb929e7c9b844a67","6617fad957f7c6a12ea16e26","6622cf0da83cde040ac06e69","
    <div id=""grid-container"">
        <!-- Grid items will be dynamically added here -->
    </div>    ","null","","","","","","","","","","","",""
"","null","html-keyboard-response","365","340490","0.0-15.0-0.11","VZLXR5QrXu","63c34086cb929e7c9b844a67","6617fad957f7c6a12ea16e26","6622cf0da83cde040ac06e69","fixation cross","null","","","","","","","","","","","",""
"","750","html-keyboard-response","366","341240","0.0-15.0-1.11","VZLXR5QrXu","63c34086cb929e7c9b844a67","6617fad957f7c6a12ea16e26","6622cf0da83cde040ac06e69","image grid","q","","","","","Ontogenetic_Distractor_Threat_target","2500","ongrid","q","2","Ontogenetic","true","experimental"
"","null","html-keyboard-response","367","341392","0.0-15.0-2.11","VZLXR5QrXu","63c34086cb929e7c9b844a67","6617fad957f7c6a12ea16e26","6622cf0da83cde040ac06e69","
    <div id=""grid-container"">
        <!-- Grid items will be dynamically added here -->
    </div>    ","null","","","","","","","","","","","",""
"","null","html-keyboard-response","368","342116","0.0-15.0-0.12","VZLXR5QrXu","63c34086cb929e7c9b844a67","6617fad957f7c6a12ea16e26","6622cf0da83cde040ac06e69","fixation cross","null","","","","","","","","","","","",""
"","724","html-keyboard-response","369","342841","0.0-15.0-1.12","VZLXR5QrXu","63c34086cb929e7c9b844a67","6617fad957f7c6a12ea16e26","6622cf0da83cde040ac06e69","image grid","q","","","","","Ontogenetic_Distractor_Threat_target","2500","ongrid","q","4","Ontogenetic","true","experimental"
