"success","rt","trial_type","trial_index","time_elapsed","internal_node_id","unique_identifier","subject_id","study_id","session_id","stimulus","response","timeout","failed_images","failed_audio","failed_video","task","time_manipulation","respondedwhen","correctresponse","targetimagelocation","blocktype","correct","roundtype"
"true","2945","fullscreen","0","3948","0.0-0.0","OcsDv4CBT9","65fedd69bd65bd4eab478192","6617fad957f7c6a12ea16e26","6622cca1de5c5465f45ded2f","","","","","","","","","","","","","",""
"","16665","html-keyboard-response","1","20614","0.0-1.0","OcsDv4CBT9","65fedd69bd65bd4eab478192","6617fad957f7c6a12ea16e26","6622cca1de5c5465f45ded2f","instruction screen 0","enter","","","","","","","","","","","",""
"true","","preload","2","21309","0.0-2.0","OcsDv4CBT9","65fedd69bd65bd4eab478192","6617fad957f7c6a12ea16e26","6622cca1de5c5465f45ded2f","","","false","[]","[]","[]","","","","","","","",""
"","12693","html-keyboard-response","3","34006","0.0-3.0","OcsDv4CBT9","65fedd69bd65bd4eab478192","6617fad957f7c6a12ea16e26","6622cca1de5c5465f45ded2f","instruction screen 1","enter","","","","","","","","","","","",""
"","9302","html-keyboard-response","4","43310","0.0-4.0","OcsDv4CBT9","65fedd69bd65bd4eab478192","6617fad957f7c6a12ea16e26","6622cca1de5c5465f45ded2f","instruction screen 2","q","","","","","","","","","","","",""
"","7519","html-keyboard-response","5","50830","0.0-5.0","OcsDv4CBT9","65fedd69bd65bd4eab478192","6617fad957f7c6a12ea16e26","6622cca1de5c5465f45ded2f","instruction screen 3","p","","","","","","","","","","","",""
"","7910","html-keyboard-response","6","58742","0.0-6.0","OcsDv4CBT9","65fedd69bd65bd4eab478192","6617fad957f7c6a12ea16e26","6622cca1de5c5465f45ded2f","instruction screen 4"," ","","","","","","","","","","","",""
"","12271","html-keyboard-response","7","71015","0.0-7.0","OcsDv4CBT9","65fedd69bd65bd4eab478192","6617fad957f7c6a12ea16e26","6622cca1de5c5465f45ded2f","instruction screen 5"," ","","","","","","","","","","","",""
"","null","html-keyboard-response","8","71550","0.0-8.0","OcsDv4CBT9","65fedd69bd65bd4eab478192","6617fad957f7c6a12ea16e26","6622cca1de5c5465f45ded2f","fixation cross","null","","","","","","","","","","","",""
"","null","html-keyboard-response","9","72063","0.0-9.0-0.0","OcsDv4CBT9","65fedd69bd65bd4eab478192","6617fad957f7c6a12ea16e26","6622cca1de5c5465f45ded2f","fixation cross","null","","","","","","","","","","","",""
"","2712","html-keyboard-response","10","74775","0.0-9.0-1.0","OcsDv4CBT9","65fedd69bd65bd4eab478192","6617fad957f7c6a12ea16e26","6622cca1de5c5465f45ded2f","image grid","q","","","","","Ontogenetic_Distractor_Threat_target","3000","ongrid","q","9","Ontogenetic","true","practice"
"","null","html-keyboard-response","11","74937","0.0-9.0-2.0","OcsDv4CBT9","65fedd69bd65bd4eab478192","6617fad957f7c6a12ea16e26","6622cca1de5c5465f45ded2f","
    <div id=""grid-container"">
        <!-- Grid items will be dynamically added here -->
    </div>    ","null","","","","","","","","","","","",""
"","null","html-keyboard-response","12","76152","0.0-9.0-3.0","OcsDv4CBT9","65fedd69bd65bd4eab478192","6617fad957f7c6a12ea16e26","6622cca1de5c5465f45ded2f","feedback screen","null","","","","","","","","","","","",""
"","null","html-keyboard-response","13","76668","0.0-9.0-0.1","OcsDv4CBT9","65fedd69bd65bd4eab478192","6617fad957f7c6a12ea16e26","6622cca1de5c5465f45ded2f","fixation cross","null","","","","","","","","","","","",""
"","2099","html-keyboard-response","14","78767","0.0-9.0-1.1","OcsDv4CBT9","65fedd69bd65bd4eab478192","6617fad957f7c6a12ea16e26","6622cca1de5c5465f45ded2f","image grid"," ","","","","","Ontogenetic_Distractor_notarget","2900","ongrid"," ","2","Ontogenetic","true","practice"
"","null","html-keyboard-response","15","78930","0.0-9.0-2.1","OcsDv4CBT9","65fedd69bd65bd4eab478192","6617fad957f7c6a12ea16e26","6622cca1de5c5465f45ded2f","
    <div id=""grid-container"">
        <!-- Grid items will be dynamically added here -->
    </div>    ","null","","","","","","","","","","","",""
"","null","html-keyboard-response","16","80148","0.0-9.0-3.1","OcsDv4CBT9","65fedd69bd65bd4eab478192","6617fad957f7c6a12ea16e26","6622cca1de5c5465f45ded2f","feedback screen","null","","","","","","","","","","","",""
"","null","html-keyboard-response","17","80660","0.0-9.0-0.2","OcsDv4CBT9","65fedd69bd65bd4eab478192","6617fad957f7c6a12ea16e26","6622cca1de5c5465f45ded2f","fixation cross","null","","","","","","","","","","","",""
"","2403","html-keyboard-response","18","83063","0.0-9.0-1.2","OcsDv4CBT9","65fedd69bd65bd4eab478192","6617fad957f7c6a12ea16e26","6622cca1de5c5465f45ded2f","image grid","q","","","","","Phylogenetic_Distractor_Threat_target","2800","ongrid","q","7","Ontogenetic","true","practice"
"","null","html-keyboard-response","19","83215","0.0-9.0-2.2","OcsDv4CBT9","65fedd69bd65bd4eab478192","6617fad957f7c6a12ea16e26","6622cca1de5c5465f45ded2f","
    <div id=""grid-container"">
        <!-- Grid items will be dynamically added here -->
    </div>    ","null","","","","","","","","","","","",""
"","null","html-keyboard-response","20","84430","0.0-9.0-3.2","OcsDv4CBT9","65fedd69bd65bd4eab478192","6617fad957f7c6a12ea16e26","6622cca1de5c5465f45ded2f","feedback screen","null","","","","","","","","","","","",""
"","null","html-keyboard-response","21","84944","0.0-9.0-0.3","OcsDv4CBT9","65fedd69bd65bd4eab478192","6617fad957f7c6a12ea16e26","6622cca1de5c5465f45ded2f","fixation cross","null","","","","","","","","","","","",""
"","2047","html-keyboard-response","22","86991","0.0-9.0-1.3","OcsDv4CBT9","65fedd69bd65bd4eab478192","6617fad957f7c6a12ea16e26","6622cca1de5c5465f45ded2f","image grid","p","","","","","Ontogenetic_Distractor_Nonthreat_target","2700","ongrid","p","8","Ontogenetic","true","practice"
"","null","html-keyboard-response","23","87151","0.0-9.0-2.3","OcsDv4CBT9","65fedd69bd65bd4eab478192","6617fad957f7c6a12ea16e26","6622cca1de5c5465f45ded2f","
    <div id=""grid-container"">
        <!-- Grid items will be dynamically added here -->
    </div>    ","null","","","","","","","","","","","",""
"","null","html-keyboard-response","24","88363","0.0-9.0-3.3","OcsDv4CBT9","65fedd69bd65bd4eab478192","6617fad957f7c6a12ea16e26","6622cca1de5c5465f45ded2f","feedback screen","null","","","","","","","","","","","",""
"","null","html-keyboard-response","25","88879","0.0-9.0-0.4","OcsDv4CBT9","65fedd69bd65bd4eab478192","6617fad957f7c6a12ea16e26","6622cca1de5c5465f45ded2f","fixation cross","null","","","","","","","","","","","",""
"","null","html-keyboard-response","26","91480","0.0-9.0-1.4","OcsDv4CBT9","65fedd69bd65bd4eab478192","6617fad957f7c6a12ea16e26","6622cca1de5c5465f45ded2f","
        <div id=""grid-container"">
        <!-- Grid items will be dynamically added here -->
    </div>    ","null","","","","","","","","","","","",""
"","2613","html-keyboard-response","27","91493","0.0-9.0-2.4","OcsDv4CBT9","65fedd69bd65bd4eab478192","6617fad957f7c6a12ea16e26","6622cca1de5c5465f45ded2f","mask grid"," ","","","","","Phylogenetic_Distractor_notarget","2600","onmask"," ","5","Ontogenetic","true","practice"
"","null","html-keyboard-response","28","92707","0.0-9.0-3.4","OcsDv4CBT9","65fedd69bd65bd4eab478192","6617fad957f7c6a12ea16e26","6622cca1de5c5465f45ded2f","feedback screen","null","","","","","","","","","","","",""
"","null","html-keyboard-response","29","93218","0.0-9.0-0.5","OcsDv4CBT9","65fedd69bd65bd4eab478192","6617fad957f7c6a12ea16e26","6622cca1de5c5465f45ded2f","fixation cross","null","","","","","","","","","","","",""
"","1277","html-keyboard-response","30","94496","0.0-9.0-1.5","OcsDv4CBT9","65fedd69bd65bd4eab478192","6617fad957f7c6a12ea16e26","6622cca1de5c5465f45ded2f","image grid","q","","","","","Phylogenetic_Distractor_Threat_target","2500","ongrid","q","5","Ontogenetic","true","practice"
"","null","html-keyboard-response","31","94650","0.0-9.0-2.5","OcsDv4CBT9","65fedd69bd65bd4eab478192","6617fad957f7c6a12ea16e26","6622cca1de5c5465f45ded2f","
    <div id=""grid-container"">
        <!-- Grid items will be dynamically added here -->
    </div>    ","null","","","","","","","","","","","",""
"","null","html-keyboard-response","32","95856","0.0-9.0-3.5","OcsDv4CBT9","65fedd69bd65bd4eab478192","6617fad957f7c6a12ea16e26","6622cca1de5c5465f45ded2f","feedback screen","null","","","","","","","","","","","",""
"","null","html-keyboard-response","33","96368","0.0-9.0-0.6","OcsDv4CBT9","65fedd69bd65bd4eab478192","6617fad957f7c6a12ea16e26","6622cca1de5c5465f45ded2f","fixation cross","null","","","","","","","","","","","",""
"","1167","html-keyboard-response","34","97535","0.0-9.0-1.6","OcsDv4CBT9","65fedd69bd65bd4eab478192","6617fad957f7c6a12ea16e26","6622cca1de5c5465f45ded2f","image grid"," ","","","","","Ontogenetic_Distractor_Nonthreat_target","2400","ongrid","p","3","Ontogenetic","false","practice"
"","null","html-keyboard-response","35","97688","0.0-9.0-2.6","OcsDv4CBT9","65fedd69bd65bd4eab478192","6617fad957f7c6a12ea16e26","6622cca1de5c5465f45ded2f","
    <div id=""grid-container"">
        <!-- Grid items will be dynamically added here -->
    </div>    ","null","","","","","","","","","","","",""
"","null","html-keyboard-response","36","98904","0.0-9.0-3.6","OcsDv4CBT9","65fedd69bd65bd4eab478192","6617fad957f7c6a12ea16e26","6622cca1de5c5465f45ded2f","feedback screen","null","","","","","","","","","","","",""
"","null","html-keyboard-response","37","99414","0.0-9.0-0.7","OcsDv4CBT9","65fedd69bd65bd4eab478192","6617fad957f7c6a12ea16e26","6622cca1de5c5465f45ded2f","fixation cross","null","","","","","","","","","","","",""
"","null","html-keyboard-response","38","101729","0.0-9.0-1.7","OcsDv4CBT9","65fedd69bd65bd4eab478192","6617fad957f7c6a12ea16e26","6622cca1de5c5465f45ded2f","
        <div id=""grid-container"">
        <!-- Grid items will be dynamically added here -->
    </div>    ","null","","","","","","","","","","","",""
"","5923","html-keyboard-response","39","105352","0.0-9.0-2.7","OcsDv4CBT9","65fedd69bd65bd4eab478192","6617fad957f7c6a12ea16e26","6622cca1de5c5465f45ded2f","mask grid"," ","","","","","Phylogenetic_Distractor_Nonthreat_target","2300","onmask","p","8","Ontogenetic","false","practice"
"","null","html-keyboard-response","40","106564","0.0-9.0-3.7","OcsDv4CBT9","65fedd69bd65bd4eab478192","6617fad957f7c6a12ea16e26","6622cca1de5c5465f45ded2f","feedback screen","null","","","","","","","","","","","",""
"","null","html-keyboard-response","41","107076","0.0-9.0-0.8","OcsDv4CBT9","65fedd69bd65bd4eab478192","6617fad957f7c6a12ea16e26","6622cca1de5c5465f45ded2f","fixation cross","null","","","","","","","","","","","",""
"","1067","html-keyboard-response","42","108143","0.0-9.0-1.8","OcsDv4CBT9","65fedd69bd65bd4eab478192","6617fad957f7c6a12ea16e26","6622cca1de5c5465f45ded2f","image grid","q","","","","","Phylogenetic_Distractor_Threat_target","2200","ongrid","q","4","Ontogenetic","true","practice"
"","null","html-keyboard-response","43","108308","0.0-9.0-2.8","OcsDv4CBT9","65fedd69bd65bd4eab478192","6617fad957f7c6a12ea16e26","6622cca1de5c5465f45ded2f","
    <div id=""grid-container"">
        <!-- Grid items will be dynamically added here -->
    </div>    ","null","","","","","","","","","","","",""
"","null","html-keyboard-response","44","109521","0.0-9.0-3.8","OcsDv4CBT9","65fedd69bd65bd4eab478192","6617fad957f7c6a12ea16e26","6622cca1de5c5465f45ded2f","feedback screen","null","","","","","","","","","","","",""
"","null","html-keyboard-response","45","110037","0.0-9.0-0.9","OcsDv4CBT9","65fedd69bd65bd4eab478192","6617fad957f7c6a12ea16e26","6622cca1de5c5465f45ded2f","fixation cross","null","","","","","","","","","","","",""
"","1186","html-keyboard-response","46","111223","0.0-9.0-1.9","OcsDv4CBT9","65fedd69bd65bd4eab478192","6617fad957f7c6a12ea16e26","6622cca1de5c5465f45ded2f","image grid","p","","","","","Ontogenetic_Distractor_Nonthreat_target","2100","ongrid","p","2","Ontogenetic","true","practice"
"","null","html-keyboard-response","47","111379","0.0-9.0-2.9","OcsDv4CBT9","65fedd69bd65bd4eab478192","6617fad957f7c6a12ea16e26","6622cca1de5c5465f45ded2f","
    <div id=""grid-container"">
        <!-- Grid items will be dynamically added here -->
    </div>    ","null","","","","","","","","","","","",""
"","null","html-keyboard-response","48","112592","0.0-9.0-3.9","OcsDv4CBT9","65fedd69bd65bd4eab478192","6617fad957f7c6a12ea16e26","6622cca1de5c5465f45ded2f","feedback screen","null","","","","","","","","","","","",""
"","null","html-keyboard-response","49","113105","0.0-9.0-0.10","OcsDv4CBT9","65fedd69bd65bd4eab478192","6617fad957f7c6a12ea16e26","6622cca1de5c5465f45ded2f","fixation cross","null","","","","","","","","","","","",""
"","1062","html-keyboard-response","50","114167","0.0-9.0-1.10","OcsDv4CBT9","65fedd69bd65bd4eab478192","6617fad957f7c6a12ea16e26","6622cca1de5c5465f45ded2f","image grid","q","","","","","Ontogenetic_Distractor_Threat_target","2000","ongrid","q","8","Ontogenetic","true","practice"
"","null","html-keyboard-response","51","114322","0.0-9.0-2.10","OcsDv4CBT9","65fedd69bd65bd4eab478192","6617fad957f7c6a12ea16e26","6622cca1de5c5465f45ded2f","
    <div id=""grid-container"">
        <!-- Grid items will be dynamically added here -->
    </div>    ","null","","","","","","","","","","","",""
"","null","html-keyboard-response","52","115537","0.0-9.0-3.10","OcsDv4CBT9","65fedd69bd65bd4eab478192","6617fad957f7c6a12ea16e26","6622cca1de5c5465f45ded2f","feedback screen","null","","","","","","","","","","","",""
"","null","html-keyboard-response","53","116050","0.0-9.0-0.11","OcsDv4CBT9","65fedd69bd65bd4eab478192","6617fad957f7c6a12ea16e26","6622cca1de5c5465f45ded2f","fixation cross","null","","","","","","","","","","","",""
"","null","html-keyboard-response","54","117953","0.0-9.0-1.11","OcsDv4CBT9","65fedd69bd65bd4eab478192","6617fad957f7c6a12ea16e26","6622cca1de5c5465f45ded2f","
        <div id=""grid-container"">
        <!-- Grid items will be dynamically added here -->
    </div>    ","null","","","","","","","","","","","",""
"","1923","html-keyboard-response","55","117976","0.0-9.0-2.11","OcsDv4CBT9","65fedd69bd65bd4eab478192","6617fad957f7c6a12ea16e26","6622cca1de5c5465f45ded2f","mask grid"," ","","","","","Phylogenetic_Distractor_Nonthreat_target","1900","onmask","p","4","Ontogenetic","false","practice"
"","null","html-keyboard-response","56","119197","0.0-9.0-3.11","OcsDv4CBT9","65fedd69bd65bd4eab478192","6617fad957f7c6a12ea16e26","6622cca1de5c5465f45ded2f","feedback screen","null","","","","","","","","","","","",""
"","null","html-keyboard-response","57","119710","0.0-9.0-0.12","OcsDv4CBT9","65fedd69bd65bd4eab478192","6617fad957f7c6a12ea16e26","6622cca1de5c5465f45ded2f","fixation cross","null","","","","","","","","","","","",""
"","1361","html-keyboard-response","58","121071","0.0-9.0-1.12","OcsDv4CBT9","65fedd69bd65bd4eab478192","6617fad957f7c6a12ea16e26","6622cca1de5c5465f45ded2f","image grid","p","","","","","Phylogenetic_Distractor_Nonthreat_target","1800","ongrid","p","5","Ontogenetic","true","practice"
"","null","html-keyboard-response","59","121223","0.0-9.0-2.12","OcsDv4CBT9","65fedd69bd65bd4eab478192","6617fad957f7c6a12ea16e26","6622cca1de5c5465f45ded2f","
    <div id=""grid-container"">
        <!-- Grid items will be dynamically added here -->
    </div>    ","null","","","","","","","","","","","",""
"","null","html-keyboard-response","60","122436","0.0-9.0-3.12","OcsDv4CBT9","65fedd69bd65bd4eab478192","6617fad957f7c6a12ea16e26","6622cca1de5c5465f45ded2f","feedback screen","null","","","","","","","","","","","",""
"","null","html-keyboard-response","61","122949","0.0-9.0-0.13","OcsDv4CBT9","65fedd69bd65bd4eab478192","6617fad957f7c6a12ea16e26","6622cca1de5c5465f45ded2f","fixation cross","null","","","","","","","","","","","",""
"","null","html-keyboard-response","62","124652","0.0-9.0-1.13","OcsDv4CBT9","65fedd69bd65bd4eab478192","6617fad957f7c6a12ea16e26","6622cca1de5c5465f45ded2f","
        <div id=""grid-container"">
        <!-- Grid items will be dynamically added here -->
    </div>    ","null","","","","","","","","","","","",""
"","1759","html-keyboard-response","63","124711","0.0-9.0-2.13","OcsDv4CBT9","65fedd69bd65bd4eab478192","6617fad957f7c6a12ea16e26","6622cca1de5c5465f45ded2f","mask grid"," ","","","","","Ontogenetic_Distractor_notarget","1700","onmask"," ","1","Ontogenetic","true","practice"
"","null","html-keyboard-response","64","125926","0.0-9.0-3.13","OcsDv4CBT9","65fedd69bd65bd4eab478192","6617fad957f7c6a12ea16e26","6622cca1de5c5465f45ded2f","feedback screen","null","","","","","","","","","","","",""
"","null","html-keyboard-response","65","126442","0.0-9.0-0.14","OcsDv4CBT9","65fedd69bd65bd4eab478192","6617fad957f7c6a12ea16e26","6622cca1de5c5465f45ded2f","fixation cross","null","","","","","","","","","","","",""
"","1453","html-keyboard-response","66","127896","0.0-9.0-1.14","OcsDv4CBT9","65fedd69bd65bd4eab478192","6617fad957f7c6a12ea16e26","6622cca1de5c5465f45ded2f","image grid","p","","","","","Phylogenetic_Distractor_Nonthreat_target","1600","ongrid","p","4","Ontogenetic","true","practice"
"","null","html-keyboard-response","67","128051","0.0-9.0-2.14","OcsDv4CBT9","65fedd69bd65bd4eab478192","6617fad957f7c6a12ea16e26","6622cca1de5c5465f45ded2f","
    <div id=""grid-container"">
        <!-- Grid items will be dynamically added here -->
    </div>    ","null","","","","","","","","","","","",""
"","null","html-keyboard-response","68","129268","0.0-9.0-3.14","OcsDv4CBT9","65fedd69bd65bd4eab478192","6617fad957f7c6a12ea16e26","6622cca1de5c5465f45ded2f","feedback screen","null","","","","","","","","","","","",""
"","null","html-keyboard-response","69","129781","0.0-9.0-0.15","OcsDv4CBT9","65fedd69bd65bd4eab478192","6617fad957f7c6a12ea16e26","6622cca1de5c5465f45ded2f","fixation cross","null","","","","","","","","","","","",""
"","null","html-keyboard-response","70","131282","0.0-9.0-1.15","OcsDv4CBT9","65fedd69bd65bd4eab478192","6617fad957f7c6a12ea16e26","6622cca1de5c5465f45ded2f","
        <div id=""grid-container"">
        <!-- Grid items will be dynamically added here -->
    </div>    ","null","","","","","","","","","","","",""
"","1818","html-keyboard-response","71","131600","0.0-9.0-2.15","OcsDv4CBT9","65fedd69bd65bd4eab478192","6617fad957f7c6a12ea16e26","6622cca1de5c5465f45ded2f","mask grid"," ","","","","","Phylogenetic_Distractor_notarget","1500","onmask"," ","2","Ontogenetic","true","practice"
"","null","html-keyboard-response","72","132827","0.0-9.0-3.15","OcsDv4CBT9","65fedd69bd65bd4eab478192","6617fad957f7c6a12ea16e26","6622cca1de5c5465f45ded2f","feedback screen","null","","","","","","","","","","","",""
"","null","html-keyboard-response","73","133341","0.0-9.0-0.16","OcsDv4CBT9","65fedd69bd65bd4eab478192","6617fad957f7c6a12ea16e26","6622cca1de5c5465f45ded2f","fixation cross","null","","","","","","","","","","","",""
"","811","html-keyboard-response","74","134152","0.0-9.0-1.16","OcsDv4CBT9","65fedd69bd65bd4eab478192","6617fad957f7c6a12ea16e26","6622cca1de5c5465f45ded2f","image grid","p","","","","","Ontogenetic_Distractor_Nonthreat_target","1400","ongrid","p","2","Ontogenetic","true","practice"
"","null","html-keyboard-response","75","134309","0.0-9.0-2.16","OcsDv4CBT9","65fedd69bd65bd4eab478192","6617fad957f7c6a12ea16e26","6622cca1de5c5465f45ded2f","
    <div id=""grid-container"">
        <!-- Grid items will be dynamically added here -->
    </div>    ","null","","","","","","","","","","","",""
"","null","html-keyboard-response","76","135526","0.0-9.0-3.16","OcsDv4CBT9","65fedd69bd65bd4eab478192","6617fad957f7c6a12ea16e26","6622cca1de5c5465f45ded2f","feedback screen","null","","","","","","","","","","","",""
"","null","html-keyboard-response","77","136037","0.0-9.0-0.17","OcsDv4CBT9","65fedd69bd65bd4eab478192","6617fad957f7c6a12ea16e26","6622cca1de5c5465f45ded2f","fixation cross","null","","","","","","","","","","","",""
"","1082","html-keyboard-response","78","137120","0.0-9.0-1.17","OcsDv4CBT9","65fedd69bd65bd4eab478192","6617fad957f7c6a12ea16e26","6622cca1de5c5465f45ded2f","image grid","q","","","","","Phylogenetic_Distractor_Threat_target","1300","ongrid","q","2","Ontogenetic","true","practice"
"","null","html-keyboard-response","79","137274","0.0-9.0-2.17","OcsDv4CBT9","65fedd69bd65bd4eab478192","6617fad957f7c6a12ea16e26","6622cca1de5c5465f45ded2f","
    <div id=""grid-container"">
        <!-- Grid items will be dynamically added here -->
    </div>    ","null","","","","","","","","","","","",""
"","null","html-keyboard-response","80","138489","0.0-9.0-3.17","OcsDv4CBT9","65fedd69bd65bd4eab478192","6617fad957f7c6a12ea16e26","6622cca1de5c5465f45ded2f","feedback screen","null","","","","","","","","","","","",""
"","null","html-keyboard-response","81","139005","0.0-9.0-0.18","OcsDv4CBT9","65fedd69bd65bd4eab478192","6617fad957f7c6a12ea16e26","6622cca1de5c5465f45ded2f","fixation cross","null","","","","","","","","","","","",""
"","1123","html-keyboard-response","82","140128","0.0-9.0-1.18","OcsDv4CBT9","65fedd69bd65bd4eab478192","6617fad957f7c6a12ea16e26","6622cca1de5c5465f45ded2f","image grid","q","","","","","Ontogenetic_Distractor_Threat_target","1200","ongrid","q","8","Ontogenetic","true","practice"
"","null","html-keyboard-response","83","140283","0.0-9.0-2.18","OcsDv4CBT9","65fedd69bd65bd4eab478192","6617fad957f7c6a12ea16e26","6622cca1de5c5465f45ded2f","
    <div id=""grid-container"">
        <!-- Grid items will be dynamically added here -->
    </div>    ","null","","","","","","","","","","","",""
"","null","html-keyboard-response","84","141502","0.0-9.0-3.18","OcsDv4CBT9","65fedd69bd65bd4eab478192","6617fad957f7c6a12ea16e26","6622cca1de5c5465f45ded2f","feedback screen","null","","","","","","","","","","","",""
"","null","html-keyboard-response","85","142015","0.0-9.0-0.19","OcsDv4CBT9","65fedd69bd65bd4eab478192","6617fad957f7c6a12ea16e26","6622cca1de5c5465f45ded2f","fixation cross","null","","","","","","","","","","","",""
"","697","html-keyboard-response","86","142712","0.0-9.0-1.19","OcsDv4CBT9","65fedd69bd65bd4eab478192","6617fad957f7c6a12ea16e26","6622cca1de5c5465f45ded2f","image grid","q","","","","","Ontogenetic_Distractor_Threat_target","1100","ongrid","q","8","Ontogenetic","true","practice"
"","null","html-keyboard-response","87","142872","0.0-9.0-2.19","OcsDv4CBT9","65fedd69bd65bd4eab478192","6617fad957f7c6a12ea16e26","6622cca1de5c5465f45ded2f","
    <div id=""grid-container"">
        <!-- Grid items will be dynamically added here -->
    </div>    ","null","","","","","","","","","","","",""
"","null","html-keyboard-response","88","144087","0.0-9.0-3.19","OcsDv4CBT9","65fedd69bd65bd4eab478192","6617fad957f7c6a12ea16e26","6622cca1de5c5465f45ded2f","feedback screen","null","","","","","","","","","","","",""
"","7181","html-keyboard-response","89","151288","0.0-10.0","OcsDv4CBT9","65fedd69bd65bd4eab478192","6617fad957f7c6a12ea16e26","6622cca1de5c5465f45ded2f","pre-experimental_briefing"," ","","","","","","","","","","","",""
"","null","html-keyboard-response","90","153825","0.0-11.0-0.0","OcsDv4CBT9","65fedd69bd65bd4eab478192","6617fad957f7c6a12ea16e26","6622cca1de5c5465f45ded2f","fixation cross","null","","","","","","","","","","","",""
"","1864","html-keyboard-response","91","155689","0.0-11.0-1.0","OcsDv4CBT9","65fedd69bd65bd4eab478192","6617fad957f7c6a12ea16e26","6622cca1de5c5465f45ded2f","image grid","p","","","","","Ontogenetic_Distractor_Nonthreat_target","2500","ongrid","p","7","Ontogenetic","true","experimental"
"","null","html-keyboard-response","92","155849","0.0-11.0-2.0","OcsDv4CBT9","65fedd69bd65bd4eab478192","6617fad957f7c6a12ea16e26","6622cca1de5c5465f45ded2f","
    <div id=""grid-container"">
        <!-- Grid items will be dynamically added here -->
    </div>    ","null","","","","","","","","","","","",""
"","null","html-keyboard-response","93","156565","0.0-11.0-0.1","OcsDv4CBT9","65fedd69bd65bd4eab478192","6617fad957f7c6a12ea16e26","6622cca1de5c5465f45ded2f","fixation cross","null","","","","","","","","","","","",""
"","915","html-keyboard-response","94","157480","0.0-11.0-1.1","OcsDv4CBT9","65fedd69bd65bd4eab478192","6617fad957f7c6a12ea16e26","6622cca1de5c5465f45ded2f","image grid","p","","","","","Ontogenetic_Distractor_Nonthreat_target","2500","ongrid","p","6","Ontogenetic","true","experimental"
"","null","html-keyboard-response","95","157643","0.0-11.0-2.1","OcsDv4CBT9","65fedd69bd65bd4eab478192","6617fad957f7c6a12ea16e26","6622cca1de5c5465f45ded2f","
    <div id=""grid-container"">
        <!-- Grid items will be dynamically added here -->
    </div>    ","null","","","","","","","","","","","",""
"","null","html-keyboard-response","96","158347","0.0-11.0-0.2","OcsDv4CBT9","65fedd69bd65bd4eab478192","6617fad957f7c6a12ea16e26","6622cca1de5c5465f45ded2f","fixation cross","null","","","","","","","","","","","",""
"","1037","html-keyboard-response","97","159384","0.0-11.0-1.2","OcsDv4CBT9","65fedd69bd65bd4eab478192","6617fad957f7c6a12ea16e26","6622cca1de5c5465f45ded2f","image grid","p","","","","","Ontogenetic_Distractor_Nonthreat_target","2500","ongrid","p","2","Ontogenetic","true","experimental"
"","null","html-keyboard-response","98","159546","0.0-11.0-2.2","OcsDv4CBT9","65fedd69bd65bd4eab478192","6617fad957f7c6a12ea16e26","6622cca1de5c5465f45ded2f","
    <div id=""grid-container"">
        <!-- Grid items will be dynamically added here -->
    </div>    ","null","","","","","","","","","","","",""
"","null","html-keyboard-response","99","160261","0.0-11.0-0.3","OcsDv4CBT9","65fedd69bd65bd4eab478192","6617fad957f7c6a12ea16e26","6622cca1de5c5465f45ded2f","fixation cross","null","","","","","","","","","","","",""
"","971","html-keyboard-response","100","161232","0.0-11.0-1.3","OcsDv4CBT9","65fedd69bd65bd4eab478192","6617fad957f7c6a12ea16e26","6622cca1de5c5465f45ded2f","image grid","q","","","","","Ontogenetic_Distractor_Threat_target","2500","ongrid","q","6","Ontogenetic","true","experimental"
"","null","html-keyboard-response","101","161384","0.0-11.0-2.3","OcsDv4CBT9","65fedd69bd65bd4eab478192","6617fad957f7c6a12ea16e26","6622cca1de5c5465f45ded2f","
    <div id=""grid-container"">
        <!-- Grid items will be dynamically added here -->
    </div>    ","null","","","","","","","","","","","",""
"","null","html-keyboard-response","102","162100","0.0-11.0-0.4","OcsDv4CBT9","65fedd69bd65bd4eab478192","6617fad957f7c6a12ea16e26","6622cca1de5c5465f45ded2f","fixation cross","null","","","","","","","","","","","",""
"","1188","html-keyboard-response","103","163288","0.0-11.0-1.4","OcsDv4CBT9","65fedd69bd65bd4eab478192","6617fad957f7c6a12ea16e26","6622cca1de5c5465f45ded2f","image grid","q","","","","","Ontogenetic_Distractor_Threat_target","2500","ongrid","q","2","Ontogenetic","true","experimental"
"","null","html-keyboard-response","104","163440","0.0-11.0-2.4","OcsDv4CBT9","65fedd69bd65bd4eab478192","6617fad957f7c6a12ea16e26","6622cca1de5c5465f45ded2f","
    <div id=""grid-container"">
        <!-- Grid items will be dynamically added here -->
    </div>    ","null","","","","","","","","","","","",""
"","null","html-keyboard-response","105","164160","0.0-11.0-0.5","OcsDv4CBT9","65fedd69bd65bd4eab478192","6617fad957f7c6a12ea16e26","6622cca1de5c5465f45ded2f","fixation cross","null","","","","","","","","","","","",""
"","743","html-keyboard-response","106","164904","0.0-11.0-1.5","OcsDv4CBT9","65fedd69bd65bd4eab478192","6617fad957f7c6a12ea16e26","6622cca1de5c5465f45ded2f","image grid","q","","","","","Ontogenetic_Distractor_Threat_target","2500","ongrid","q","7","Ontogenetic","true","experimental"
"","null","html-keyboard-response","107","165065","0.0-11.0-2.5","OcsDv4CBT9","65fedd69bd65bd4eab478192","6617fad957f7c6a12ea16e26","6622cca1de5c5465f45ded2f","
    <div id=""grid-container"">
        <!-- Grid items will be dynamically added here -->
    </div>    ","null","","","","","","","","","","","",""
"","null","html-keyboard-response","108","165794","0.0-11.0-0.6","OcsDv4CBT9","65fedd69bd65bd4eab478192","6617fad957f7c6a12ea16e26","6622cca1de5c5465f45ded2f","fixation cross","null","","","","","","","","","","","",""
"","670","html-keyboard-response","109","166465","0.0-11.0-1.6","OcsDv4CBT9","65fedd69bd65bd4eab478192","6617fad957f7c6a12ea16e26","6622cca1de5c5465f45ded2f","image grid","q","","","","","Ontogenetic_Distractor_Threat_target","2500","ongrid","q","6","Ontogenetic","true","experimental"
"","null","html-keyboard-response","110","166616","0.0-11.0-2.6","OcsDv4CBT9","65fedd69bd65bd4eab478192","6617fad957f7c6a12ea16e26","6622cca1de5c5465f45ded2f","
    <div id=""grid-container"">
        <!-- Grid items will be dynamically added here -->
    </div>    ","null","","","","","","","","","","","",""
"","null","html-keyboard-response","111","167327","0.0-11.0-0.7","OcsDv4CBT9","65fedd69bd65bd4eab478192","6617fad957f7c6a12ea16e26","6622cca1de5c5465f45ded2f","fixation cross","null","","","","","","","","","","","",""
"","1273","html-keyboard-response","112","168600","0.0-11.0-1.7","OcsDv4CBT9","65fedd69bd65bd4eab478192","6617fad957f7c6a12ea16e26","6622cca1de5c5465f45ded2f","image grid"," ","","","","","Ontogenetic_Distractor_Nonthreat_target","2500","ongrid","p","1","Ontogenetic","false","experimental"
"","null","html-keyboard-response","113","168760","0.0-11.0-2.7","OcsDv4CBT9","65fedd69bd65bd4eab478192","6617fad957f7c6a12ea16e26","6622cca1de5c5465f45ded2f","
    <div id=""grid-container"">
        <!-- Grid items will be dynamically added here -->
    </div>    ","null","","","","","","","","","","","",""
"","null","html-keyboard-response","114","169464","0.0-11.0-0.8","OcsDv4CBT9","65fedd69bd65bd4eab478192","6617fad957f7c6a12ea16e26","6622cca1de5c5465f45ded2f","fixation cross","null","","","","","","","","","","","",""
"","1432","html-keyboard-response","115","170896","0.0-11.0-1.8","OcsDv4CBT9","65fedd69bd65bd4eab478192","6617fad957f7c6a12ea16e26","6622cca1de5c5465f45ded2f","image grid"," ","","","","","Ontogenetic_Distractor_notarget","2500","ongrid"," ","1","Ontogenetic","true","experimental"
"","null","html-keyboard-response","116","171052","0.0-11.0-2.8","OcsDv4CBT9","65fedd69bd65bd4eab478192","6617fad957f7c6a12ea16e26","6622cca1de5c5465f45ded2f","
    <div id=""grid-container"">
        <!-- Grid items will be dynamically added here -->
    </div>    ","null","","","","","","","","","","","",""
"","null","html-keyboard-response","117","171769","0.0-11.0-0.9","OcsDv4CBT9","65fedd69bd65bd4eab478192","6617fad957f7c6a12ea16e26","6622cca1de5c5465f45ded2f","fixation cross","null","","","","","","","","","","","",""
"","935","html-keyboard-response","118","172705","0.0-11.0-1.9","OcsDv4CBT9","65fedd69bd65bd4eab478192","6617fad957f7c6a12ea16e26","6622cca1de5c5465f45ded2f","image grid","q","","","","","Ontogenetic_Distractor_Threat_target","2500","ongrid","q","6","Ontogenetic","true","experimental"
"","null","html-keyboard-response","119","172867","0.0-11.0-2.9","OcsDv4CBT9","65fedd69bd65bd4eab478192","6617fad957f7c6a12ea16e26","6622cca1de5c5465f45ded2f","
    <div id=""grid-container"">
        <!-- Grid items will be dynamically added here -->
    </div>    ","null","","","","","","","","","","","",""
"","null","html-keyboard-response","120","173585","0.0-11.0-0.10","OcsDv4CBT9","65fedd69bd65bd4eab478192","6617fad957f7c6a12ea16e26","6622cca1de5c5465f45ded2f","fixation cross","null","","","","","","","","","","","",""
"","1007","html-keyboard-response","121","174593","0.0-11.0-1.10","OcsDv4CBT9","65fedd69bd65bd4eab478192","6617fad957f7c6a12ea16e26","6622cca1de5c5465f45ded2f","image grid","q","","","","","Ontogenetic_Distractor_Threat_target","2500","ongrid","q","5","Ontogenetic","true","experimental"
"","null","html-keyboard-response","122","174750","0.0-11.0-2.10","OcsDv4CBT9","65fedd69bd65bd4eab478192","6617fad957f7c6a12ea16e26","6622cca1de5c5465f45ded2f","
    <div id=""grid-container"">
        <!-- Grid items will be dynamically added here -->
    </div>    ","null","","","","","","","","","","","",""
"","null","html-keyboard-response","123","175464","0.0-11.0-0.11","OcsDv4CBT9","65fedd69bd65bd4eab478192","6617fad957f7c6a12ea16e26","6622cca1de5c5465f45ded2f","fixation cross","null","","","","","","","","","","","",""
"","1969","html-keyboard-response","124","177433","0.0-11.0-1.11","OcsDv4CBT9","65fedd69bd65bd4eab478192","6617fad957f7c6a12ea16e26","6622cca1de5c5465f45ded2f","image grid","p","","","","","Ontogenetic_Distractor_Nonthreat_target","2500","ongrid","p","7","Ontogenetic","true","experimental"
"","null","html-keyboard-response","125","177594","0.0-11.0-2.11","OcsDv4CBT9","65fedd69bd65bd4eab478192","6617fad957f7c6a12ea16e26","6622cca1de5c5465f45ded2f","
    <div id=""grid-container"">
        <!-- Grid items will be dynamically added here -->
    </div>    ","null","","","","","","","","","","","",""
"","null","html-keyboard-response","126","178300","0.0-11.0-0.12","OcsDv4CBT9","65fedd69bd65bd4eab478192","6617fad957f7c6a12ea16e26","6622cca1de5c5465f45ded2f","fixation cross","null","","","","","","","","","","","",""
"","1124","html-keyboard-response","127","179425","0.0-11.0-1.12","OcsDv4CBT9","65fedd69bd65bd4eab478192","6617fad957f7c6a12ea16e26","6622cca1de5c5465f45ded2f","image grid","p","","","","","Ontogenetic_Distractor_Nonthreat_target","2500","ongrid","p","6","Ontogenetic","true","experimental"
"","null","html-keyboard-response","128","179579","0.0-11.0-2.12","OcsDv4CBT9","65fedd69bd65bd4eab478192","6617fad957f7c6a12ea16e26","6622cca1de5c5465f45ded2f","
    <div id=""grid-container"">
        <!-- Grid items will be dynamically added here -->
    </div>    ","null","","","","","","","","","","","",""
"","null","html-keyboard-response","129","180295","0.0-11.0-0.13","OcsDv4CBT9","65fedd69bd65bd4eab478192","6617fad957f7c6a12ea16e26","6622cca1de5c5465f45ded2f","fixation cross","null","","","","","","","","","","","",""
"","681","html-keyboard-response","130","180977","0.0-11.0-1.13","OcsDv4CBT9","65fedd69bd65bd4eab478192","6617fad957f7c6a12ea16e26","6622cca1de5c5465f45ded2f","image grid","q","","","","","Ontogenetic_Distractor_Threat_target","2500","ongrid","q","4","Ontogenetic","true","experimental"
"","null","html-keyboard-response","131","181137","0.0-11.0-2.13","OcsDv4CBT9","65fedd69bd65bd4eab478192","6617fad957f7c6a12ea16e26","6622cca1de5c5465f45ded2f","
    <div id=""grid-container"">
        <!-- Grid items will be dynamically added here -->
    </div>    ","null","","","","","","","","","","","",""
"","null","html-keyboard-response","132","181853","0.0-11.0-0.14","OcsDv4CBT9","65fedd69bd65bd4eab478192","6617fad957f7c6a12ea16e26","6622cca1de5c5465f45ded2f","fixation cross","null","","","","","","","","","","","",""
"","1060","html-keyboard-response","133","182912","0.0-11.0-1.14","OcsDv4CBT9","65fedd69bd65bd4eab478192","6617fad957f7c6a12ea16e26","6622cca1de5c5465f45ded2f","image grid"," ","","","","","Ontogenetic_Distractor_Nonthreat_target","2500","ongrid","p","7","Ontogenetic","false","experimental"
"","null","html-keyboard-response","134","183070","0.0-11.0-2.14","OcsDv4CBT9","65fedd69bd65bd4eab478192","6617fad957f7c6a12ea16e26","6622cca1de5c5465f45ded2f","
    <div id=""grid-container"">
        <!-- Grid items will be dynamically added here -->
    </div>    ","null","","","","","","","","","","","",""
"","null","html-keyboard-response","135","183786","0.0-11.0-0.15","OcsDv4CBT9","65fedd69bd65bd4eab478192","6617fad957f7c6a12ea16e26","6622cca1de5c5465f45ded2f","fixation cross","null","","","","","","","","","","","",""
"","934","html-keyboard-response","136","184720","0.0-11.0-1.15","OcsDv4CBT9","65fedd69bd65bd4eab478192","6617fad957f7c6a12ea16e26","6622cca1de5c5465f45ded2f","image grid","p","","","","","Ontogenetic_Distractor_Nonthreat_target","2500","ongrid","p","4","Ontogenetic","true","experimental"
"","null","html-keyboard-response","137","184878","0.0-11.0-2.15","OcsDv4CBT9","65fedd69bd65bd4eab478192","6617fad957f7c6a12ea16e26","6622cca1de5c5465f45ded2f","
    <div id=""grid-container"">
        <!-- Grid items will be dynamically added here -->
    </div>    ","null","","","","","","","","","","","",""
"","null","html-keyboard-response","138","185607","0.0-11.0-0.16","OcsDv4CBT9","65fedd69bd65bd4eab478192","6617fad957f7c6a12ea16e26","6622cca1de5c5465f45ded2f","fixation cross","null","","","","","","","","","","","",""
"","1129","html-keyboard-response","139","186736","0.0-11.0-1.16","OcsDv4CBT9","65fedd69bd65bd4eab478192","6617fad957f7c6a12ea16e26","6622cca1de5c5465f45ded2f","image grid","p","","","","","Ontogenetic_Distractor_Nonthreat_target","2500","ongrid","p","2","Ontogenetic","true","experimental"
"","null","html-keyboard-response","140","186888","0.0-11.0-2.16","OcsDv4CBT9","65fedd69bd65bd4eab478192","6617fad957f7c6a12ea16e26","6622cca1de5c5465f45ded2f","
    <div id=""grid-container"">
        <!-- Grid items will be dynamically added here -->
    </div>    ","null","","","","","","","","","","","",""
"","null","html-keyboard-response","141","187603","0.0-11.0-0.17","OcsDv4CBT9","65fedd69bd65bd4eab478192","6617fad957f7c6a12ea16e26","6622cca1de5c5465f45ded2f","fixation cross","null","","","","","","","","","","","",""
"","686","html-keyboard-response","142","188289","0.0-11.0-1.17","OcsDv4CBT9","65fedd69bd65bd4eab478192","6617fad957f7c6a12ea16e26","6622cca1de5c5465f45ded2f","image grid","p","","","","","Ontogenetic_Distractor_Nonthreat_target","2500","ongrid","p","2","Ontogenetic","true","experimental"
"","null","html-keyboard-response","143","188447","0.0-11.0-2.17","OcsDv4CBT9","65fedd69bd65bd4eab478192","6617fad957f7c6a12ea16e26","6622cca1de5c5465f45ded2f","
    <div id=""grid-container"">
        <!-- Grid items will be dynamically added here -->
    </div>    ","null","","","","","","","","","","","",""
"","null","html-keyboard-response","144","189152","0.0-11.0-0.18","OcsDv4CBT9","65fedd69bd65bd4eab478192","6617fad957f7c6a12ea16e26","6622cca1de5c5465f45ded2f","fixation cross","null","","","","","","","","","","","",""
"","720","html-keyboard-response","145","189873","0.0-11.0-1.18","OcsDv4CBT9","65fedd69bd65bd4eab478192","6617fad957f7c6a12ea16e26","6622cca1de5c5465f45ded2f","image grid","q","","","","","Ontogenetic_Distractor_Threat_target","2500","ongrid","q","6","Ontogenetic","true","experimental"
"","null","html-keyboard-response","146","190025","0.0-11.0-2.18","OcsDv4CBT9","65fedd69bd65bd4eab478192","6617fad957f7c6a12ea16e26","6622cca1de5c5465f45ded2f","
    <div id=""grid-container"">
        <!-- Grid items will be dynamically added here -->
    </div>    ","null","","","","","","","","","","","",""
"","null","html-keyboard-response","147","190742","0.0-11.0-0.19","OcsDv4CBT9","65fedd69bd65bd4eab478192","6617fad957f7c6a12ea16e26","6622cca1de5c5465f45ded2f","fixation cross","null","","","","","","","","","","","",""
"","714","html-keyboard-response","148","191456","0.0-11.0-1.19","OcsDv4CBT9","65fedd69bd65bd4eab478192","6617fad957f7c6a12ea16e26","6622cca1de5c5465f45ded2f","image grid","q","","","","","Ontogenetic_Distractor_Threat_target","2500","ongrid","q","9","Ontogenetic","true","experimental"
"","null","html-keyboard-response","149","191616","0.0-11.0-2.19","OcsDv4CBT9","65fedd69bd65bd4eab478192","6617fad957f7c6a12ea16e26","6622cca1de5c5465f45ded2f","
    <div id=""grid-container"">
        <!-- Grid items will be dynamically added here -->
    </div>    ","null","","","","","","","","","","","",""
"","null","html-keyboard-response","150","192322","0.0-11.0-0.20","OcsDv4CBT9","65fedd69bd65bd4eab478192","6617fad957f7c6a12ea16e26","6622cca1de5c5465f45ded2f","fixation cross","null","","","","","","","","","","","",""
"","1486","html-keyboard-response","151","193808","0.0-11.0-1.20","OcsDv4CBT9","65fedd69bd65bd4eab478192","6617fad957f7c6a12ea16e26","6622cca1de5c5465f45ded2f","image grid"," ","","","","","Ontogenetic_Distractor_notarget","2500","ongrid"," ","8","Ontogenetic","true","experimental"
"","null","html-keyboard-response","152","193960","0.0-11.0-2.20","OcsDv4CBT9","65fedd69bd65bd4eab478192","6617fad957f7c6a12ea16e26","6622cca1de5c5465f45ded2f","
    <div id=""grid-container"">
        <!-- Grid items will be dynamically added here -->
    </div>    ","null","","","","","","","","","","","",""
"","null","html-keyboard-response","153","194662","0.0-11.0-0.21","OcsDv4CBT9","65fedd69bd65bd4eab478192","6617fad957f7c6a12ea16e26","6622cca1de5c5465f45ded2f","fixation cross","null","","","","","","","","","","","",""
"","1330","html-keyboard-response","154","195992","0.0-11.0-1.21","OcsDv4CBT9","65fedd69bd65bd4eab478192","6617fad957f7c6a12ea16e26","6622cca1de5c5465f45ded2f","image grid","p","","","","","Ontogenetic_Distractor_Nonthreat_target","2500","ongrid","p","7","Ontogenetic","true","experimental"
"","null","html-keyboard-response","155","196158","0.0-11.0-2.21","OcsDv4CBT9","65fedd69bd65bd4eab478192","6617fad957f7c6a12ea16e26","6622cca1de5c5465f45ded2f","
    <div id=""grid-container"">
        <!-- Grid items will be dynamically added here -->
    </div>    ","null","","","","","","","","","","","",""
"","null","html-keyboard-response","156","196876","0.0-11.0-0.22","OcsDv4CBT9","65fedd69bd65bd4eab478192","6617fad957f7c6a12ea16e26","6622cca1de5c5465f45ded2f","fixation cross","null","","","","","","","","","","","",""
"","764","html-keyboard-response","157","197640","0.0-11.0-1.22","OcsDv4CBT9","65fedd69bd65bd4eab478192","6617fad957f7c6a12ea16e26","6622cca1de5c5465f45ded2f","image grid","p","","","","","Ontogenetic_Distractor_Nonthreat_target","2500","ongrid","p","3","Ontogenetic","true","experimental"
"","null","html-keyboard-response","158","197792","0.0-11.0-2.22","OcsDv4CBT9","65fedd69bd65bd4eab478192","6617fad957f7c6a12ea16e26","6622cca1de5c5465f45ded2f","
    <div id=""grid-container"">
        <!-- Grid items will be dynamically added here -->
    </div>    ","null","","","","","","","","","","","",""
"","null","html-keyboard-response","159","198499","0.0-11.0-0.23","OcsDv4CBT9","65fedd69bd65bd4eab478192","6617fad957f7c6a12ea16e26","6622cca1de5c5465f45ded2f","fixation cross","null","","","","","","","","","","","",""
"","861","html-keyboard-response","160","199360","0.0-11.0-1.23","OcsDv4CBT9","65fedd69bd65bd4eab478192","6617fad957f7c6a12ea16e26","6622cca1de5c5465f45ded2f","image grid","q","","","","","Ontogenetic_Distractor_Threat_target","2500","ongrid","q","7","Ontogenetic","true","experimental"
"","null","html-keyboard-response","161","199512","0.0-11.0-2.23","OcsDv4CBT9","65fedd69bd65bd4eab478192","6617fad957f7c6a12ea16e26","6622cca1de5c5465f45ded2f","
    <div id=""grid-container"">
        <!-- Grid items will be dynamically added here -->
    </div>    ","null","","","","","","","","","","","",""
"","null","html-keyboard-response","162","200228","0.0-11.0-0.24","OcsDv4CBT9","65fedd69bd65bd4eab478192","6617fad957f7c6a12ea16e26","6622cca1de5c5465f45ded2f","fixation cross","null","","","","","","","","","","","",""
"","1788","html-keyboard-response","163","202016","0.0-11.0-1.24","OcsDv4CBT9","65fedd69bd65bd4eab478192","6617fad957f7c6a12ea16e26","6622cca1de5c5465f45ded2f","image grid"," ","","","","","Ontogenetic_Distractor_notarget","2500","ongrid"," ","7","Ontogenetic","true","experimental"
"","null","html-keyboard-response","164","202178","0.0-11.0-2.24","OcsDv4CBT9","65fedd69bd65bd4eab478192","6617fad957f7c6a12ea16e26","6622cca1de5c5465f45ded2f","
    <div id=""grid-container"">
        <!-- Grid items will be dynamically added here -->
    </div>    ","null","","","","","","","","","","","",""
"","null","html-keyboard-response","165","202898","0.0-11.0-0.25","OcsDv4CBT9","65fedd69bd65bd4eab478192","6617fad957f7c6a12ea16e26","6622cca1de5c5465f45ded2f","fixation cross","null","","","","","","","","","","","",""
"","758","html-keyboard-response","166","203656","0.0-11.0-1.25","OcsDv4CBT9","65fedd69bd65bd4eab478192","6617fad957f7c6a12ea16e26","6622cca1de5c5465f45ded2f","image grid","q","","","","","Ontogenetic_Distractor_Threat_target","2500","ongrid","q","6","Ontogenetic","true","experimental"
"","null","html-keyboard-response","167","203817","0.0-11.0-2.25","OcsDv4CBT9","65fedd69bd65bd4eab478192","6617fad957f7c6a12ea16e26","6622cca1de5c5465f45ded2f","
    <div id=""grid-container"">
        <!-- Grid items will be dynamically added here -->
    </div>    ","null","","","","","","","","","","","",""
"","null","html-keyboard-response","168","204533","0.0-11.0-0.26","OcsDv4CBT9","65fedd69bd65bd4eab478192","6617fad957f7c6a12ea16e26","6622cca1de5c5465f45ded2f","fixation cross","null","","","","","","","","","","","",""
"","627","html-keyboard-response","169","205160","0.0-11.0-1.26","OcsDv4CBT9","65fedd69bd65bd4eab478192","6617fad957f7c6a12ea16e26","6622cca1de5c5465f45ded2f","image grid","q","","","","","Ontogenetic_Distractor_Threat_target","2500","ongrid","q","6","Ontogenetic","true","experimental"
"","null","html-keyboard-response","170","205312","0.0-11.0-2.26","OcsDv4CBT9","65fedd69bd65bd4eab478192","6617fad957f7c6a12ea16e26","6622cca1de5c5465f45ded2f","
    <div id=""grid-container"">
        <!-- Grid items will be dynamically added here -->
    </div>    ","null","","","","","","","","","","","",""
"","null","html-keyboard-response","171","206025","0.0-11.0-0.27","OcsDv4CBT9","65fedd69bd65bd4eab478192","6617fad957f7c6a12ea16e26","6622cca1de5c5465f45ded2f","fixation cross","null","","","","","","","","","","","",""
"","774","html-keyboard-response","172","206800","0.0-11.0-1.27","OcsDv4CBT9","65fedd69bd65bd4eab478192","6617fad957f7c6a12ea16e26","6622cca1de5c5465f45ded2f","image grid","p","","","","","Ontogenetic_Distractor_Nonthreat_target","2500","ongrid","p","6","Ontogenetic","true","experimental"
"","null","html-keyboard-response","173","206958","0.0-11.0-2.27","OcsDv4CBT9","65fedd69bd65bd4eab478192","6617fad957f7c6a12ea16e26","6622cca1de5c5465f45ded2f","
    <div id=""grid-container"">
        <!-- Grid items will be dynamically added here -->
    </div>    ","null","","","","","","","","","","","",""
"","null","html-keyboard-response","174","207677","0.0-11.0-0.28","OcsDv4CBT9","65fedd69bd65bd4eab478192","6617fad957f7c6a12ea16e26","6622cca1de5c5465f45ded2f","fixation cross","null","","","","","","","","","","","",""
"","915","html-keyboard-response","175","208592","0.0-11.0-1.28","OcsDv4CBT9","65fedd69bd65bd4eab478192","6617fad957f7c6a12ea16e26","6622cca1de5c5465f45ded2f","image grid","p","","","","","Ontogenetic_Distractor_Nonthreat_target","2500","ongrid","p","5","Ontogenetic","true","experimental"
"","null","html-keyboard-response","176","208753","0.0-11.0-2.28","OcsDv4CBT9","65fedd69bd65bd4eab478192","6617fad957f7c6a12ea16e26","6622cca1de5c5465f45ded2f","
    <div id=""grid-container"">
        <!-- Grid items will be dynamically added here -->
    </div>    ","null","","","","","","","","","","","",""
"","null","html-keyboard-response","177","209472","0.0-11.0-0.29","OcsDv4CBT9","65fedd69bd65bd4eab478192","6617fad957f7c6a12ea16e26","6622cca1de5c5465f45ded2f","fixation cross","null","","","","","","","","","","","",""
"","665","html-keyboard-response","178","210136","0.0-11.0-1.29","OcsDv4CBT9","65fedd69bd65bd4eab478192","6617fad957f7c6a12ea16e26","6622cca1de5c5465f45ded2f","image grid","q","","","","","Ontogenetic_Distractor_Threat_target","2500","ongrid","q","6","Ontogenetic","true","experimental"
"","null","html-keyboard-response","179","210296","0.0-11.0-2.29","OcsDv4CBT9","65fedd69bd65bd4eab478192","6617fad957f7c6a12ea16e26","6622cca1de5c5465f45ded2f","
    <div id=""grid-container"">
        <!-- Grid items will be dynamically added here -->
    </div>    ","null","","","","","","","","","","","",""
"","null","html-keyboard-response","180","211018","0.0-11.0-0.30","OcsDv4CBT9","65fedd69bd65bd4eab478192","6617fad957f7c6a12ea16e26","6622cca1de5c5465f45ded2f","fixation cross","null","","","","","","","","","","","",""
"","670","html-keyboard-response","181","211688","0.0-11.0-1.30","OcsDv4CBT9","65fedd69bd65bd4eab478192","6617fad957f7c6a12ea16e26","6622cca1de5c5465f45ded2f","image grid","q","","","","","Ontogenetic_Distractor_Threat_target","2500","ongrid","q","7","Ontogenetic","true","experimental"
"","null","html-keyboard-response","182","211840","0.0-11.0-2.30","OcsDv4CBT9","65fedd69bd65bd4eab478192","6617fad957f7c6a12ea16e26","6622cca1de5c5465f45ded2f","
    <div id=""grid-container"">
        <!-- Grid items will be dynamically added here -->
    </div>    ","null","","","","","","","","","","","",""
"","null","html-keyboard-response","183","212564","0.0-11.0-0.31","OcsDv4CBT9","65fedd69bd65bd4eab478192","6617fad957f7c6a12ea16e26","6622cca1de5c5465f45ded2f","fixation cross","null","","","","","","","","","","","",""
"","988","html-keyboard-response","184","213552","0.0-11.0-1.31","OcsDv4CBT9","65fedd69bd65bd4eab478192","6617fad957f7c6a12ea16e26","6622cca1de5c5465f45ded2f","image grid","p","","","","","Ontogenetic_Distractor_Nonthreat_target","2500","ongrid","p","9","Ontogenetic","true","experimental"
"","null","html-keyboard-response","185","213707","0.0-11.0-2.31","OcsDv4CBT9","65fedd69bd65bd4eab478192","6617fad957f7c6a12ea16e26","6622cca1de5c5465f45ded2f","
    <div id=""grid-container"">
        <!-- Grid items will be dynamically added here -->
    </div>    ","null","","","","","","","","","","","",""
"","null","html-keyboard-response","186","214421","0.0-11.0-0.32","OcsDv4CBT9","65fedd69bd65bd4eab478192","6617fad957f7c6a12ea16e26","6622cca1de5c5465f45ded2f","fixation cross","null","","","","","","","","","","","",""
"","707","html-keyboard-response","187","215128","0.0-11.0-1.32","OcsDv4CBT9","65fedd69bd65bd4eab478192","6617fad957f7c6a12ea16e26","6622cca1de5c5465f45ded2f","image grid","q","","","","","Ontogenetic_Distractor_Threat_target","2500","ongrid","q","8","Ontogenetic","true","experimental"
"","null","html-keyboard-response","188","215293","0.0-11.0-2.32","OcsDv4CBT9","65fedd69bd65bd4eab478192","6617fad957f7c6a12ea16e26","6622cca1de5c5465f45ded2f","
    <div id=""grid-container"">
        <!-- Grid items will be dynamically added here -->
    </div>    ","null","","","","","","","","","","","",""
"","null","html-keyboard-response","189","216010","0.0-11.0-0.33","OcsDv4CBT9","65fedd69bd65bd4eab478192","6617fad957f7c6a12ea16e26","6622cca1de5c5465f45ded2f","fixation cross","null","","","","","","","","","","","",""
"","742","html-keyboard-response","190","216752","0.0-11.0-1.33","OcsDv4CBT9","65fedd69bd65bd4eab478192","6617fad957f7c6a12ea16e26","6622cca1de5c5465f45ded2f","image grid","q","","","","","Ontogenetic_Distractor_Threat_target","2500","ongrid","q","2","Ontogenetic","true","experimental"
"","null","html-keyboard-response","191","216915","0.0-11.0-2.33","OcsDv4CBT9","65fedd69bd65bd4eab478192","6617fad957f7c6a12ea16e26","6622cca1de5c5465f45ded2f","
    <div id=""grid-container"">
        <!-- Grid items will be dynamically added here -->
    </div>    ","null","","","","","","","","","","","",""
"","null","html-keyboard-response","192","217618","0.0-11.0-0.34","OcsDv4CBT9","65fedd69bd65bd4eab478192","6617fad957f7c6a12ea16e26","6622cca1de5c5465f45ded2f","fixation cross","null","","","","","","","","","","","",""
"","678","html-keyboard-response","193","218296","0.0-11.0-1.34","OcsDv4CBT9","65fedd69bd65bd4eab478192","6617fad957f7c6a12ea16e26","6622cca1de5c5465f45ded2f","image grid","q","","","","","Ontogenetic_Distractor_Threat_target","2500","ongrid","q","5","Ontogenetic","true","experimental"
"","null","html-keyboard-response","194","218456","0.0-11.0-2.34","OcsDv4CBT9","65fedd69bd65bd4eab478192","6617fad957f7c6a12ea16e26","6622cca1de5c5465f45ded2f","
    <div id=""grid-container"">
        <!-- Grid items will be dynamically added here -->
    </div>    ","null","","","","","","","","","","","",""
"","null","html-keyboard-response","195","219170","0.0-11.0-0.35","OcsDv4CBT9","65fedd69bd65bd4eab478192","6617fad957f7c6a12ea16e26","6622cca1de5c5465f45ded2f","fixation cross","null","","","","","","","","","","","",""
"","1190","html-keyboard-response","196","220361","0.0-11.0-1.35","OcsDv4CBT9","65fedd69bd65bd4eab478192","6617fad957f7c6a12ea16e26","6622cca1de5c5465f45ded2f","image grid"," ","","","","","Ontogenetic_Distractor_Nonthreat_target","2500","ongrid","p","2","Ontogenetic","false","experimental"
"","null","html-keyboard-response","197","220525","0.0-11.0-2.35","OcsDv4CBT9","65fedd69bd65bd4eab478192","6617fad957f7c6a12ea16e26","6622cca1de5c5465f45ded2f","
    <div id=""grid-container"">
        <!-- Grid items will be dynamically added here -->
    </div>    ","null","","","","","","","","","","","",""
"","null","html-keyboard-response","198","221240","0.0-11.0-0.36","OcsDv4CBT9","65fedd69bd65bd4eab478192","6617fad957f7c6a12ea16e26","6622cca1de5c5465f45ded2f","fixation cross","null","","","","","","","","","","","",""
"","1280","html-keyboard-response","199","222520","0.0-11.0-1.36","OcsDv4CBT9","65fedd69bd65bd4eab478192","6617fad957f7c6a12ea16e26","6622cca1de5c5465f45ded2f","image grid","p","","","","","Ontogenetic_Distractor_Nonthreat_target","2500","ongrid","p","8","Ontogenetic","true","experimental"
"","null","html-keyboard-response","200","222671","0.0-11.0-2.36","OcsDv4CBT9","65fedd69bd65bd4eab478192","6617fad957f7c6a12ea16e26","6622cca1de5c5465f45ded2f","
    <div id=""grid-container"">
        <!-- Grid items will be dynamically added here -->
    </div>    ","null","","","","","","","","","","","",""
"","null","html-keyboard-response","201","223389","0.0-11.0-0.37","OcsDv4CBT9","65fedd69bd65bd4eab478192","6617fad957f7c6a12ea16e26","6622cca1de5c5465f45ded2f","fixation cross","null","","","","","","","","","","","",""
"","915","html-keyboard-response","202","224304","0.0-11.0-1.37","OcsDv4CBT9","65fedd69bd65bd4eab478192","6617fad957f7c6a12ea16e26","6622cca1de5c5465f45ded2f","image grid","q","","","","","Ontogenetic_Distractor_Threat_target","2500","ongrid","q","1","Ontogenetic","true","experimental"
"","null","html-keyboard-response","203","224467","0.0-11.0-2.37","OcsDv4CBT9","65fedd69bd65bd4eab478192","6617fad957f7c6a12ea16e26","6622cca1de5c5465f45ded2f","
    <div id=""grid-container"">
        <!-- Grid items will be dynamically added here -->
    </div>    ","null","","","","","","","","","","","",""
"","null","html-keyboard-response","204","225182","0.0-11.0-0.38","OcsDv4CBT9","65fedd69bd65bd4eab478192","6617fad957f7c6a12ea16e26","6622cca1de5c5465f45ded2f","fixation cross","null","","","","","","","","","","","",""
"","1402","html-keyboard-response","205","226585","0.0-11.0-1.38","OcsDv4CBT9","65fedd69bd65bd4eab478192","6617fad957f7c6a12ea16e26","6622cca1de5c5465f45ded2f","image grid"," ","","","","","Ontogenetic_Distractor_notarget","2500","ongrid"," ","4","Ontogenetic","true","experimental"
"","null","html-keyboard-response","206","226736","0.0-11.0-2.38","OcsDv4CBT9","65fedd69bd65bd4eab478192","6617fad957f7c6a12ea16e26","6622cca1de5c5465f45ded2f","
    <div id=""grid-container"">
        <!-- Grid items will be dynamically added here -->
    </div>    ","null","","","","","","","","","","","",""
"","null","html-keyboard-response","207","227451","0.0-11.0-0.39","OcsDv4CBT9","65fedd69bd65bd4eab478192","6617fad957f7c6a12ea16e26","6622cca1de5c5465f45ded2f","fixation cross","null","","","","","","","","","","","",""
"","1013","html-keyboard-response","208","228464","0.0-11.0-1.39","OcsDv4CBT9","65fedd69bd65bd4eab478192","6617fad957f7c6a12ea16e26","6622cca1de5c5465f45ded2f","image grid","p","","","","","Ontogenetic_Distractor_Nonthreat_target","2500","ongrid","p","5","Ontogenetic","true","experimental"
"","null","html-keyboard-response","209","228623","0.0-11.0-2.39","OcsDv4CBT9","65fedd69bd65bd4eab478192","6617fad957f7c6a12ea16e26","6622cca1de5c5465f45ded2f","
    <div id=""grid-container"">
        <!-- Grid items will be dynamically added here -->
    </div>    ","null","","","","","","","","","","","",""
"","3540","html-keyboard-response","210","232385","0.0-12.0","OcsDv4CBT9","65fedd69bd65bd4eab478192","6617fad957f7c6a12ea16e26","6622cca1de5c5465f45ded2f","break screen"," ","","","","","","","","","","","",""
"","null","html-keyboard-response","211","234895","0.0-13.0-0.0","OcsDv4CBT9","65fedd69bd65bd4eab478192","6617fad957f7c6a12ea16e26","6622cca1de5c5465f45ded2f","fixation cross","null","","","","","","","","","","","",""
"","1505","html-keyboard-response","212","236401","0.0-13.0-1.0","OcsDv4CBT9","65fedd69bd65bd4eab478192","6617fad957f7c6a12ea16e26","6622cca1de5c5465f45ded2f","image grid","q","","","","","Phylogenetic_Distractor_Threat_target","2500","ongrid","q","9","Phylogenetic","true","experimental"
"","null","html-keyboard-response","213","236561","0.0-13.0-2.0","OcsDv4CBT9","65fedd69bd65bd4eab478192","6617fad957f7c6a12ea16e26","6622cca1de5c5465f45ded2f","
    <div id=""grid-container"">
        <!-- Grid items will be dynamically added here -->
    </div>    ","null","","","","","","","","","","","",""
"","null","html-keyboard-response","214","237267","0.0-13.0-0.1","OcsDv4CBT9","65fedd69bd65bd4eab478192","6617fad957f7c6a12ea16e26","6622cca1de5c5465f45ded2f","fixation cross","null","","","","","","","","","","","",""
"","1093","html-keyboard-response","215","238361","0.0-13.0-1.1","OcsDv4CBT9","65fedd69bd65bd4eab478192","6617fad957f7c6a12ea16e26","6622cca1de5c5465f45ded2f","image grid","p","","","","","Phylogenetic_Distractor_Nonthreat_target","2500","ongrid","p","3","Phylogenetic","true","experimental"
"","null","html-keyboard-response","216","238516","0.0-13.0-2.1","OcsDv4CBT9","65fedd69bd65bd4eab478192","6617fad957f7c6a12ea16e26","6622cca1de5c5465f45ded2f","
    <div id=""grid-container"">
        <!-- Grid items will be dynamically added here -->
    </div>    ","null","","","","","","","","","","","",""
"","null","html-keyboard-response","217","239233","0.0-13.0-0.2","OcsDv4CBT9","65fedd69bd65bd4eab478192","6617fad957f7c6a12ea16e26","6622cca1de5c5465f45ded2f","fixation cross","null","","","","","","","","","","","",""
"","648","html-keyboard-response","218","239881","0.0-13.0-1.2","OcsDv4CBT9","65fedd69bd65bd4eab478192","6617fad957f7c6a12ea16e26","6622cca1de5c5465f45ded2f","image grid","q","","","","","Phylogenetic_Distractor_Threat_target","2500","ongrid","q","8","Phylogenetic","true","experimental"
"","null","html-keyboard-response","219","240041","0.0-13.0-2.2","OcsDv4CBT9","65fedd69bd65bd4eab478192","6617fad957f7c6a12ea16e26","6622cca1de5c5465f45ded2f","
    <div id=""grid-container"">
        <!-- Grid items will be dynamically added here -->
    </div>    ","null","","","","","","","","","","","",""
"","null","html-keyboard-response","220","240746","0.0-13.0-0.3","OcsDv4CBT9","65fedd69bd65bd4eab478192","6617fad957f7c6a12ea16e26","6622cca1de5c5465f45ded2f","fixation cross","null","","","","","","","","","","","",""
"","1334","html-keyboard-response","221","242081","0.0-13.0-1.3","OcsDv4CBT9","65fedd69bd65bd4eab478192","6617fad957f7c6a12ea16e26","6622cca1de5c5465f45ded2f","image grid","p","","","","","Phylogenetic_Distractor_Nonthreat_target","2500","ongrid","p","2","Phylogenetic","true","experimental"
"","null","html-keyboard-response","222","242247","0.0-13.0-2.3","OcsDv4CBT9","65fedd69bd65bd4eab478192","6617fad957f7c6a12ea16e26","6622cca1de5c5465f45ded2f","
    <div id=""grid-container"">
        <!-- Grid items will be dynamically added here -->
    </div>    ","null","","","","","","","","","","","",""
"","null","html-keyboard-response","223","242950","0.0-13.0-0.4","OcsDv4CBT9","65fedd69bd65bd4eab478192","6617fad957f7c6a12ea16e26","6622cca1de5c5465f45ded2f","fixation cross","null","","","","","","","","","","","",""
"","1042","html-keyboard-response","224","243993","0.0-13.0-1.4","OcsDv4CBT9","65fedd69bd65bd4eab478192","6617fad957f7c6a12ea16e26","6622cca1de5c5465f45ded2f","image grid","p","","","","","Phylogenetic_Distractor_Nonthreat_target","2500","ongrid","p","4","Phylogenetic","true","experimental"
"","null","html-keyboard-response","225","244153","0.0-13.0-2.4","OcsDv4CBT9","65fedd69bd65bd4eab478192","6617fad957f7c6a12ea16e26","6622cca1de5c5465f45ded2f","
    <div id=""grid-container"">
        <!-- Grid items will be dynamically added here -->
    </div>    ","null","","","","","","","","","","","",""
"","null","html-keyboard-response","226","244856","0.0-13.0-0.5","OcsDv4CBT9","65fedd69bd65bd4eab478192","6617fad957f7c6a12ea16e26","6622cca1de5c5465f45ded2f","fixation cross","null","","","","","","","","","","","",""
"","689","html-keyboard-response","227","245545","0.0-13.0-1.5","OcsDv4CBT9","65fedd69bd65bd4eab478192","6617fad957f7c6a12ea16e26","6622cca1de5c5465f45ded2f","image grid","p","","","","","Phylogenetic_Distractor_Nonthreat_target","2500","ongrid","p","6","Phylogenetic","true","experimental"
"","null","html-keyboard-response","228","245695","0.0-13.0-2.5","OcsDv4CBT9","65fedd69bd65bd4eab478192","6617fad957f7c6a12ea16e26","6622cca1de5c5465f45ded2f","
    <div id=""grid-container"">
        <!-- Grid items will be dynamically added here -->
    </div>    ","null","","","","","","","","","","","",""
"","null","html-keyboard-response","229","246412","0.0-13.0-0.6","OcsDv4CBT9","65fedd69bd65bd4eab478192","6617fad957f7c6a12ea16e26","6622cca1de5c5465f45ded2f","fixation cross","null","","","","","","","","","","","",""
"","1300","html-keyboard-response","230","247713","0.0-13.0-1.6","OcsDv4CBT9","65fedd69bd65bd4eab478192","6617fad957f7c6a12ea16e26","6622cca1de5c5465f45ded2f","image grid"," ","","","","","Phylogenetic_Distractor_Nonthreat_target","2500","ongrid","p","2","Phylogenetic","false","experimental"
"","null","html-keyboard-response","231","247877","0.0-13.0-2.6","OcsDv4CBT9","65fedd69bd65bd4eab478192","6617fad957f7c6a12ea16e26","6622cca1de5c5465f45ded2f","
    <div id=""grid-container"">
        <!-- Grid items will be dynamically added here -->
    </div>    ","null","","","","","","","","","","","",""
"","null","html-keyboard-response","232","248594","0.0-13.0-0.7","OcsDv4CBT9","65fedd69bd65bd4eab478192","6617fad957f7c6a12ea16e26","6622cca1de5c5465f45ded2f","fixation cross","null","","","","","","","","","","","",""
"","830","html-keyboard-response","233","249425","0.0-13.0-1.7","OcsDv4CBT9","65fedd69bd65bd4eab478192","6617fad957f7c6a12ea16e26","6622cca1de5c5465f45ded2f","image grid","q","","","","","Phylogenetic_Distractor_Threat_target","2500","ongrid","q","2","Phylogenetic","true","experimental"
"","null","html-keyboard-response","234","249578","0.0-13.0-2.7","OcsDv4CBT9","65fedd69bd65bd4eab478192","6617fad957f7c6a12ea16e26","6622cca1de5c5465f45ded2f","
    <div id=""grid-container"">
        <!-- Grid items will be dynamically added here -->
    </div>    ","null","","","","","","","","","","","",""
"","null","html-keyboard-response","235","250294","0.0-13.0-0.8","OcsDv4CBT9","65fedd69bd65bd4eab478192","6617fad957f7c6a12ea16e26","6622cca1de5c5465f45ded2f","fixation cross","null","","","","","","","","","","","",""
"","699","html-keyboard-response","236","250993","0.0-13.0-1.8","OcsDv4CBT9","65fedd69bd65bd4eab478192","6617fad957f7c6a12ea16e26","6622cca1de5c5465f45ded2f","image grid","q","","","","","Phylogenetic_Distractor_Threat_target","2500","ongrid","q","9","Phylogenetic","true","experimental"
"","null","html-keyboard-response","237","251155","0.0-13.0-2.8","OcsDv4CBT9","65fedd69bd65bd4eab478192","6617fad957f7c6a12ea16e26","6622cca1de5c5465f45ded2f","
    <div id=""grid-container"">
        <!-- Grid items will be dynamically added here -->
    </div>    ","null","","","","","","","","","","","",""
"","null","html-keyboard-response","238","251871","0.0-13.0-0.9","OcsDv4CBT9","65fedd69bd65bd4eab478192","6617fad957f7c6a12ea16e26","6622cca1de5c5465f45ded2f","fixation cross","null","","","","","","","","","","","",""
"","891","html-keyboard-response","239","252762","0.0-13.0-1.9","OcsDv4CBT9","65fedd69bd65bd4eab478192","6617fad957f7c6a12ea16e26","6622cca1de5c5465f45ded2f","image grid","q","","","","","Phylogenetic_Distractor_Threat_target","2500","ongrid","q","9","Phylogenetic","true","experimental"
"","null","html-keyboard-response","240","252915","0.0-13.0-2.9","OcsDv4CBT9","65fedd69bd65bd4eab478192","6617fad957f7c6a12ea16e26","6622cca1de5c5465f45ded2f","
    <div id=""grid-container"">
        <!-- Grid items will be dynamically added here -->
    </div>    ","null","","","","","","","","","","","",""
"","null","html-keyboard-response","241","253617","0.0-13.0-0.10","OcsDv4CBT9","65fedd69bd65bd4eab478192","6617fad957f7c6a12ea16e26","6622cca1de5c5465f45ded2f","fixation cross","null","","","","","","","","","","","",""
"","880","html-keyboard-response","242","254498","0.0-13.0-1.10","OcsDv4CBT9","65fedd69bd65bd4eab478192","6617fad957f7c6a12ea16e26","6622cca1de5c5465f45ded2f","image grid","p","","","","","Phylogenetic_Distractor_Nonthreat_target","2500","ongrid","p","7","Phylogenetic","true","experimental"
"","null","html-keyboard-response","243","254651","0.0-13.0-2.10","OcsDv4CBT9","65fedd69bd65bd4eab478192","6617fad957f7c6a12ea16e26","6622cca1de5c5465f45ded2f","
    <div id=""grid-container"">
        <!-- Grid items will be dynamically added here -->
    </div>    ","null","","","","","","","","","","","",""
"","null","html-keyboard-response","244","255370","0.0-13.0-0.11","OcsDv4CBT9","65fedd69bd65bd4eab478192","6617fad957f7c6a12ea16e26","6622cca1de5c5465f45ded2f","fixation cross","null","","","","","","","","","","","",""
"","895","html-keyboard-response","245","256265","0.0-13.0-1.11","OcsDv4CBT9","65fedd69bd65bd4eab478192","6617fad957f7c6a12ea16e26","6622cca1de5c5465f45ded2f","image grid","q","","","","","Phylogenetic_Distractor_Threat_target","2500","ongrid","q","3","Phylogenetic","true","experimental"
"","null","html-keyboard-response","246","256429","0.0-13.0-2.11","OcsDv4CBT9","65fedd69bd65bd4eab478192","6617fad957f7c6a12ea16e26","6622cca1de5c5465f45ded2f","
    <div id=""grid-container"">
        <!-- Grid items will be dynamically added here -->
    </div>    ","null","","","","","","","","","","","",""
"","null","html-keyboard-response","247","257144","0.0-13.0-0.12","OcsDv4CBT9","65fedd69bd65bd4eab478192","6617fad957f7c6a12ea16e26","6622cca1de5c5465f45ded2f","fixation cross","null","","","","","","","","","","","",""
"","1369","html-keyboard-response","248","258514","0.0-13.0-1.12","OcsDv4CBT9","65fedd69bd65bd4eab478192","6617fad957f7c6a12ea16e26","6622cca1de5c5465f45ded2f","image grid","p","","","","","Phylogenetic_Distractor_Nonthreat_target","2500","ongrid","p","8","Phylogenetic","true","experimental"
"","null","html-keyboard-response","249","258672","0.0-13.0-2.12","OcsDv4CBT9","65fedd69bd65bd4eab478192","6617fad957f7c6a12ea16e26","6622cca1de5c5465f45ded2f","
    <div id=""grid-container"">
        <!-- Grid items will be dynamically added here -->
    </div>    ","null","","","","","","","","","","","",""
"","null","html-keyboard-response","250","259387","0.0-13.0-0.13","OcsDv4CBT9","65fedd69bd65bd4eab478192","6617fad957f7c6a12ea16e26","6622cca1de5c5465f45ded2f","fixation cross","null","","","","","","","","","","","",""
"","614","html-keyboard-response","251","260001","0.0-13.0-1.13","OcsDv4CBT9","65fedd69bd65bd4eab478192","6617fad957f7c6a12ea16e26","6622cca1de5c5465f45ded2f","image grid","p","","","","","Phylogenetic_Distractor_Nonthreat_target","2500","ongrid","p","2","Phylogenetic","true","experimental"
"","null","html-keyboard-response","252","260154","0.0-13.0-2.13","OcsDv4CBT9","65fedd69bd65bd4eab478192","6617fad957f7c6a12ea16e26","6622cca1de5c5465f45ded2f","
    <div id=""grid-container"">
        <!-- Grid items will be dynamically added here -->
    </div>    ","null","","","","","","","","","","","",""
"","null","html-keyboard-response","253","260872","0.0-13.0-0.14","OcsDv4CBT9","65fedd69bd65bd4eab478192","6617fad957f7c6a12ea16e26","6622cca1de5c5465f45ded2f","fixation cross","null","","","","","","","","","","","",""
"","561","html-keyboard-response","254","261433","0.0-13.0-1.14","OcsDv4CBT9","65fedd69bd65bd4eab478192","6617fad957f7c6a12ea16e26","6622cca1de5c5465f45ded2f","image grid","p","","","","","Phylogenetic_Distractor_Nonthreat_target","2500","ongrid","p","2","Phylogenetic","true","experimental"
"","null","html-keyboard-response","255","261590","0.0-13.0-2.14","OcsDv4CBT9","65fedd69bd65bd4eab478192","6617fad957f7c6a12ea16e26","6622cca1de5c5465f45ded2f","
    <div id=""grid-container"">
        <!-- Grid items will be dynamically added here -->
    </div>    ","null","","","","","","","","","","","",""
"","null","html-keyboard-response","256","262308","0.0-13.0-0.15","OcsDv4CBT9","65fedd69bd65bd4eab478192","6617fad957f7c6a12ea16e26","6622cca1de5c5465f45ded2f","fixation cross","null","","","","","","","","","","","",""
"","1006","html-keyboard-response","257","263314","0.0-13.0-1.15","OcsDv4CBT9","65fedd69bd65bd4eab478192","6617fad957f7c6a12ea16e26","6622cca1de5c5465f45ded2f","image grid"," ","","","","","Phylogenetic_Distractor_Nonthreat_target","2500","ongrid","p","1","Phylogenetic","false","experimental"
"","null","html-keyboard-response","258","263475","0.0-13.0-2.15","OcsDv4CBT9","65fedd69bd65bd4eab478192","6617fad957f7c6a12ea16e26","6622cca1de5c5465f45ded2f","
    <div id=""grid-container"">
        <!-- Grid items will be dynamically added here -->
    </div>    ","null","","","","","","","","","","","",""
"","null","html-keyboard-response","259","264189","0.0-13.0-0.16","OcsDv4CBT9","65fedd69bd65bd4eab478192","6617fad957f7c6a12ea16e26","6622cca1de5c5465f45ded2f","fixation cross","null","","","","","","","","","","","",""
"","1348","html-keyboard-response","260","265538","0.0-13.0-1.16","OcsDv4CBT9","65fedd69bd65bd4eab478192","6617fad957f7c6a12ea16e26","6622cca1de5c5465f45ded2f","image grid","p","","","","","Phylogenetic_Distractor_Nonthreat_target","2500","ongrid","p","8","Phylogenetic","true","experimental"
"","null","html-keyboard-response","261","265700","0.0-13.0-2.16","OcsDv4CBT9","65fedd69bd65bd4eab478192","6617fad957f7c6a12ea16e26","6622cca1de5c5465f45ded2f","
    <div id=""grid-container"">
        <!-- Grid items will be dynamically added here -->
    </div>    ","null","","","","","","","","","","","",""
"","null","html-keyboard-response","262","266412","0.0-13.0-0.17","OcsDv4CBT9","65fedd69bd65bd4eab478192","6617fad957f7c6a12ea16e26","6622cca1de5c5465f45ded2f","fixation cross","null","","","","","","","","","","","",""
"","973","html-keyboard-response","263","267386","0.0-13.0-1.17","OcsDv4CBT9","65fedd69bd65bd4eab478192","6617fad957f7c6a12ea16e26","6622cca1de5c5465f45ded2f","image grid","q","","","","","Phylogenetic_Distractor_Threat_target","2500","ongrid","q","8","Phylogenetic","true","experimental"
"","null","html-keyboard-response","264","267549","0.0-13.0-2.17","OcsDv4CBT9","65fedd69bd65bd4eab478192","6617fad957f7c6a12ea16e26","6622cca1de5c5465f45ded2f","
    <div id=""grid-container"">
        <!-- Grid items will be dynamically added here -->
    </div>    ","null","","","","","","","","","","","",""
"","null","html-keyboard-response","265","268252","0.0-13.0-0.18","OcsDv4CBT9","65fedd69bd65bd4eab478192","6617fad957f7c6a12ea16e26","6622cca1de5c5465f45ded2f","fixation cross","null","","","","","","","","","","","",""
"","614","html-keyboard-response","266","268866","0.0-13.0-1.18","OcsDv4CBT9","65fedd69bd65bd4eab478192","6617fad957f7c6a12ea16e26","6622cca1de5c5465f45ded2f","image grid","q","","","","","Phylogenetic_Distractor_Threat_target","2500","ongrid","q","3","Phylogenetic","true","experimental"
"","null","html-keyboard-response","267","269030","0.0-13.0-2.18","OcsDv4CBT9","65fedd69bd65bd4eab478192","6617fad957f7c6a12ea16e26","6622cca1de5c5465f45ded2f","
    <div id=""grid-container"">
        <!-- Grid items will be dynamically added here -->
    </div>    ","null","","","","","","","","","","","",""
"","null","html-keyboard-response","268","269749","0.0-13.0-0.19","OcsDv4CBT9","65fedd69bd65bd4eab478192","6617fad957f7c6a12ea16e26","6622cca1de5c5465f45ded2f","fixation cross","null","","","","","","","","","","","",""
"","581","html-keyboard-response","269","270330","0.0-13.0-1.19","OcsDv4CBT9","65fedd69bd65bd4eab478192","6617fad957f7c6a12ea16e26","6622cca1de5c5465f45ded2f","image grid","q","","","","","Phylogenetic_Distractor_Threat_target","2500","ongrid","q","1","Phylogenetic","true","experimental"
"","null","html-keyboard-response","270","270482","0.0-13.0-2.19","OcsDv4CBT9","65fedd69bd65bd4eab478192","6617fad957f7c6a12ea16e26","6622cca1de5c5465f45ded2f","
    <div id=""grid-container"">
        <!-- Grid items will be dynamically added here -->
    </div>    ","null","","","","","","","","","","","",""
"","null","html-keyboard-response","271","271200","0.0-13.0-0.20","OcsDv4CBT9","65fedd69bd65bd4eab478192","6617fad957f7c6a12ea16e26","6622cca1de5c5465f45ded2f","fixation cross","null","","","","","","","","","","","",""
"","1026","html-keyboard-response","272","272226","0.0-13.0-1.20","OcsDv4CBT9","65fedd69bd65bd4eab478192","6617fad957f7c6a12ea16e26","6622cca1de5c5465f45ded2f","image grid"," ","","","","","Phylogenetic_Distractor_notarget","2500","ongrid"," ","9","Phylogenetic","true","experimental"
"","null","html-keyboard-response","273","272378","0.0-13.0-2.20","OcsDv4CBT9","65fedd69bd65bd4eab478192","6617fad957f7c6a12ea16e26","6622cca1de5c5465f45ded2f","
    <div id=""grid-container"">
        <!-- Grid items will be dynamically added here -->
    </div>    ","null","","","","","","","","","","","",""
"","null","html-keyboard-response","274","273100","0.0-13.0-0.21","OcsDv4CBT9","65fedd69bd65bd4eab478192","6617fad957f7c6a12ea16e26","6622cca1de5c5465f45ded2f","fixation cross","null","","","","","","","","","","","",""
"","1301","html-keyboard-response","275","274402","0.0-13.0-1.21","OcsDv4CBT9","65fedd69bd65bd4eab478192","6617fad957f7c6a12ea16e26","6622cca1de5c5465f45ded2f","image grid","p","","","","","Phylogenetic_Distractor_Nonthreat_target","2500","ongrid","p","1","Phylogenetic","true","experimental"
"","null","html-keyboard-response","276","274562","0.0-13.0-2.21","OcsDv4CBT9","65fedd69bd65bd4eab478192","6617fad957f7c6a12ea16e26","6622cca1de5c5465f45ded2f","
    <div id=""grid-container"">
        <!-- Grid items will be dynamically added here -->
    </div>    ","null","","","","","","","","","","","",""
"","null","html-keyboard-response","277","275285","0.0-13.0-0.22","OcsDv4CBT9","65fedd69bd65bd4eab478192","6617fad957f7c6a12ea16e26","6622cca1de5c5465f45ded2f","fixation cross","null","","","","","","","","","","","",""
"","677","html-keyboard-response","278","275962","0.0-13.0-1.22","OcsDv4CBT9","65fedd69bd65bd4eab478192","6617fad957f7c6a12ea16e26","6622cca1de5c5465f45ded2f","image grid","q","","","","","Phylogenetic_Distractor_Threat_target","2500","ongrid","q","2","Phylogenetic","true","experimental"
"","null","html-keyboard-response","279","276126","0.0-13.0-2.22","OcsDv4CBT9","65fedd69bd65bd4eab478192","6617fad957f7c6a12ea16e26","6622cca1de5c5465f45ded2f","
    <div id=""grid-container"">
        <!-- Grid items will be dynamically added here -->
    </div>    ","null","","","","","","","","","","","",""
"","null","html-keyboard-response","280","276846","0.0-13.0-0.23","OcsDv4CBT9","65fedd69bd65bd4eab478192","6617fad957f7c6a12ea16e26","6622cca1de5c5465f45ded2f","fixation cross","null","","","","","","","","","","","",""
"","932","html-keyboard-response","281","277778","0.0-13.0-1.23","OcsDv4CBT9","65fedd69bd65bd4eab478192","6617fad957f7c6a12ea16e26","6622cca1de5c5465f45ded2f","image grid","p","","","","","Phylogenetic_Distractor_Nonthreat_target","2500","ongrid","p","3","Phylogenetic","true","experimental"
"","null","html-keyboard-response","282","277936","0.0-13.0-2.23","OcsDv4CBT9","65fedd69bd65bd4eab478192","6617fad957f7c6a12ea16e26","6622cca1de5c5465f45ded2f","
    <div id=""grid-container"">
        <!-- Grid items will be dynamically added here -->
    </div>    ","null","","","","","","","","","","","",""
"","null","html-keyboard-response","283","278640","0.0-13.0-0.24","OcsDv4CBT9","65fedd69bd65bd4eab478192","6617fad957f7c6a12ea16e26","6622cca1de5c5465f45ded2f","fixation cross","null","","","","","","","","","","","",""
"","890","html-keyboard-response","284","279530","0.0-13.0-1.24","OcsDv4CBT9","65fedd69bd65bd4eab478192","6617fad957f7c6a12ea16e26","6622cca1de5c5465f45ded2f","image grid"," ","","","","","Phylogenetic_Distractor_notarget","2500","ongrid"," ","1","Phylogenetic","true","experimental"
"","null","html-keyboard-response","285","279690","0.0-13.0-2.24","OcsDv4CBT9","65fedd69bd65bd4eab478192","6617fad957f7c6a12ea16e26","6622cca1de5c5465f45ded2f","
    <div id=""grid-container"">
        <!-- Grid items will be dynamically added here -->
    </div>    ","null","","","","","","","","","","","",""
"","null","html-keyboard-response","286","280416","0.0-13.0-0.25","OcsDv4CBT9","65fedd69bd65bd4eab478192","6617fad957f7c6a12ea16e26","6622cca1de5c5465f45ded2f","fixation cross","null","","","","","","","","","","","",""
"","1177","html-keyboard-response","287","281594","0.0-13.0-1.25","OcsDv4CBT9","65fedd69bd65bd4eab478192","6617fad957f7c6a12ea16e26","6622cca1de5c5465f45ded2f","image grid"," ","","","","","Phylogenetic_Distractor_Nonthreat_target","2500","ongrid","p","7","Phylogenetic","false","experimental"
"","null","html-keyboard-response","288","281758","0.0-13.0-2.25","OcsDv4CBT9","65fedd69bd65bd4eab478192","6617fad957f7c6a12ea16e26","6622cca1de5c5465f45ded2f","
    <div id=""grid-container"">
        <!-- Grid items will be dynamically added here -->
    </div>    ","null","","","","","","","","","","","",""
"","null","html-keyboard-response","289","282462","0.0-13.0-0.26","OcsDv4CBT9","65fedd69bd65bd4eab478192","6617fad957f7c6a12ea16e26","6622cca1de5c5465f45ded2f","fixation cross","null","","","","","","","","","","","",""
"","1083","html-keyboard-response","290","283546","0.0-13.0-1.26","OcsDv4CBT9","65fedd69bd65bd4eab478192","6617fad957f7c6a12ea16e26","6622cca1de5c5465f45ded2f","image grid","p","","","","","Phylogenetic_Distractor_Nonthreat_target","2500","ongrid","p","6","Phylogenetic","true","experimental"
"","null","html-keyboard-response","291","283708","0.0-13.0-2.26","OcsDv4CBT9","65fedd69bd65bd4eab478192","6617fad957f7c6a12ea16e26","6622cca1de5c5465f45ded2f","
    <div id=""grid-container"">
        <!-- Grid items will be dynamically added here -->
    </div>    ","null","","","","","","","","","","","",""
"","null","html-keyboard-response","292","284427","0.0-13.0-0.27","OcsDv4CBT9","65fedd69bd65bd4eab478192","6617fad957f7c6a12ea16e26","6622cca1de5c5465f45ded2f","fixation cross","null","","","","","","","","","","","",""
"","1775","html-keyboard-response","293","286202","0.0-13.0-1.27","OcsDv4CBT9","65fedd69bd65bd4eab478192","6617fad957f7c6a12ea16e26","6622cca1de5c5465f45ded2f","image grid"," ","","","","","Phylogenetic_Distractor_notarget","2500","ongrid"," ","6","Phylogenetic","true","experimental"
"","null","html-keyboard-response","294","286360","0.0-13.0-2.27","OcsDv4CBT9","65fedd69bd65bd4eab478192","6617fad957f7c6a12ea16e26","6622cca1de5c5465f45ded2f","
    <div id=""grid-container"">
        <!-- Grid items will be dynamically added here -->
    </div>    ","null","","","","","","","","","","","",""
"","null","html-keyboard-response","295","287067","0.0-13.0-0.28","OcsDv4CBT9","65fedd69bd65bd4eab478192","6617fad957f7c6a12ea16e26","6622cca1de5c5465f45ded2f","fixation cross","null","","","","","","","","","","","",""
"","743","html-keyboard-response","296","287810","0.0-13.0-1.28","OcsDv4CBT9","65fedd69bd65bd4eab478192","6617fad957f7c6a12ea16e26","6622cca1de5c5465f45ded2f","image grid","q","","","","","Phylogenetic_Distractor_Threat_target","2500","ongrid","q","4","Phylogenetic","true","experimental"
"","null","html-keyboard-response","297","287970","0.0-13.0-2.28","OcsDv4CBT9","65fedd69bd65bd4eab478192","6617fad957f7c6a12ea16e26","6622cca1de5c5465f45ded2f","
    <div id=""grid-container"">
        <!-- Grid items will be dynamically added here -->
    </div>    ","null","","","","","","","","","","","",""
"","null","html-keyboard-response","298","288674","0.0-13.0-0.29","OcsDv4CBT9","65fedd69bd65bd4eab478192","6617fad957f7c6a12ea16e26","6622cca1de5c5465f45ded2f","fixation cross","null","","","","","","","","","","","",""
"","1336","html-keyboard-response","299","290010","0.0-13.0-1.29","OcsDv4CBT9","65fedd69bd65bd4eab478192","6617fad957f7c6a12ea16e26","6622cca1de5c5465f45ded2f","image grid","q","","","","","Phylogenetic_Distractor_Threat_target","2500","ongrid","q","9","Phylogenetic","true","experimental"
"","null","html-keyboard-response","300","290170","0.0-13.0-2.29","OcsDv4CBT9","65fedd69bd65bd4eab478192","6617fad957f7c6a12ea16e26","6622cca1de5c5465f45ded2f","
    <div id=""grid-container"">
        <!-- Grid items will be dynamically added here -->
    </div>    ","null","","","","","","","","","","","",""
"","null","html-keyboard-response","301","290884","0.0-13.0-0.30","OcsDv4CBT9","65fedd69bd65bd4eab478192","6617fad957f7c6a12ea16e26","6622cca1de5c5465f45ded2f","fixation cross","null","","","","","","","","","","","",""
"","1038","html-keyboard-response","302","291922","0.0-13.0-1.30","OcsDv4CBT9","65fedd69bd65bd4eab478192","6617fad957f7c6a12ea16e26","6622cca1de5c5465f45ded2f","image grid"," ","","","","","Phylogenetic_Distractor_notarget","2500","ongrid"," ","6","Phylogenetic","true","experimental"
"","null","html-keyboard-response","303","292073","0.0-13.0-2.30","OcsDv4CBT9","65fedd69bd65bd4eab478192","6617fad957f7c6a12ea16e26","6622cca1de5c5465f45ded2f","
    <div id=""grid-container"">
        <!-- Grid items will be dynamically added here -->
    </div>    ","null","","","","","","","","","","","",""
"","null","html-keyboard-response","304","292792","0.0-13.0-0.31","OcsDv4CBT9","65fedd69bd65bd4eab478192","6617fad957f7c6a12ea16e26","6622cca1de5c5465f45ded2f","fixation cross","null","","","","","","","","","","","",""
"","721","html-keyboard-response","305","293514","0.0-13.0-1.31","OcsDv4CBT9","65fedd69bd65bd4eab478192","6617fad957f7c6a12ea16e26","6622cca1de5c5465f45ded2f","image grid","q","","","","","Phylogenetic_Distractor_Threat_target","2500","ongrid","q","4","Phylogenetic","true","experimental"
"","null","html-keyboard-response","306","293678","0.0-13.0-2.31","OcsDv4CBT9","65fedd69bd65bd4eab478192","6617fad957f7c6a12ea16e26","6622cca1de5c5465f45ded2f","
    <div id=""grid-container"">
        <!-- Grid items will be dynamically added here -->
    </div>    ","null","","","","","","","","","","","",""
"","null","html-keyboard-response","307","294380","0.0-13.0-0.32","OcsDv4CBT9","65fedd69bd65bd4eab478192","6617fad957f7c6a12ea16e26","6622cca1de5c5465f45ded2f","fixation cross","null","","","","","","","","","","","",""
"","765","html-keyboard-response","308","295146","0.0-13.0-1.32","OcsDv4CBT9","65fedd69bd65bd4eab478192","6617fad957f7c6a12ea16e26","6622cca1de5c5465f45ded2f","image grid","q","","","","","Phylogenetic_Distractor_Threat_target","2500","ongrid","q","7","Phylogenetic","true","experimental"
"","null","html-keyboard-response","309","295301","0.0-13.0-2.32","OcsDv4CBT9","65fedd69bd65bd4eab478192","6617fad957f7c6a12ea16e26","6622cca1de5c5465f45ded2f","
    <div id=""grid-container"">
        <!-- Grid items will be dynamically added here -->
    </div>    ","null","","","","","","","","","","","",""
"","null","html-keyboard-response","310","296016","0.0-13.0-0.33","OcsDv4CBT9","65fedd69bd65bd4eab478192","6617fad957f7c6a12ea16e26","6622cca1de5c5465f45ded2f","fixation cross","null","","","","","","","","","","","",""
"","913","html-keyboard-response","311","296930","0.0-13.0-1.33","OcsDv4CBT9","65fedd69bd65bd4eab478192","6617fad957f7c6a12ea16e26","6622cca1de5c5465f45ded2f","image grid","p","","","","","Phylogenetic_Distractor_Nonthreat_target","2500","ongrid","p","9","Phylogenetic","true","experimental"
"","null","html-keyboard-response","312","297094","0.0-13.0-2.33","OcsDv4CBT9","65fedd69bd65bd4eab478192","6617fad957f7c6a12ea16e26","6622cca1de5c5465f45ded2f","
    <div id=""grid-container"">
        <!-- Grid items will be dynamically added here -->
    </div>    ","null","","","","","","","","","","","",""
"","null","html-keyboard-response","313","297806","0.0-13.0-0.34","OcsDv4CBT9","65fedd69bd65bd4eab478192","6617fad957f7c6a12ea16e26","6622cca1de5c5465f45ded2f","fixation cross","null","","","","","","","","","","","",""
"","811","html-keyboard-response","314","298618","0.0-13.0-1.34","OcsDv4CBT9","65fedd69bd65bd4eab478192","6617fad957f7c6a12ea16e26","6622cca1de5c5465f45ded2f","image grid","q","","","","","Phylogenetic_Distractor_Threat_target","2500","ongrid","q","7","Phylogenetic","true","experimental"
"","null","html-keyboard-response","315","298777","0.0-13.0-2.34","OcsDv4CBT9","65fedd69bd65bd4eab478192","6617fad957f7c6a12ea16e26","6622cca1de5c5465f45ded2f","
    <div id=""grid-container"">
        <!-- Grid items will be dynamically added here -->
    </div>    ","null","","","","","","","","","","","",""
"","null","html-keyboard-response","316","299493","0.0-13.0-0.35","OcsDv4CBT9","65fedd69bd65bd4eab478192","6617fad957f7c6a12ea16e26","6622cca1de5c5465f45ded2f","fixation cross","null","","","","","","","","","","","",""
"","1092","html-keyboard-response","317","300586","0.0-13.0-1.35","OcsDv4CBT9","65fedd69bd65bd4eab478192","6617fad957f7c6a12ea16e26","6622cca1de5c5465f45ded2f","image grid","p","","","","","Phylogenetic_Distractor_Nonthreat_target","2500","ongrid","p","1","Phylogenetic","true","experimental"
"","null","html-keyboard-response","318","300742","0.0-13.0-2.35","OcsDv4CBT9","65fedd69bd65bd4eab478192","6617fad957f7c6a12ea16e26","6622cca1de5c5465f45ded2f","
    <div id=""grid-container"">
        <!-- Grid items will be dynamically added here -->
    </div>    ","null","","","","","","","","","","","",""
"","null","html-keyboard-response","319","301445","0.0-13.0-0.36","OcsDv4CBT9","65fedd69bd65bd4eab478192","6617fad957f7c6a12ea16e26","6622cca1de5c5465f45ded2f","fixation cross","null","","","","","","","","","","","",""
"","725","html-keyboard-response","320","302170","0.0-13.0-1.36","OcsDv4CBT9","65fedd69bd65bd4eab478192","6617fad957f7c6a12ea16e26","6622cca1de5c5465f45ded2f","image grid","q","","","","","Phylogenetic_Distractor_Threat_target","2500","ongrid","q","1","Phylogenetic","true","experimental"
"","null","html-keyboard-response","321","302334","0.0-13.0-2.36","OcsDv4CBT9","65fedd69bd65bd4eab478192","6617fad957f7c6a12ea16e26","6622cca1de5c5465f45ded2f","
    <div id=""grid-container"">
        <!-- Grid items will be dynamically added here -->
    </div>    ","null","","","","","","","","","","","",""
"","null","html-keyboard-response","322","303051","0.0-13.0-0.37","OcsDv4CBT9","65fedd69bd65bd4eab478192","6617fad957f7c6a12ea16e26","6622cca1de5c5465f45ded2f","fixation cross","null","","","","","","","","","","","",""
"","1111","html-keyboard-response","323","304162","0.0-13.0-1.37","OcsDv4CBT9","65fedd69bd65bd4eab478192","6617fad957f7c6a12ea16e26","6622cca1de5c5465f45ded2f","image grid"," ","","","","","Phylogenetic_Distractor_Nonthreat_target","2500","ongrid","p","3","Phylogenetic","false","experimental"
"","null","html-keyboard-response","324","304315","0.0-13.0-2.37","OcsDv4CBT9","65fedd69bd65bd4eab478192","6617fad957f7c6a12ea16e26","6622cca1de5c5465f45ded2f","
    <div id=""grid-container"">
        <!-- Grid items will be dynamically added here -->
    </div>    ","null","","","","","","","","","","","",""
"","null","html-keyboard-response","325","305016","0.0-13.0-0.38","OcsDv4CBT9","65fedd69bd65bd4eab478192","6617fad957f7c6a12ea16e26","6622cca1de5c5465f45ded2f","fixation cross","null","","","","","","","","","","","",""
"","729","html-keyboard-response","326","305746","0.0-13.0-1.38","OcsDv4CBT9","65fedd69bd65bd4eab478192","6617fad957f7c6a12ea16e26","6622cca1de5c5465f45ded2f","image grid","q","","","","","Phylogenetic_Distractor_Threat_target","2500","ongrid","q","4","Phylogenetic","true","experimental"
"","null","html-keyboard-response","327","305905","0.0-13.0-2.38","OcsDv4CBT9","65fedd69bd65bd4eab478192","6617fad957f7c6a12ea16e26","6622cca1de5c5465f45ded2f","
    <div id=""grid-container"">
        <!-- Grid items will be dynamically added here -->
    </div>    ","null","","","","","","","","","","","",""
"","null","html-keyboard-response","328","306621","0.0-13.0-0.39","OcsDv4CBT9","65fedd69bd65bd4eab478192","6617fad957f7c6a12ea16e26","6622cca1de5c5465f45ded2f","fixation cross","null","","","","","","","","","","","",""
"","1253","html-keyboard-response","329","307874","0.0-13.0-1.39","OcsDv4CBT9","65fedd69bd65bd4eab478192","6617fad957f7c6a12ea16e26","6622cca1de5c5465f45ded2f","image grid","q","","","","","Phylogenetic_Distractor_Threat_target","2500","ongrid","q","7","Phylogenetic","true","experimental"
"","null","html-keyboard-response","330","308038","0.0-13.0-2.39","OcsDv4CBT9","65fedd69bd65bd4eab478192","6617fad957f7c6a12ea16e26","6622cca1de5c5465f45ded2f","
    <div id=""grid-container"">
        <!-- Grid items will be dynamically added here -->
    </div>    ","null","","","","","","","","","","","",""
"","2698","html-keyboard-response","331","310938","0.0-14.0","OcsDv4CBT9","65fedd69bd65bd4eab478192","6617fad957f7c6a12ea16e26","6622cca1de5c5465f45ded2f","break screen"," ","","","","","","","","","","","",""
"","null","html-keyboard-response","332","313459","0.0-15.0-0.0","OcsDv4CBT9","65fedd69bd65bd4eab478192","6617fad957f7c6a12ea16e26","6622cca1de5c5465f45ded2f","fixation cross","null","","","","","","","","","","","",""
"","null","html-keyboard-response","333","314267","0.0-15.0-1.0","OcsDv4CBT9","65fedd69bd65bd4eab478192","6617fad957f7c6a12ea16e26","6622cca1de5c5465f45ded2f","
        <div id=""grid-container"">
        <!-- Grid items will be dynamically added here -->
    </div>    ","null","","","","","","","","","","","",""
"","2967","html-keyboard-response","334","316434","0.0-15.0-2.0","OcsDv4CBT9","65fedd69bd65bd4eab478192","6617fad957f7c6a12ea16e26","6622cca1de5c5465f45ded2f","mask grid","p","","","","","Phylogenetic_Distractor_Nonthreat_target","800","onmask","p","9","Phylogenetic","true","experimental"
"","null","html-keyboard-response","335","317148","0.0-15.0-0.1","OcsDv4CBT9","65fedd69bd65bd4eab478192","6617fad957f7c6a12ea16e26","6622cca1de5c5465f45ded2f","fixation cross","null","","","","","","","","","","","",""
"","669","html-keyboard-response","336","317818","0.0-15.0-1.1","OcsDv4CBT9","65fedd69bd65bd4eab478192","6617fad957f7c6a12ea16e26","6622cca1de5c5465f45ded2f","image grid","q","","","","","Phylogenetic_Distractor_Threat_target","800","ongrid","q","4","Phylogenetic","true","experimental"
"","null","html-keyboard-response","337","317976","0.0-15.0-2.1","OcsDv4CBT9","65fedd69bd65bd4eab478192","6617fad957f7c6a12ea16e26","6622cca1de5c5465f45ded2f","
    <div id=""grid-container"">
        <!-- Grid items will be dynamically added here -->
    </div>    ","null","","","","","","","","","","","",""
"","null","html-keyboard-response","338","318694","0.0-15.0-0.2","OcsDv4CBT9","65fedd69bd65bd4eab478192","6617fad957f7c6a12ea16e26","6622cca1de5c5465f45ded2f","fixation cross","null","","","","","","","","","","","",""
"","null","html-keyboard-response","339","319505","0.0-15.0-1.2","OcsDv4CBT9","65fedd69bd65bd4eab478192","6617fad957f7c6a12ea16e26","6622cca1de5c5465f45ded2f","
        <div id=""grid-container"">
        <!-- Grid items will be dynamically added here -->
    </div>    ","null","","","","","","","","","","","",""
"","804","html-keyboard-response","340","319509","0.0-15.0-2.2","OcsDv4CBT9","65fedd69bd65bd4eab478192","6617fad957f7c6a12ea16e26","6622cca1de5c5465f45ded2f","mask grid"," ","","","","","Phylogenetic_Distractor_notarget","800","onmask"," ","4","Phylogenetic","true","experimental"
"","null","html-keyboard-response","341","320238","0.0-15.0-0.3","OcsDv4CBT9","65fedd69bd65bd4eab478192","6617fad957f7c6a12ea16e26","6622cca1de5c5465f45ded2f","fixation cross","null","","","","","","","","","","","",""
"","null","html-keyboard-response","342","321053","0.0-15.0-1.3","OcsDv4CBT9","65fedd69bd65bd4eab478192","6617fad957f7c6a12ea16e26","6622cca1de5c5465f45ded2f","
        <div id=""grid-container"">
        <!-- Grid items will be dynamically added here -->
    </div>    ","null","","","","","","","","","","","",""
"","1092","html-keyboard-response","343","321346","0.0-15.0-2.3","OcsDv4CBT9","65fedd69bd65bd4eab478192","6617fad957f7c6a12ea16e26","6622cca1de5c5465f45ded2f","mask grid","p","","","","","Phylogenetic_Distractor_Nonthreat_target","800","onmask","p","2","Phylogenetic","true","experimental"
"","null","html-keyboard-response","344","322066","0.0-15.0-0.4","OcsDv4CBT9","65fedd69bd65bd4eab478192","6617fad957f7c6a12ea16e26","6622cca1de5c5465f45ded2f","fixation cross","null","","","","","","","","","","","",""
"","null","html-keyboard-response","345","322879","0.0-15.0-1.4","OcsDv4CBT9","65fedd69bd65bd4eab478192","6617fad957f7c6a12ea16e26","6622cca1de5c5465f45ded2f","
        <div id=""grid-container"">
        <!-- Grid items will be dynamically added here -->
    </div>    ","null","","","","","","","","","","","",""
"","843","html-keyboard-response","346","322922","0.0-15.0-2.4","OcsDv4CBT9","65fedd69bd65bd4eab478192","6617fad957f7c6a12ea16e26","6622cca1de5c5465f45ded2f","mask grid","p","","","","","Phylogenetic_Distractor_Nonthreat_target","800","onmask","p","1","Phylogenetic","true","experimental"
"","null","html-keyboard-response","347","323641","0.0-15.0-0.5","OcsDv4CBT9","65fedd69bd65bd4eab478192","6617fad957f7c6a12ea16e26","6622cca1de5c5465f45ded2f","fixation cross","null","","","","","","","","","","","",""
"","null","html-keyboard-response","348","324454","0.0-15.0-1.5","OcsDv4CBT9","65fedd69bd65bd4eab478192","6617fad957f7c6a12ea16e26","6622cca1de5c5465f45ded2f","
        <div id=""grid-container"">
        <!-- Grid items will be dynamically added here -->
    </div>    ","null","","","","","","","","","","","",""
"","828","html-keyboard-response","349","324482","0.0-15.0-2.5","OcsDv4CBT9","65fedd69bd65bd4eab478192","6617fad957f7c6a12ea16e26","6622cca1de5c5465f45ded2f","mask grid","p","","","","","Phylogenetic_Distractor_Nonthreat_target","800","onmask","p","3","Phylogenetic","true","experimental"
"","null","html-keyboard-response","350","325202","0.0-15.0-0.6","OcsDv4CBT9","65fedd69bd65bd4eab478192","6617fad957f7c6a12ea16e26","6622cca1de5c5465f45ded2f","fixation cross","null","","","","","","","","","","","",""
"","648","html-keyboard-response","351","325850","0.0-15.0-1.6","OcsDv4CBT9","65fedd69bd65bd4eab478192","6617fad957f7c6a12ea16e26","6622cca1de5c5465f45ded2f","image grid","p","","","","","Phylogenetic_Distractor_Nonthreat_target","800","ongrid","p","6","Phylogenetic","true","experimental"
"","null","html-keyboard-response","352","326014","0.0-15.0-2.6","OcsDv4CBT9","65fedd69bd65bd4eab478192","6617fad957f7c6a12ea16e26","6622cca1de5c5465f45ded2f","
    <div id=""grid-container"">
        <!-- Grid items will be dynamically added here -->
    </div>    ","null","","","","","","","","","","","",""
"","null","html-keyboard-response","353","326733","0.0-15.0-0.7","OcsDv4CBT9","65fedd69bd65bd4eab478192","6617fad957f7c6a12ea16e26","6622cca1de5c5465f45ded2f","fixation cross","null","","","","","","","","","","","",""
"","741","html-keyboard-response","354","327474","0.0-15.0-1.7","OcsDv4CBT9","65fedd69bd65bd4eab478192","6617fad957f7c6a12ea16e26","6622cca1de5c5465f45ded2f","image grid"," ","","","","","Phylogenetic_Distractor_Nonthreat_target","800","ongrid","p","8","Phylogenetic","false","experimental"
"","null","html-keyboard-response","355","327637","0.0-15.0-2.7","OcsDv4CBT9","65fedd69bd65bd4eab478192","6617fad957f7c6a12ea16e26","6622cca1de5c5465f45ded2f","
    <div id=""grid-container"">
        <!-- Grid items will be dynamically added here -->
    </div>    ","null","","","","","","","","","","","",""
"","null","html-keyboard-response","356","328341","0.0-15.0-0.8","OcsDv4CBT9","65fedd69bd65bd4eab478192","6617fad957f7c6a12ea16e26","6622cca1de5c5465f45ded2f","fixation cross","null","","","","","","","","","","","",""
"","485","html-keyboard-response","357","328826","0.0-15.0-1.8","OcsDv4CBT9","65fedd69bd65bd4eab478192","6617fad957f7c6a12ea16e26","6622cca1de5c5465f45ded2f","image grid","q","","","","","Phylogenetic_Distractor_Threat_target","800","ongrid","q","7","Phylogenetic","true","experimental"
"","null","html-keyboard-response","358","328981","0.0-15.0-2.8","OcsDv4CBT9","65fedd69bd65bd4eab478192","6617fad957f7c6a12ea16e26","6622cca1de5c5465f45ded2f","
    <div id=""grid-container"">
        <!-- Grid items will be dynamically added here -->
    </div>    ","null","","","","","","","","","","","",""
"","null","html-keyboard-response","359","329696","0.0-15.0-0.9","OcsDv4CBT9","65fedd69bd65bd4eab478192","6617fad957f7c6a12ea16e26","6622cca1de5c5465f45ded2f","fixation cross","null","","","","","","","","","","","",""
"","null","html-keyboard-response","360","330509","0.0-15.0-1.9","OcsDv4CBT9","65fedd69bd65bd4eab478192","6617fad957f7c6a12ea16e26","6622cca1de5c5465f45ded2f","
        <div id=""grid-container"">
        <!-- Grid items will be dynamically added here -->
    </div>    ","null","","","","","","","","","","","",""
"","2422","html-keyboard-response","361","332131","0.0-15.0-2.9","OcsDv4CBT9","65fedd69bd65bd4eab478192","6617fad957f7c6a12ea16e26","6622cca1de5c5465f45ded2f","mask grid"," ","","","","","Phylogenetic_Distractor_notarget","800","onmask"," ","9","Phylogenetic","true","experimental"
"","null","html-keyboard-response","362","332836","0.0-15.0-0.10","OcsDv4CBT9","65fedd69bd65bd4eab478192","6617fad957f7c6a12ea16e26","6622cca1de5c5465f45ded2f","fixation cross","null","","","","","","","","","","","",""
"","734","html-keyboard-response","363","333570","0.0-15.0-1.10","OcsDv4CBT9","65fedd69bd65bd4eab478192","6617fad957f7c6a12ea16e26","6622cca1de5c5465f45ded2f","image grid","p","","","","","Phylogenetic_Distractor_Nonthreat_target","800","ongrid","p","3","Phylogenetic","true","experimental"
"","null","html-keyboard-response","364","333724","0.0-15.0-2.10","OcsDv4CBT9","65fedd69bd65bd4eab478192","6617fad957f7c6a12ea16e26","6622cca1de5c5465f45ded2f","
    <div id=""grid-container"">
        <!-- Grid items will be dynamically added here -->
    </div>    ","null","","","","","","","","","","","",""
"","null","html-keyboard-response","365","334443","0.0-15.0-0.11","OcsDv4CBT9","65fedd69bd65bd4eab478192","6617fad957f7c6a12ea16e26","6622cca1de5c5465f45ded2f","fixation cross","null","","","","","","","","","","","",""
"","503","html-keyboard-response","366","334946","0.0-15.0-1.11","OcsDv4CBT9","65fedd69bd65bd4eab478192","6617fad957f7c6a12ea16e26","6622cca1de5c5465f45ded2f","image grid","q","","","","","Phylogenetic_Distractor_Threat_target","800","ongrid","q","7","Phylogenetic","true","experimental"
"","null","html-keyboard-response","367","335100","0.0-15.0-2.11","OcsDv4CBT9","65fedd69bd65bd4eab478192","6617fad957f7c6a12ea16e26","6622cca1de5c5465f45ded2f","
    <div id=""grid-container"">
        <!-- Grid items will be dynamically added here -->
    </div>    ","null","","","","","","","","","","","",""
"","null","html-keyboard-response","368","335817","0.0-15.0-0.12","OcsDv4CBT9","65fedd69bd65bd4eab478192","6617fad957f7c6a12ea16e26","6622cca1de5c5465f45ded2f","fixation cross","null","","","","","","","","","","","",""
"","665","html-keyboard-response","369","336482","0.0-15.0-1.12","OcsDv4CBT9","65fedd69bd65bd4eab478192","6617fad957f7c6a12ea16e26","6622cca1de5c5465f45ded2f","image grid"," ","","","","","Phylogenetic_Distractor_notarget","800","ongrid"," ","4","Phylogenetic","true","experimental"
"","null","html-keyboard-response","370","336642","0.0-15.0-2.12","OcsDv4CBT9","65fedd69bd65bd4eab478192","6617fad957f7c6a12ea16e26","6622cca1de5c5465f45ded2f","
    <div id=""grid-container"">
        <!-- Grid items will be dynamically added here -->
