"success","rt","trial_type","trial_index","time_elapsed","internal_node_id","unique_identifier","subject_id","study_id","session_id","stimulus","response","timeout","failed_images","failed_audio","failed_video","task","time_manipulation","respondedwhen","correctresponse","targetimagelocation","blocktype","correct","roundtype"
"true","2856","fullscreen","0","3870","0.0-0.0","4yOkfYtJKa","65aeb35d7f4e3c2fd1959989","6617fad957f7c6a12ea16e26","6622cec137609569465d9863","","","","","","","","","","","","","",""
"","7601","html-keyboard-response","1","11473","0.0-1.0","4yOkfYtJKa","65aeb35d7f4e3c2fd1959989","6617fad957f7c6a12ea16e26","6622cec137609569465d9863","instruction screen 0"," ","","","","","","","","","","","",""
"true","","preload","2","14248","0.0-2.0","4yOkfYtJKa","65aeb35d7f4e3c2fd1959989","6617fad957f7c6a12ea16e26","6622cec137609569465d9863","","","false","[]","[]","[]","","","","","","","",""
"","13201","html-keyboard-response","3","27449","0.0-3.0","4yOkfYtJKa","65aeb35d7f4e3c2fd1959989","6617fad957f7c6a12ea16e26","6622cec137609569465d9863","instruction screen 1"," ","","","","","","","","","","","",""
"","6406","html-keyboard-response","4","33857","0.0-4.0","4yOkfYtJKa","65aeb35d7f4e3c2fd1959989","6617fad957f7c6a12ea16e26","6622cec137609569465d9863","instruction screen 2","q","","","","","","","","","","","",""
"","4350","html-keyboard-response","5","38209","0.0-5.0","4yOkfYtJKa","65aeb35d7f4e3c2fd1959989","6617fad957f7c6a12ea16e26","6622cec137609569465d9863","instruction screen 3","p","","","","","","","","","","","",""
"","4591","html-keyboard-response","6","42802","0.0-6.0","4yOkfYtJKa","65aeb35d7f4e3c2fd1959989","6617fad957f7c6a12ea16e26","6622cec137609569465d9863","instruction screen 4"," ","","","","","","","","","","","",""
"","13038","html-keyboard-response","7","55841","0.0-7.0","4yOkfYtJKa","65aeb35d7f4e3c2fd1959989","6617fad957f7c6a12ea16e26","6622cec137609569465d9863","instruction screen 5"," ","","","","","","","","","","","",""
"","null","html-keyboard-response","8","56344","0.0-8.0","4yOkfYtJKa","65aeb35d7f4e3c2fd1959989","6617fad957f7c6a12ea16e26","6622cec137609569465d9863","fixation cross","null","","","","","","","","","","","",""
"","null","html-keyboard-response","9","56845","0.0-9.0-0.0","4yOkfYtJKa","65aeb35d7f4e3c2fd1959989","6617fad957f7c6a12ea16e26","6622cec137609569465d9863","fixation cross","null","","","","","","","","","","","",""
"","1868","html-keyboard-response","10","58713","0.0-9.0-1.0","4yOkfYtJKa","65aeb35d7f4e3c2fd1959989","6617fad957f7c6a12ea16e26","6622cec137609569465d9863","image grid","p","","","","","Ontogenetic_Distractor_Nonthreat_target","3000","ongrid","p","6","Phylogenetic","true","practice"
"","null","html-keyboard-response","11","58873","0.0-9.0-2.0","4yOkfYtJKa","65aeb35d7f4e3c2fd1959989","6617fad957f7c6a12ea16e26","6622cec137609569465d9863","
    <div id=""grid-container"">
        <!-- Grid items will be dynamically added here -->
    </div>    ","null","","","","","","","","","","","",""
"","null","html-keyboard-response","12","60089","0.0-9.0-3.0","4yOkfYtJKa","65aeb35d7f4e3c2fd1959989","6617fad957f7c6a12ea16e26","6622cec137609569465d9863","feedback screen","null","","","","","","","","","","","",""
"","null","html-keyboard-response","13","60599","0.0-9.0-0.1","4yOkfYtJKa","65aeb35d7f4e3c2fd1959989","6617fad957f7c6a12ea16e26","6622cec137609569465d9863","fixation cross","null","","","","","","","","","","","",""
"","2066","html-keyboard-response","14","62665","0.0-9.0-1.1","4yOkfYtJKa","65aeb35d7f4e3c2fd1959989","6617fad957f7c6a12ea16e26","6622cec137609569465d9863","image grid","q","","","","","Phylogenetic_Distractor_Threat_target","2900","ongrid","q","7","Phylogenetic","true","practice"
"","null","html-keyboard-response","15","62821","0.0-9.0-2.1","4yOkfYtJKa","65aeb35d7f4e3c2fd1959989","6617fad957f7c6a12ea16e26","6622cec137609569465d9863","
    <div id=""grid-container"">
        <!-- Grid items will be dynamically added here -->
    </div>    ","null","","","","","","","","","","","",""
"","null","html-keyboard-response","16","64026","0.0-9.0-3.1","4yOkfYtJKa","65aeb35d7f4e3c2fd1959989","6617fad957f7c6a12ea16e26","6622cec137609569465d9863","feedback screen","null","","","","","","","","","","","",""
"","null","html-keyboard-response","17","64529","0.0-9.0-0.2","4yOkfYtJKa","65aeb35d7f4e3c2fd1959989","6617fad957f7c6a12ea16e26","6622cec137609569465d9863","fixation cross","null","","","","","","","","","","","",""
"","1464","html-keyboard-response","18","65993","0.0-9.0-1.2","4yOkfYtJKa","65aeb35d7f4e3c2fd1959989","6617fad957f7c6a12ea16e26","6622cec137609569465d9863","image grid","q","","","","","Ontogenetic_Distractor_Threat_target","2800","ongrid","q","1","Phylogenetic","true","practice"
"","null","html-keyboard-response","19","66147","0.0-9.0-2.2","4yOkfYtJKa","65aeb35d7f4e3c2fd1959989","6617fad957f7c6a12ea16e26","6622cec137609569465d9863","
    <div id=""grid-container"">
        <!-- Grid items will be dynamically added here -->
    </div>    ","null","","","","","","","","","","","",""
"","null","html-keyboard-response","20","67352","0.0-9.0-3.2","4yOkfYtJKa","65aeb35d7f4e3c2fd1959989","6617fad957f7c6a12ea16e26","6622cec137609569465d9863","feedback screen","null","","","","","","","","","","","",""
"","null","html-keyboard-response","21","67864","0.0-9.0-0.3","4yOkfYtJKa","65aeb35d7f4e3c2fd1959989","6617fad957f7c6a12ea16e26","6622cec137609569465d9863","fixation cross","null","","","","","","","","","","","",""
"","1521","html-keyboard-response","22","69385","0.0-9.0-1.3","4yOkfYtJKa","65aeb35d7f4e3c2fd1959989","6617fad957f7c6a12ea16e26","6622cec137609569465d9863","image grid","q","","","","","Ontogenetic_Distractor_Threat_target","2700","ongrid","q","3","Phylogenetic","true","practice"
"","null","html-keyboard-response","23","69540","0.0-9.0-2.3","4yOkfYtJKa","65aeb35d7f4e3c2fd1959989","6617fad957f7c6a12ea16e26","6622cec137609569465d9863","
    <div id=""grid-container"">
        <!-- Grid items will be dynamically added here -->
    </div>    ","null","","","","","","","","","","","",""
"","null","html-keyboard-response","24","70753","0.0-9.0-3.3","4yOkfYtJKa","65aeb35d7f4e3c2fd1959989","6617fad957f7c6a12ea16e26","6622cec137609569465d9863","feedback screen","null","","","","","","","","","","","",""
"","null","html-keyboard-response","25","71267","0.0-9.0-0.4","4yOkfYtJKa","65aeb35d7f4e3c2fd1959989","6617fad957f7c6a12ea16e26","6622cec137609569465d9863","fixation cross","null","","","","","","","","","","","",""
"","2070","html-keyboard-response","26","73337","0.0-9.0-1.4","4yOkfYtJKa","65aeb35d7f4e3c2fd1959989","6617fad957f7c6a12ea16e26","6622cec137609569465d9863","image grid"," ","","","","","Phylogenetic_Distractor_Nonthreat_target","2600","ongrid","p","9","Phylogenetic","false","practice"
"","null","html-keyboard-response","27","73489","0.0-9.0-2.4","4yOkfYtJKa","65aeb35d7f4e3c2fd1959989","6617fad957f7c6a12ea16e26","6622cec137609569465d9863","
    <div id=""grid-container"">
        <!-- Grid items will be dynamically added here -->
    </div>    ","null","","","","","","","","","","","",""
"","null","html-keyboard-response","28","74705","0.0-9.0-3.4","4yOkfYtJKa","65aeb35d7f4e3c2fd1959989","6617fad957f7c6a12ea16e26","6622cec137609569465d9863","feedback screen","null","","","","","","","","","","","",""
"","null","html-keyboard-response","29","75210","0.0-9.0-0.5","4yOkfYtJKa","65aeb35d7f4e3c2fd1959989","6617fad957f7c6a12ea16e26","6622cec137609569465d9863","fixation cross","null","","","","","","","","","","","",""
"","1367","html-keyboard-response","30","76578","0.0-9.0-1.5","4yOkfYtJKa","65aeb35d7f4e3c2fd1959989","6617fad957f7c6a12ea16e26","6622cec137609569465d9863","image grid","p","","","","","Ontogenetic_Distractor_Nonthreat_target","2500","ongrid","p","2","Phylogenetic","true","practice"
"","null","html-keyboard-response","31","76734","0.0-9.0-2.5","4yOkfYtJKa","65aeb35d7f4e3c2fd1959989","6617fad957f7c6a12ea16e26","6622cec137609569465d9863","
    <div id=""grid-container"">
        <!-- Grid items will be dynamically added here -->
    </div>    ","null","","","","","","","","","","","",""
"","null","html-keyboard-response","32","77948","0.0-9.0-3.5","4yOkfYtJKa","65aeb35d7f4e3c2fd1959989","6617fad957f7c6a12ea16e26","6622cec137609569465d9863","feedback screen","null","","","","","","","","","","","",""
"","null","html-keyboard-response","33","78450","0.0-9.0-0.6","4yOkfYtJKa","65aeb35d7f4e3c2fd1959989","6617fad957f7c6a12ea16e26","6622cec137609569465d9863","fixation cross","null","","","","","","","","","","","",""
"","1014","html-keyboard-response","34","79465","0.0-9.0-1.6","4yOkfYtJKa","65aeb35d7f4e3c2fd1959989","6617fad957f7c6a12ea16e26","6622cec137609569465d9863","image grid","q","","","","","Ontogenetic_Distractor_Threat_target","2400","ongrid","q","4","Phylogenetic","true","practice"
"","null","html-keyboard-response","35","79617","0.0-9.0-2.6","4yOkfYtJKa","65aeb35d7f4e3c2fd1959989","6617fad957f7c6a12ea16e26","6622cec137609569465d9863","
    <div id=""grid-container"">
        <!-- Grid items will be dynamically added here -->
    </div>    ","null","","","","","","","","","","","",""
"","null","html-keyboard-response","36","80836","0.0-9.0-3.6","4yOkfYtJKa","65aeb35d7f4e3c2fd1959989","6617fad957f7c6a12ea16e26","6622cec137609569465d9863","feedback screen","null","","","","","","","","","","","",""
"","null","html-keyboard-response","37","81350","0.0-9.0-0.7","4yOkfYtJKa","65aeb35d7f4e3c2fd1959989","6617fad957f7c6a12ea16e26","6622cec137609569465d9863","fixation cross","null","","","","","","","","","","","",""
"","1779","html-keyboard-response","38","83129","0.0-9.0-1.7","4yOkfYtJKa","65aeb35d7f4e3c2fd1959989","6617fad957f7c6a12ea16e26","6622cec137609569465d9863","image grid","p","","","","","Phylogenetic_Distractor_Nonthreat_target","2300","ongrid","p","9","Phylogenetic","true","practice"
"","null","html-keyboard-response","39","83287","0.0-9.0-2.7","4yOkfYtJKa","65aeb35d7f4e3c2fd1959989","6617fad957f7c6a12ea16e26","6622cec137609569465d9863","
    <div id=""grid-container"">
        <!-- Grid items will be dynamically added here -->
    </div>    ","null","","","","","","","","","","","",""
"","null","html-keyboard-response","40","84502","0.0-9.0-3.7","4yOkfYtJKa","65aeb35d7f4e3c2fd1959989","6617fad957f7c6a12ea16e26","6622cec137609569465d9863","feedback screen","null","","","","","","","","","","","",""
"","null","html-keyboard-response","41","85018","0.0-9.0-0.8","4yOkfYtJKa","65aeb35d7f4e3c2fd1959989","6617fad957f7c6a12ea16e26","6622cec137609569465d9863","fixation cross","null","","","","","","","","","","","",""
"","1215","html-keyboard-response","42","86233","0.0-9.0-1.8","4yOkfYtJKa","65aeb35d7f4e3c2fd1959989","6617fad957f7c6a12ea16e26","6622cec137609569465d9863","image grid","q","","","","","Ontogenetic_Distractor_Threat_target","2200","ongrid","q","4","Phylogenetic","true","practice"
"","null","html-keyboard-response","43","86392","0.0-9.0-2.8","4yOkfYtJKa","65aeb35d7f4e3c2fd1959989","6617fad957f7c6a12ea16e26","6622cec137609569465d9863","
    <div id=""grid-container"">
        <!-- Grid items will be dynamically added here -->
    </div>    ","null","","","","","","","","","","","",""
"","null","html-keyboard-response","44","87609","0.0-9.0-3.8","4yOkfYtJKa","65aeb35d7f4e3c2fd1959989","6617fad957f7c6a12ea16e26","6622cec137609569465d9863","feedback screen","null","","","","","","","","","","","",""
"","null","html-keyboard-response","45","88111","0.0-9.0-0.9","4yOkfYtJKa","65aeb35d7f4e3c2fd1959989","6617fad957f7c6a12ea16e26","6622cec137609569465d9863","fixation cross","null","","","","","","","","","","","",""
"","null","html-keyboard-response","46","90222","0.0-9.0-1.9","4yOkfYtJKa","65aeb35d7f4e3c2fd1959989","6617fad957f7c6a12ea16e26","6622cec137609569465d9863","
        <div id=""grid-container"">
        <!-- Grid items will be dynamically added here -->
    </div>    ","null","","","","","","","","","","","",""
"","2159","html-keyboard-response","47","90281","0.0-9.0-2.9","4yOkfYtJKa","65aeb35d7f4e3c2fd1959989","6617fad957f7c6a12ea16e26","6622cec137609569465d9863","mask grid"," ","","","","","Phylogenetic_Distractor_notarget","2100","onmask"," ","8","Phylogenetic","true","practice"
"","null","html-keyboard-response","48","91493","0.0-9.0-3.9","4yOkfYtJKa","65aeb35d7f4e3c2fd1959989","6617fad957f7c6a12ea16e26","6622cec137609569465d9863","feedback screen","null","","","","","","","","","","","",""
"","null","html-keyboard-response","49","92010","0.0-9.0-0.10","4yOkfYtJKa","65aeb35d7f4e3c2fd1959989","6617fad957f7c6a12ea16e26","6622cec137609569465d9863","fixation cross","null","","","","","","","","","","","",""
"","1366","html-keyboard-response","50","93377","0.0-9.0-1.10","4yOkfYtJKa","65aeb35d7f4e3c2fd1959989","6617fad957f7c6a12ea16e26","6622cec137609569465d9863","image grid","q","","","","","Phylogenetic_Distractor_Threat_target","2000","ongrid","q","9","Phylogenetic","true","practice"
"","null","html-keyboard-response","51","93529","0.0-9.0-2.10","4yOkfYtJKa","65aeb35d7f4e3c2fd1959989","6617fad957f7c6a12ea16e26","6622cec137609569465d9863","
    <div id=""grid-container"">
        <!-- Grid items will be dynamically added here -->
    </div>    ","null","","","","","","","","","","","",""
"","null","html-keyboard-response","52","94752","0.0-9.0-3.10","4yOkfYtJKa","65aeb35d7f4e3c2fd1959989","6617fad957f7c6a12ea16e26","6622cec137609569465d9863","feedback screen","null","","","","","","","","","","","",""
"","null","html-keyboard-response","53","95255","0.0-9.0-0.11","4yOkfYtJKa","65aeb35d7f4e3c2fd1959989","6617fad957f7c6a12ea16e26","6622cec137609569465d9863","fixation cross","null","","","","","","","","","","","",""
"","1858","html-keyboard-response","54","97114","0.0-9.0-1.11","4yOkfYtJKa","65aeb35d7f4e3c2fd1959989","6617fad957f7c6a12ea16e26","6622cec137609569465d9863","image grid"," ","","","","","Phylogenetic_Distractor_notarget","1900","ongrid"," ","6","Phylogenetic","true","practice"
"","null","html-keyboard-response","55","97274","0.0-9.0-2.11","4yOkfYtJKa","65aeb35d7f4e3c2fd1959989","6617fad957f7c6a12ea16e26","6622cec137609569465d9863","
    <div id=""grid-container"">
        <!-- Grid items will be dynamically added here -->
    </div>    ","null","","","","","","","","","","","",""
"","null","html-keyboard-response","56","98478","0.0-9.0-3.11","4yOkfYtJKa","65aeb35d7f4e3c2fd1959989","6617fad957f7c6a12ea16e26","6622cec137609569465d9863","feedback screen","null","","","","","","","","","","","",""
"","null","html-keyboard-response","57","98990","0.0-9.0-0.12","4yOkfYtJKa","65aeb35d7f4e3c2fd1959989","6617fad957f7c6a12ea16e26","6622cec137609569465d9863","fixation cross","null","","","","","","","","","","","",""
"","914","html-keyboard-response","58","99905","0.0-9.0-1.12","4yOkfYtJKa","65aeb35d7f4e3c2fd1959989","6617fad957f7c6a12ea16e26","6622cec137609569465d9863","image grid","p","","","","","Ontogenetic_Distractor_Nonthreat_target","1800","ongrid","p","4","Phylogenetic","true","practice"
"","null","html-keyboard-response","59","100067","0.0-9.0-2.12","4yOkfYtJKa","65aeb35d7f4e3c2fd1959989","6617fad957f7c6a12ea16e26","6622cec137609569465d9863","
    <div id=""grid-container"">
        <!-- Grid items will be dynamically added here -->
    </div>    ","null","","","","","","","","","","","",""
"","null","html-keyboard-response","60","101292","0.0-9.0-3.12","4yOkfYtJKa","65aeb35d7f4e3c2fd1959989","6617fad957f7c6a12ea16e26","6622cec137609569465d9863","feedback screen","null","","","","","","","","","","","",""
"","null","html-keyboard-response","61","101804","0.0-9.0-0.13","4yOkfYtJKa","65aeb35d7f4e3c2fd1959989","6617fad957f7c6a12ea16e26","6622cec137609569465d9863","fixation cross","null","","","","","","","","","","","",""
"","1685","html-keyboard-response","62","103490","0.0-9.0-1.13","4yOkfYtJKa","65aeb35d7f4e3c2fd1959989","6617fad957f7c6a12ea16e26","6622cec137609569465d9863","image grid","q","","","","","Phylogenetic_Distractor_Nonthreat_target","1700","ongrid","p","8","Phylogenetic","false","practice"
"","null","html-keyboard-response","63","103641","0.0-9.0-2.13","4yOkfYtJKa","65aeb35d7f4e3c2fd1959989","6617fad957f7c6a12ea16e26","6622cec137609569465d9863","
    <div id=""grid-container"">
        <!-- Grid items will be dynamically added here -->
    </div>    ","null","","","","","","","","","","","",""
"","null","html-keyboard-response","64","104868","0.0-9.0-3.13","4yOkfYtJKa","65aeb35d7f4e3c2fd1959989","6617fad957f7c6a12ea16e26","6622cec137609569465d9863","feedback screen","null","","","","","","","","","","","",""
"","null","html-keyboard-response","65","105385","0.0-9.0-0.14","4yOkfYtJKa","65aeb35d7f4e3c2fd1959989","6617fad957f7c6a12ea16e26","6622cec137609569465d9863","fixation cross","null","","","","","","","","","","","",""
"","1520","html-keyboard-response","66","106905","0.0-9.0-1.14","4yOkfYtJKa","65aeb35d7f4e3c2fd1959989","6617fad957f7c6a12ea16e26","6622cec137609569465d9863","image grid"," ","","","","","Ontogenetic_Distractor_notarget","1600","ongrid"," ","1","Phylogenetic","true","practice"
"","null","html-keyboard-response","67","107057","0.0-9.0-2.14","4yOkfYtJKa","65aeb35d7f4e3c2fd1959989","6617fad957f7c6a12ea16e26","6622cec137609569465d9863","
    <div id=""grid-container"">
        <!-- Grid items will be dynamically added here -->
    </div>    ","null","","","","","","","","","","","",""
"","null","html-keyboard-response","68","108287","0.0-9.0-3.14","4yOkfYtJKa","65aeb35d7f4e3c2fd1959989","6617fad957f7c6a12ea16e26","6622cec137609569465d9863","feedback screen","null","","","","","","","","","","","",""
"","null","html-keyboard-response","69","108803","0.0-9.0-0.15","4yOkfYtJKa","65aeb35d7f4e3c2fd1959989","6617fad957f7c6a12ea16e26","6622cec137609569465d9863","fixation cross","null","","","","","","","","","","","",""
"","773","html-keyboard-response","70","109577","0.0-9.0-1.15","4yOkfYtJKa","65aeb35d7f4e3c2fd1959989","6617fad957f7c6a12ea16e26","6622cec137609569465d9863","image grid","p","","","","","Ontogenetic_Distractor_Nonthreat_target","1500","ongrid","p","2","Phylogenetic","true","practice"
"","null","html-keyboard-response","71","109741","0.0-9.0-2.15","4yOkfYtJKa","65aeb35d7f4e3c2fd1959989","6617fad957f7c6a12ea16e26","6622cec137609569465d9863","
    <div id=""grid-container"">
        <!-- Grid items will be dynamically added here -->
    </div>    ","null","","","","","","","","","","","",""
"","null","html-keyboard-response","72","110953","0.0-9.0-3.15","4yOkfYtJKa","65aeb35d7f4e3c2fd1959989","6617fad957f7c6a12ea16e26","6622cec137609569465d9863","feedback screen","null","","","","","","","","","","","",""
"","null","html-keyboard-response","73","111469","0.0-9.0-0.16","4yOkfYtJKa","65aeb35d7f4e3c2fd1959989","6617fad957f7c6a12ea16e26","6622cec137609569465d9863","fixation cross","null","","","","","","","","","","","",""
"","null","html-keyboard-response","74","112873","0.0-9.0-1.16","4yOkfYtJKa","65aeb35d7f4e3c2fd1959989","6617fad957f7c6a12ea16e26","6622cec137609569465d9863","
        <div id=""grid-container"">
        <!-- Grid items will be dynamically added here -->
    </div>    ","null","","","","","","","","","","","",""
"","4848","html-keyboard-response","75","116321","0.0-9.0-2.16","4yOkfYtJKa","65aeb35d7f4e3c2fd1959989","6617fad957f7c6a12ea16e26","6622cec137609569465d9863","mask grid"," ","","","","","Ontogenetic_Distractor_notarget","1400","onmask"," ","9","Phylogenetic","true","practice"
"","null","html-keyboard-response","76","117538","0.0-9.0-3.16","4yOkfYtJKa","65aeb35d7f4e3c2fd1959989","6617fad957f7c6a12ea16e26","6622cec137609569465d9863","feedback screen","null","","","","","","","","","","","",""
"","null","html-keyboard-response","77","118053","0.0-9.0-0.17","4yOkfYtJKa","65aeb35d7f4e3c2fd1959989","6617fad957f7c6a12ea16e26","6622cec137609569465d9863","fixation cross","null","","","","","","","","","","","",""
"","1164","html-keyboard-response","78","119218","0.0-9.0-1.17","4yOkfYtJKa","65aeb35d7f4e3c2fd1959989","6617fad957f7c6a12ea16e26","6622cec137609569465d9863","image grid","q","","","","","Phylogenetic_Distractor_Threat_target","1300","ongrid","q","2","Phylogenetic","true","practice"
"","null","html-keyboard-response","79","119383","0.0-9.0-2.17","4yOkfYtJKa","65aeb35d7f4e3c2fd1959989","6617fad957f7c6a12ea16e26","6622cec137609569465d9863","
    <div id=""grid-container"">
        <!-- Grid items will be dynamically added here -->
    </div>    ","null","","","","","","","","","","","",""
"","null","html-keyboard-response","80","120592","0.0-9.0-3.17","4yOkfYtJKa","65aeb35d7f4e3c2fd1959989","6617fad957f7c6a12ea16e26","6622cec137609569465d9863","feedback screen","null","","","","","","","","","","","",""
"","null","html-keyboard-response","81","121108","0.0-9.0-0.18","4yOkfYtJKa","65aeb35d7f4e3c2fd1959989","6617fad957f7c6a12ea16e26","6622cec137609569465d9863","fixation cross","null","","","","","","","","","","","",""
"","null","html-keyboard-response","82","122324","0.0-9.0-1.18","4yOkfYtJKa","65aeb35d7f4e3c2fd1959989","6617fad957f7c6a12ea16e26","6622cec137609569465d9863","
        <div id=""grid-container"">
        <!-- Grid items will be dynamically added here -->
    </div>    ","null","","","","","","","","","","","",""
"","2573","html-keyboard-response","83","123698","0.0-9.0-2.18","4yOkfYtJKa","65aeb35d7f4e3c2fd1959989","6617fad957f7c6a12ea16e26","6622cec137609569465d9863","mask grid"," ","","","","","Phylogenetic_Distractor_Nonthreat_target","1200","onmask","p","8","Phylogenetic","false","practice"
"","null","html-keyboard-response","84","124915","0.0-9.0-3.18","4yOkfYtJKa","65aeb35d7f4e3c2fd1959989","6617fad957f7c6a12ea16e26","6622cec137609569465d9863","feedback screen","null","","","","","","","","","","","",""
"","null","html-keyboard-response","85","125430","0.0-9.0-0.19","4yOkfYtJKa","65aeb35d7f4e3c2fd1959989","6617fad957f7c6a12ea16e26","6622cec137609569465d9863","fixation cross","null","","","","","","","","","","","",""
"","null","html-keyboard-response","86","126537","0.0-9.0-1.19","4yOkfYtJKa","65aeb35d7f4e3c2fd1959989","6617fad957f7c6a12ea16e26","6622cec137609569465d9863","
        <div id=""grid-container"">
        <!-- Grid items will be dynamically added here -->
    </div>    ","null","","","","","","","","","","","",""
"","2757","html-keyboard-response","87","128194","0.0-9.0-2.19","4yOkfYtJKa","65aeb35d7f4e3c2fd1959989","6617fad957f7c6a12ea16e26","6622cec137609569465d9863","mask grid"," ","","","","","Phylogenetic_Distractor_Threat_target","1100","onmask","q","7","Phylogenetic","false","practice"
"","null","html-keyboard-response","88","129399","0.0-9.0-3.19","4yOkfYtJKa","65aeb35d7f4e3c2fd1959989","6617fad957f7c6a12ea16e26","6622cec137609569465d9863","feedback screen","null","","","","","","","","","","","",""
"","10064","html-keyboard-response","89","139481","0.0-10.0","4yOkfYtJKa","65aeb35d7f4e3c2fd1959989","6617fad957f7c6a12ea16e26","6622cec137609569465d9863","pre-experimental_briefing"," ","","","","","","","","","","","",""
"","null","html-keyboard-response","90","142005","0.0-11.0-0.0","4yOkfYtJKa","65aeb35d7f4e3c2fd1959989","6617fad957f7c6a12ea16e26","6622cec137609569465d9863","fixation cross","null","","","","","","","","","","","",""
"","1204","html-keyboard-response","91","143210","0.0-11.0-1.0","4yOkfYtJKa","65aeb35d7f4e3c2fd1959989","6617fad957f7c6a12ea16e26","6622cec137609569465d9863","image grid","q","","","","","Phylogenetic_Distractor_Threat_target","2500","ongrid","q","7","Phylogenetic","true","experimental"
"","null","html-keyboard-response","92","143362","0.0-11.0-2.0","4yOkfYtJKa","65aeb35d7f4e3c2fd1959989","6617fad957f7c6a12ea16e26","6622cec137609569465d9863","
    <div id=""grid-container"">
        <!-- Grid items will be dynamically added here -->
    </div>    ","null","","","","","","","","","","","",""
"","null","html-keyboard-response","93","144086","0.0-11.0-0.1","4yOkfYtJKa","65aeb35d7f4e3c2fd1959989","6617fad957f7c6a12ea16e26","6622cec137609569465d9863","fixation cross","null","","","","","","","","","","","",""
"","1330","html-keyboard-response","94","145417","0.0-11.0-1.1","4yOkfYtJKa","65aeb35d7f4e3c2fd1959989","6617fad957f7c6a12ea16e26","6622cec137609569465d9863","image grid","p","","","","","Phylogenetic_Distractor_Nonthreat_target","2500","ongrid","p","5","Phylogenetic","true","experimental"
"","null","html-keyboard-response","95","145569","0.0-11.0-2.1","4yOkfYtJKa","65aeb35d7f4e3c2fd1959989","6617fad957f7c6a12ea16e26","6622cec137609569465d9863","
    <div id=""grid-container"">
        <!-- Grid items will be dynamically added here -->
    </div>    ","null","","","","","","","","","","","",""
"","null","html-keyboard-response","96","146292","0.0-11.0-0.2","4yOkfYtJKa","65aeb35d7f4e3c2fd1959989","6617fad957f7c6a12ea16e26","6622cec137609569465d9863","fixation cross","null","","","","","","","","","","","",""
"","1109","html-keyboard-response","97","147401","0.0-11.0-1.2","4yOkfYtJKa","65aeb35d7f4e3c2fd1959989","6617fad957f7c6a12ea16e26","6622cec137609569465d9863","image grid","p","","","","","Phylogenetic_Distractor_Nonthreat_target","2500","ongrid","p","8","Phylogenetic","true","experimental"
"","null","html-keyboard-response","98","147554","0.0-11.0-2.2","4yOkfYtJKa","65aeb35d7f4e3c2fd1959989","6617fad957f7c6a12ea16e26","6622cec137609569465d9863","
    <div id=""grid-container"">
        <!-- Grid items will be dynamically added here -->
    </div>    ","null","","","","","","","","","","","",""
"","null","html-keyboard-response","99","148261","0.0-11.0-0.3","4yOkfYtJKa","65aeb35d7f4e3c2fd1959989","6617fad957f7c6a12ea16e26","6622cec137609569465d9863","fixation cross","null","","","","","","","","","","","",""
"","1276","html-keyboard-response","100","149538","0.0-11.0-1.3","4yOkfYtJKa","65aeb35d7f4e3c2fd1959989","6617fad957f7c6a12ea16e26","6622cec137609569465d9863","image grid"," ","","","","","Phylogenetic_Distractor_notarget","2500","ongrid"," ","5","Phylogenetic","true","experimental"
"","null","html-keyboard-response","101","149701","0.0-11.0-2.3","4yOkfYtJKa","65aeb35d7f4e3c2fd1959989","6617fad957f7c6a12ea16e26","6622cec137609569465d9863","
    <div id=""grid-container"">
        <!-- Grid items will be dynamically added here -->
    </div>    ","null","","","","","","","","","","","",""
"","null","html-keyboard-response","102","150413","0.0-11.0-0.4","4yOkfYtJKa","65aeb35d7f4e3c2fd1959989","6617fad957f7c6a12ea16e26","6622cec137609569465d9863","fixation cross","null","","","","","","","","","","","",""
"","980","html-keyboard-response","103","151394","0.0-11.0-1.4","4yOkfYtJKa","65aeb35d7f4e3c2fd1959989","6617fad957f7c6a12ea16e26","6622cec137609569465d9863","image grid","q","","","","","Phylogenetic_Distractor_Threat_target","2500","ongrid","q","7","Phylogenetic","true","experimental"
"","null","html-keyboard-response","104","151553","0.0-11.0-2.4","4yOkfYtJKa","65aeb35d7f4e3c2fd1959989","6617fad957f7c6a12ea16e26","6622cec137609569465d9863","
    <div id=""grid-container"">
        <!-- Grid items will be dynamically added here -->
    </div>    ","null","","","","","","","","","","","",""
"","null","html-keyboard-response","105","152264","0.0-11.0-0.5","4yOkfYtJKa","65aeb35d7f4e3c2fd1959989","6617fad957f7c6a12ea16e26","6622cec137609569465d9863","fixation cross","null","","","","","","","","","","","",""
"","1497","html-keyboard-response","106","153762","0.0-11.0-1.5","4yOkfYtJKa","65aeb35d7f4e3c2fd1959989","6617fad957f7c6a12ea16e26","6622cec137609569465d9863","image grid","q","","","","","Phylogenetic_Distractor_Threat_target","2500","ongrid","q","3","Phylogenetic","true","experimental"
"","null","html-keyboard-response","107","153918","0.0-11.0-2.5","4yOkfYtJKa","65aeb35d7f4e3c2fd1959989","6617fad957f7c6a12ea16e26","6622cec137609569465d9863","
    <div id=""grid-container"">
        <!-- Grid items will be dynamically added here -->
    </div>    ","null","","","","","","","","","","","",""
"","null","html-keyboard-response","108","154633","0.0-11.0-0.6","4yOkfYtJKa","65aeb35d7f4e3c2fd1959989","6617fad957f7c6a12ea16e26","6622cec137609569465d9863","fixation cross","null","","","","","","","","","","","",""
"","2304","html-keyboard-response","109","156938","0.0-11.0-1.6","4yOkfYtJKa","65aeb35d7f4e3c2fd1959989","6617fad957f7c6a12ea16e26","6622cec137609569465d9863","image grid","p","","","","","Phylogenetic_Distractor_Nonthreat_target","2500","ongrid","p","6","Phylogenetic","true","experimental"
"","null","html-keyboard-response","110","157090","0.0-11.0-2.6","4yOkfYtJKa","65aeb35d7f4e3c2fd1959989","6617fad957f7c6a12ea16e26","6622cec137609569465d9863","
    <div id=""grid-container"">
        <!-- Grid items will be dynamically added here -->
    </div>    ","null","","","","","","","","","","","",""
"","null","html-keyboard-response","111","157800","0.0-11.0-0.7","4yOkfYtJKa","65aeb35d7f4e3c2fd1959989","6617fad957f7c6a12ea16e26","6622cec137609569465d9863","fixation cross","null","","","","","","","","","","","",""
"","1545","html-keyboard-response","112","159345","0.0-11.0-1.7","4yOkfYtJKa","65aeb35d7f4e3c2fd1959989","6617fad957f7c6a12ea16e26","6622cec137609569465d9863","image grid","p","","","","","Phylogenetic_Distractor_Nonthreat_target","2500","ongrid","p","5","Phylogenetic","true","experimental"
"","null","html-keyboard-response","113","159505","0.0-11.0-2.7","4yOkfYtJKa","65aeb35d7f4e3c2fd1959989","6617fad957f7c6a12ea16e26","6622cec137609569465d9863","
    <div id=""grid-container"">
        <!-- Grid items will be dynamically added here -->
    </div>    ","null","","","","","","","","","","","",""
"","null","html-keyboard-response","114","160221","0.0-11.0-0.8","4yOkfYtJKa","65aeb35d7f4e3c2fd1959989","6617fad957f7c6a12ea16e26","6622cec137609569465d9863","fixation cross","null","","","","","","","","","","","",""
"","956","html-keyboard-response","115","161177","0.0-11.0-1.8","4yOkfYtJKa","65aeb35d7f4e3c2fd1959989","6617fad957f7c6a12ea16e26","6622cec137609569465d9863","image grid","q","","","","","Phylogenetic_Distractor_Threat_target","2500","ongrid","q","3","Phylogenetic","true","experimental"
"","null","html-keyboard-response","116","161329","0.0-11.0-2.8","4yOkfYtJKa","65aeb35d7f4e3c2fd1959989","6617fad957f7c6a12ea16e26","6622cec137609569465d9863","
    <div id=""grid-container"">
        <!-- Grid items will be dynamically added here -->
    </div>    ","null","","","","","","","","","","","",""
"","null","html-keyboard-response","117","162036","0.0-11.0-0.9","4yOkfYtJKa","65aeb35d7f4e3c2fd1959989","6617fad957f7c6a12ea16e26","6622cec137609569465d9863","fixation cross","null","","","","","","","","","","","",""
"","981","html-keyboard-response","118","163018","0.0-11.0-1.9","4yOkfYtJKa","65aeb35d7f4e3c2fd1959989","6617fad957f7c6a12ea16e26","6622cec137609569465d9863","image grid","q","","","","","Phylogenetic_Distractor_Threat_target","2500","ongrid","q","1","Phylogenetic","true","experimental"
"","null","html-keyboard-response","119","163181","0.0-11.0-2.9","4yOkfYtJKa","65aeb35d7f4e3c2fd1959989","6617fad957f7c6a12ea16e26","6622cec137609569465d9863","
    <div id=""grid-container"">
        <!-- Grid items will be dynamically added here -->
    </div>    ","null","","","","","","","","","","","",""
"","null","html-keyboard-response","120","163898","0.0-11.0-0.10","4yOkfYtJKa","65aeb35d7f4e3c2fd1959989","6617fad957f7c6a12ea16e26","6622cec137609569465d9863","fixation cross","null","","","","","","","","","","","",""
"","911","html-keyboard-response","121","164809","0.0-11.0-1.10","4yOkfYtJKa","65aeb35d7f4e3c2fd1959989","6617fad957f7c6a12ea16e26","6622cec137609569465d9863","image grid","q","","","","","Phylogenetic_Distractor_Threat_target","2500","ongrid","q","3","Phylogenetic","true","experimental"
"","null","html-keyboard-response","122","164965","0.0-11.0-2.10","4yOkfYtJKa","65aeb35d7f4e3c2fd1959989","6617fad957f7c6a12ea16e26","6622cec137609569465d9863","
    <div id=""grid-container"">
        <!-- Grid items will be dynamically added here -->
    </div>    ","null","","","","","","","","","","","",""
"","null","html-keyboard-response","123","165682","0.0-11.0-0.11","4yOkfYtJKa","65aeb35d7f4e3c2fd1959989","6617fad957f7c6a12ea16e26","6622cec137609569465d9863","fixation cross","null","","","","","","","","","","","",""
"","1391","html-keyboard-response","124","167073","0.0-11.0-1.11","4yOkfYtJKa","65aeb35d7f4e3c2fd1959989","6617fad957f7c6a12ea16e26","6622cec137609569465d9863","image grid","q","","","","","Phylogenetic_Distractor_Threat_target","2500","ongrid","q","9","Phylogenetic","true","experimental"
"","null","html-keyboard-response","125","167226","0.0-11.0-2.11","4yOkfYtJKa","65aeb35d7f4e3c2fd1959989","6617fad957f7c6a12ea16e26","6622cec137609569465d9863","
    <div id=""grid-container"">
        <!-- Grid items will be dynamically added here -->
    </div>    ","null","","","","","","","","","","","",""
"","null","html-keyboard-response","126","167935","0.0-11.0-0.12","4yOkfYtJKa","65aeb35d7f4e3c2fd1959989","6617fad957f7c6a12ea16e26","6622cec137609569465d9863","fixation cross","null","","","","","","","","","","","",""
"","802","html-keyboard-response","127","168738","0.0-11.0-1.12","4yOkfYtJKa","65aeb35d7f4e3c2fd1959989","6617fad957f7c6a12ea16e26","6622cec137609569465d9863","image grid","p","","","","","Phylogenetic_Distractor_Nonthreat_target","2500","ongrid","p","1","Phylogenetic","true","experimental"
"","null","html-keyboard-response","128","168889","0.0-11.0-2.12","4yOkfYtJKa","65aeb35d7f4e3c2fd1959989","6617fad957f7c6a12ea16e26","6622cec137609569465d9863","
    <div id=""grid-container"">
        <!-- Grid items will be dynamically added here -->
    </div>    ","null","","","","","","","","","","","",""
"","null","html-keyboard-response","129","169596","0.0-11.0-0.13","4yOkfYtJKa","65aeb35d7f4e3c2fd1959989","6617fad957f7c6a12ea16e26","6622cec137609569465d9863","fixation cross","null","","","","","","","","","","","",""
"","812","html-keyboard-response","130","170409","0.0-11.0-1.13","4yOkfYtJKa","65aeb35d7f4e3c2fd1959989","6617fad957f7c6a12ea16e26","6622cec137609569465d9863","image grid","q","","","","","Phylogenetic_Distractor_Threat_target","2500","ongrid","q","4","Phylogenetic","true","experimental"
"","null","html-keyboard-response","131","170570","0.0-11.0-2.13","4yOkfYtJKa","65aeb35d7f4e3c2fd1959989","6617fad957f7c6a12ea16e26","6622cec137609569465d9863","
    <div id=""grid-container"">
        <!-- Grid items will be dynamically added here -->
    </div>    ","null","","","","","","","","","","","",""
"","null","html-keyboard-response","132","171284","0.0-11.0-0.14","4yOkfYtJKa","65aeb35d7f4e3c2fd1959989","6617fad957f7c6a12ea16e26","6622cec137609569465d9863","fixation cross","null","","","","","","","","","","","",""
"","1110","html-keyboard-response","133","172394","0.0-11.0-1.14","4yOkfYtJKa","65aeb35d7f4e3c2fd1959989","6617fad957f7c6a12ea16e26","6622cec137609569465d9863","image grid","q","","","","","Phylogenetic_Distractor_Threat_target","2500","ongrid","q","8","Phylogenetic","true","experimental"
"","null","html-keyboard-response","134","172546","0.0-11.0-2.14","4yOkfYtJKa","65aeb35d7f4e3c2fd1959989","6617fad957f7c6a12ea16e26","6622cec137609569465d9863","
    <div id=""grid-container"">
        <!-- Grid items will be dynamically added here -->
    </div>    ","null","","","","","","","","","","","",""
"","null","html-keyboard-response","135","173252","0.0-11.0-0.15","4yOkfYtJKa","65aeb35d7f4e3c2fd1959989","6617fad957f7c6a12ea16e26","6622cec137609569465d9863","fixation cross","null","","","","","","","","","","","",""
"","798","html-keyboard-response","136","174050","0.0-11.0-1.15","4yOkfYtJKa","65aeb35d7f4e3c2fd1959989","6617fad957f7c6a12ea16e26","6622cec137609569465d9863","image grid","q","","","","","Phylogenetic_Distractor_Threat_target","2500","ongrid","q","8","Phylogenetic","true","experimental"
"","null","html-keyboard-response","137","174202","0.0-11.0-2.15","4yOkfYtJKa","65aeb35d7f4e3c2fd1959989","6617fad957f7c6a12ea16e26","6622cec137609569465d9863","
    <div id=""grid-container"">
        <!-- Grid items will be dynamically added here -->
    </div>    ","null","","","","","","","","","","","",""
"","null","html-keyboard-response","138","174913","0.0-11.0-0.16","4yOkfYtJKa","65aeb35d7f4e3c2fd1959989","6617fad957f7c6a12ea16e26","6622cec137609569465d9863","fixation cross","null","","","","","","","","","","","",""
"","1392","html-keyboard-response","139","176306","0.0-11.0-1.16","4yOkfYtJKa","65aeb35d7f4e3c2fd1959989","6617fad957f7c6a12ea16e26","6622cec137609569465d9863","image grid","p","","","","","Phylogenetic_Distractor_Nonthreat_target","2500","ongrid","p","7","Phylogenetic","true","experimental"
"","null","html-keyboard-response","140","176460","0.0-11.0-2.16","4yOkfYtJKa","65aeb35d7f4e3c2fd1959989","6617fad957f7c6a12ea16e26","6622cec137609569465d9863","
    <div id=""grid-container"">
        <!-- Grid items will be dynamically added here -->
    </div>    ","null","","","","","","","","","","","",""
"","null","html-keyboard-response","141","177180","0.0-11.0-0.17","4yOkfYtJKa","65aeb35d7f4e3c2fd1959989","6617fad957f7c6a12ea16e26","6622cec137609569465d9863","fixation cross","null","","","","","","","","","","","",""
"","1429","html-keyboard-response","142","178610","0.0-11.0-1.17","4yOkfYtJKa","65aeb35d7f4e3c2fd1959989","6617fad957f7c6a12ea16e26","6622cec137609569465d9863","image grid"," ","","","","","Phylogenetic_Distractor_notarget","2500","ongrid"," ","3","Phylogenetic","true","experimental"
"","null","html-keyboard-response","143","178762","0.0-11.0-2.17","4yOkfYtJKa","65aeb35d7f4e3c2fd1959989","6617fad957f7c6a12ea16e26","6622cec137609569465d9863","
    <div id=""grid-container"">
        <!-- Grid items will be dynamically added here -->
    </div>    ","null","","","","","","","","","","","",""
"","null","html-keyboard-response","144","179480","0.0-11.0-0.18","4yOkfYtJKa","65aeb35d7f4e3c2fd1959989","6617fad957f7c6a12ea16e26","6622cec137609569465d9863","fixation cross","null","","","","","","","","","","","",""
"","858","html-keyboard-response","145","180338","0.0-11.0-1.18","4yOkfYtJKa","65aeb35d7f4e3c2fd1959989","6617fad957f7c6a12ea16e26","6622cec137609569465d9863","image grid","q","","","","","Phylogenetic_Distractor_Threat_target","2500","ongrid","q","4","Phylogenetic","true","experimental"
"","null","html-keyboard-response","146","180498","0.0-11.0-2.18","4yOkfYtJKa","65aeb35d7f4e3c2fd1959989","6617fad957f7c6a12ea16e26","6622cec137609569465d9863","
    <div id=""grid-container"">
        <!-- Grid items will be dynamically added here -->
    </div>    ","null","","","","","","","","","","","",""
"","null","html-keyboard-response","147","181219","0.0-11.0-0.19","4yOkfYtJKa","65aeb35d7f4e3c2fd1959989","6617fad957f7c6a12ea16e26","6622cec137609569465d9863","fixation cross","null","","","","","","","","","","","",""
"","870","html-keyboard-response","148","182090","0.0-11.0-1.19","4yOkfYtJKa","65aeb35d7f4e3c2fd1959989","6617fad957f7c6a12ea16e26","6622cec137609569465d9863","image grid","q","","","","","Phylogenetic_Distractor_Threat_target","2500","ongrid","q","8","Phylogenetic","true","experimental"
"","null","html-keyboard-response","149","182255","0.0-11.0-2.19","4yOkfYtJKa","65aeb35d7f4e3c2fd1959989","6617fad957f7c6a12ea16e26","6622cec137609569465d9863","
    <div id=""grid-container"">
        <!-- Grid items will be dynamically added here -->
    </div>    ","null","","","","","","","","","","","",""
"","null","html-keyboard-response","150","182959","0.0-11.0-0.20","4yOkfYtJKa","65aeb35d7f4e3c2fd1959989","6617fad957f7c6a12ea16e26","6622cec137609569465d9863","fixation cross","null","","","","","","","","","","","",""
"","763","html-keyboard-response","151","183722","0.0-11.0-1.20","4yOkfYtJKa","65aeb35d7f4e3c2fd1959989","6617fad957f7c6a12ea16e26","6622cec137609569465d9863","image grid","q","","","","","Phylogenetic_Distractor_Threat_target","2500","ongrid","q","8","Phylogenetic","true","experimental"
"","null","html-keyboard-response","152","183884","0.0-11.0-2.20","4yOkfYtJKa","65aeb35d7f4e3c2fd1959989","6617fad957f7c6a12ea16e26","6622cec137609569465d9863","
    <div id=""grid-container"">
        <!-- Grid items will be dynamically added here -->
    </div>    ","null","","","","","","","","","","","",""
"","null","html-keyboard-response","153","184602","0.0-11.0-0.21","4yOkfYtJKa","65aeb35d7f4e3c2fd1959989","6617fad957f7c6a12ea16e26","6622cec137609569465d9863","fixation cross","null","","","","","","","","","","","",""
"","1431","html-keyboard-response","154","186034","0.0-11.0-1.21","4yOkfYtJKa","65aeb35d7f4e3c2fd1959989","6617fad957f7c6a12ea16e26","6622cec137609569465d9863","image grid","p","","","","","Phylogenetic_Distractor_Nonthreat_target","2500","ongrid","p","2","Phylogenetic","true","experimental"
"","null","html-keyboard-response","155","186197","0.0-11.0-2.21","4yOkfYtJKa","65aeb35d7f4e3c2fd1959989","6617fad957f7c6a12ea16e26","6622cec137609569465d9863","
    <div id=""grid-container"">
        <!-- Grid items will be dynamically added here -->
    </div>    ","null","","","","","","","","","","","",""
"","null","html-keyboard-response","156","186917","0.0-11.0-0.22","4yOkfYtJKa","65aeb35d7f4e3c2fd1959989","6617fad957f7c6a12ea16e26","6622cec137609569465d9863","fixation cross","null","","","","","","","","","","","",""
"","661","html-keyboard-response","157","187578","0.0-11.0-1.22","4yOkfYtJKa","65aeb35d7f4e3c2fd1959989","6617fad957f7c6a12ea16e26","6622cec137609569465d9863","image grid","q","","","","","Phylogenetic_Distractor_Threat_target","2500","ongrid","q","1","Phylogenetic","true","experimental"
"","null","html-keyboard-response","158","187730","0.0-11.0-2.22","4yOkfYtJKa","65aeb35d7f4e3c2fd1959989","6617fad957f7c6a12ea16e26","6622cec137609569465d9863","
    <div id=""grid-container"">
        <!-- Grid items will be dynamically added here -->
    </div>    ","null","","","","","","","","","","","",""
"","null","html-keyboard-response","159","188448","0.0-11.0-0.23","4yOkfYtJKa","65aeb35d7f4e3c2fd1959989","6617fad957f7c6a12ea16e26","6622cec137609569465d9863","fixation cross","null","","","","","","","","","","","",""
"","1274","html-keyboard-response","160","189722","0.0-11.0-1.23","4yOkfYtJKa","65aeb35d7f4e3c2fd1959989","6617fad957f7c6a12ea16e26","6622cec137609569465d9863","image grid","p","","","","","Phylogenetic_Distractor_Nonthreat_target","2500","ongrid","p","6","Phylogenetic","true","experimental"
"","null","html-keyboard-response","161","189874","0.0-11.0-2.23","4yOkfYtJKa","65aeb35d7f4e3c2fd1959989","6617fad957f7c6a12ea16e26","6622cec137609569465d9863","
    <div id=""grid-container"">
        <!-- Grid items will be dynamically added here -->
    </div>    ","null","","","","","","","","","","","",""
"","null","html-keyboard-response","162","190592","0.0-11.0-0.24","4yOkfYtJKa","65aeb35d7f4e3c2fd1959989","6617fad957f7c6a12ea16e26","6622cec137609569465d9863","fixation cross","null","","","","","","","","","","","",""
"","1321","html-keyboard-response","163","191914","0.0-11.0-1.24","4yOkfYtJKa","65aeb35d7f4e3c2fd1959989","6617fad957f7c6a12ea16e26","6622cec137609569465d9863","image grid"," ","","","","","Phylogenetic_Distractor_notarget","2500","ongrid"," ","5","Phylogenetic","true","experimental"
"","null","html-keyboard-response","164","192075","0.0-11.0-2.24","4yOkfYtJKa","65aeb35d7f4e3c2fd1959989","6617fad957f7c6a12ea16e26","6622cec137609569465d9863","
    <div id=""grid-container"">
        <!-- Grid items will be dynamically added here -->
    </div>    ","null","","","","","","","","","","","",""
"","null","html-keyboard-response","165","192780","0.0-11.0-0.25","4yOkfYtJKa","65aeb35d7f4e3c2fd1959989","6617fad957f7c6a12ea16e26","6622cec137609569465d9863","fixation cross","null","","","","","","","","","","","",""
"","805","html-keyboard-response","166","193586","0.0-11.0-1.25","4yOkfYtJKa","65aeb35d7f4e3c2fd1959989","6617fad957f7c6a12ea16e26","6622cec137609569465d9863","image grid","p","","","","","Phylogenetic_Distractor_Nonthreat_target","2500","ongrid","p","5","Phylogenetic","true","experimental"
"","null","html-keyboard-response","167","193738","0.0-11.0-2.25","4yOkfYtJKa","65aeb35d7f4e3c2fd1959989","6617fad957f7c6a12ea16e26","6622cec137609569465d9863","
    <div id=""grid-container"">
        <!-- Grid items will be dynamically added here -->
    </div>    ","null","","","","","","","","","","","",""
"","null","html-keyboard-response","168","194458","0.0-11.0-0.26","4yOkfYtJKa","65aeb35d7f4e3c2fd1959989","6617fad957f7c6a12ea16e26","6622cec137609569465d9863","fixation cross","null","","","","","","","","","","","",""
"","1336","html-keyboard-response","169","195794","0.0-11.0-1.26","4yOkfYtJKa","65aeb35d7f4e3c2fd1959989","6617fad957f7c6a12ea16e26","6622cec137609569465d9863","image grid"," ","","","","","Phylogenetic_Distractor_Nonthreat_target","2500","ongrid","p","8","Phylogenetic","false","experimental"
"","null","html-keyboard-response","170","195956","0.0-11.0-2.26","4yOkfYtJKa","65aeb35d7f4e3c2fd1959989","6617fad957f7c6a12ea16e26","6622cec137609569465d9863","
    <div id=""grid-container"">
        <!-- Grid items will be dynamically added here -->
    </div>    ","null","","","","","","","","","","","",""
"","null","html-keyboard-response","171","196669","0.0-11.0-0.27","4yOkfYtJKa","65aeb35d7f4e3c2fd1959989","6617fad957f7c6a12ea16e26","6622cec137609569465d9863","fixation cross","null","","","","","","","","","","","",""
"","901","html-keyboard-response","172","197570","0.0-11.0-1.27","4yOkfYtJKa","65aeb35d7f4e3c2fd1959989","6617fad957f7c6a12ea16e26","6622cec137609569465d9863","image grid","p","","","","","Phylogenetic_Distractor_Nonthreat_target","2500","ongrid","p","1","Phylogenetic","true","experimental"
"","null","html-keyboard-response","173","197722","0.0-11.0-2.27","4yOkfYtJKa","65aeb35d7f4e3c2fd1959989","6617fad957f7c6a12ea16e26","6622cec137609569465d9863","
    <div id=""grid-container"">
        <!-- Grid items will be dynamically added here -->
    </div>    ","null","","","","","","","","","","","",""
"","null","html-keyboard-response","174","198436","0.0-11.0-0.28","4yOkfYtJKa","65aeb35d7f4e3c2fd1959989","6617fad957f7c6a12ea16e26","6622cec137609569465d9863","fixation cross","null","","","","","","","","","","","",""
"","1598","html-keyboard-response","175","200034","0.0-11.0-1.28","4yOkfYtJKa","65aeb35d7f4e3c2fd1959989","6617fad957f7c6a12ea16e26","6622cec137609569465d9863","image grid"," ","","","","","Phylogenetic_Distractor_Nonthreat_target","2500","ongrid","p","2","Phylogenetic","false","experimental"
"","null","html-keyboard-response","176","200190","0.0-11.0-2.28","4yOkfYtJKa","65aeb35d7f4e3c2fd1959989","6617fad957f7c6a12ea16e26","6622cec137609569465d9863","
    <div id=""grid-container"">
        <!-- Grid items will be dynamically added here -->
    </div>    ","null","","","","","","","","","","","",""
"","null","html-keyboard-response","177","200893","0.0-11.0-0.29","4yOkfYtJKa","65aeb35d7f4e3c2fd1959989","6617fad957f7c6a12ea16e26","6622cec137609569465d9863","fixation cross","null","","","","","","","","","","","",""
"","653","html-keyboard-response","178","201546","0.0-11.0-1.29","4yOkfYtJKa","65aeb35d7f4e3c2fd1959989","6617fad957f7c6a12ea16e26","6622cec137609569465d9863","image grid","q","","","","","Phylogenetic_Distractor_Threat_target","2500","ongrid","q","2","Phylogenetic","true","experimental"
"","null","html-keyboard-response","179","201697","0.0-11.0-2.29","4yOkfYtJKa","65aeb35d7f4e3c2fd1959989","6617fad957f7c6a12ea16e26","6622cec137609569465d9863","
    <div id=""grid-container"">
        <!-- Grid items will be dynamically added here -->
    </div>    ","null","","","","","","","","","","","",""
"","null","html-keyboard-response","180","202402","0.0-11.0-0.30","4yOkfYtJKa","65aeb35d7f4e3c2fd1959989","6617fad957f7c6a12ea16e26","6622cec137609569465d9863","fixation cross","null","","","","","","","","","","","",""
"","759","html-keyboard-response","181","203162","0.0-11.0-1.30","4yOkfYtJKa","65aeb35d7f4e3c2fd1959989","6617fad957f7c6a12ea16e26","6622cec137609569465d9863","image grid","q","","","","","Phylogenetic_Distractor_Threat_target","2500","ongrid","q","1","Phylogenetic","true","experimental"
"","null","html-keyboard-response","182","203322","0.0-11.0-2.30","4yOkfYtJKa","65aeb35d7f4e3c2fd1959989","6617fad957f7c6a12ea16e26","6622cec137609569465d9863","
    <div id=""grid-container"">
        <!-- Grid items will be dynamically added here -->
    </div>    ","null","","","","","","","","","","","",""
"","null","html-keyboard-response","183","204034","0.0-11.0-0.31","4yOkfYtJKa","65aeb35d7f4e3c2fd1959989","6617fad957f7c6a12ea16e26","6622cec137609569465d9863","fixation cross","null","","","","","","","","","","","",""
"","1071","html-keyboard-response","184","205105","0.0-11.0-1.31","4yOkfYtJKa","65aeb35d7f4e3c2fd1959989","6617fad957f7c6a12ea16e26","6622cec137609569465d9863","image grid","p","","","","","Phylogenetic_Distractor_Nonthreat_target","2500","ongrid","p","3","Phylogenetic","true","experimental"
"","null","html-keyboard-response","185","205261","0.0-11.0-2.31","4yOkfYtJKa","65aeb35d7f4e3c2fd1959989","6617fad957f7c6a12ea16e26","6622cec137609569465d9863","
    <div id=""grid-container"">
        <!-- Grid items will be dynamically added here -->
    </div>    ","null","","","","","","","","","","","",""
"","null","html-keyboard-response","186","205981","0.0-11.0-0.32","4yOkfYtJKa","65aeb35d7f4e3c2fd1959989","6617fad957f7c6a12ea16e26","6622cec137609569465d9863","fixation cross","null","","","","","","","","","","","",""
"","829","html-keyboard-response","187","206810","0.0-11.0-1.32","4yOkfYtJKa","65aeb35d7f4e3c2fd1959989","6617fad957f7c6a12ea16e26","6622cec137609569465d9863","image grid","p","","","","","Phylogenetic_Distractor_Nonthreat_target","2500","ongrid","p","2","Phylogenetic","true","experimental"
"","null","html-keyboard-response","188","206975","0.0-11.0-2.32","4yOkfYtJKa","65aeb35d7f4e3c2fd1959989","6617fad957f7c6a12ea16e26","6622cec137609569465d9863","
    <div id=""grid-container"">
        <!-- Grid items will be dynamically added here -->
    </div>    ","null","","","","","","","","","","","",""
"","null","html-keyboard-response","189","207694","0.0-11.0-0.33","4yOkfYtJKa","65aeb35d7f4e3c2fd1959989","6617fad957f7c6a12ea16e26","6622cec137609569465d9863","fixation cross","null","","","","","","","","","","","",""
"","1203","html-keyboard-response","190","208898","0.0-11.0-1.33","4yOkfYtJKa","65aeb35d7f4e3c2fd1959989","6617fad957f7c6a12ea16e26","6622cec137609569465d9863","image grid","p","","","","","Phylogenetic_Distractor_Nonthreat_target","2500","ongrid","p","4","Phylogenetic","true","experimental"
"","null","html-keyboard-response","191","209057","0.0-11.0-2.33","4yOkfYtJKa","65aeb35d7f4e3c2fd1959989","6617fad957f7c6a12ea16e26","6622cec137609569465d9863","
    <div id=""grid-container"">
        <!-- Grid items will be dynamically added here -->
    </div>    ","null","","","","","","","","","","","",""
"","null","html-keyboard-response","192","209768","0.0-11.0-0.34","4yOkfYtJKa","65aeb35d7f4e3c2fd1959989","6617fad957f7c6a12ea16e26","6622cec137609569465d9863","fixation cross","null","","","","","","","","","","","",""
"","1025","html-keyboard-response","193","210793","0.0-11.0-1.34","4yOkfYtJKa","65aeb35d7f4e3c2fd1959989","6617fad957f7c6a12ea16e26","6622cec137609569465d9863","image grid","q","","","","","Phylogenetic_Distractor_Threat_target","2500","ongrid","q","6","Phylogenetic","true","experimental"
"","null","html-keyboard-response","194","210946","0.0-11.0-2.34","4yOkfYtJKa","65aeb35d7f4e3c2fd1959989","6617fad957f7c6a12ea16e26","6622cec137609569465d9863","
    <div id=""grid-container"">
        <!-- Grid items will be dynamically added here -->
    </div>    ","null","","","","","","","","","","","",""
"","null","html-keyboard-response","195","211667","0.0-11.0-0.35","4yOkfYtJKa","65aeb35d7f4e3c2fd1959989","6617fad957f7c6a12ea16e26","6622cec137609569465d9863","fixation cross","null","","","","","","","","","","","",""
"","742","html-keyboard-response","196","212409","0.0-11.0-1.35","4yOkfYtJKa","65aeb35d7f4e3c2fd1959989","6617fad957f7c6a12ea16e26","6622cec137609569465d9863","image grid","q","","","","","Phylogenetic_Distractor_Threat_target","2500","ongrid","q","5","Phylogenetic","true","experimental"
"","null","html-keyboard-response","197","212561","0.0-11.0-2.35","4yOkfYtJKa","65aeb35d7f4e3c2fd1959989","6617fad957f7c6a12ea16e26","6622cec137609569465d9863","
    <div id=""grid-container"">
        <!-- Grid items will be dynamically added here -->
    </div>    ","null","","","","","","","","","","","",""
"","null","html-keyboard-response","198","213289","0.0-11.0-0.36","4yOkfYtJKa","65aeb35d7f4e3c2fd1959989","6617fad957f7c6a12ea16e26","6622cec137609569465d9863","fixation cross","null","","","","","","","","","","","",""
"","1712","html-keyboard-response","199","215001","0.0-11.0-1.36","4yOkfYtJKa","65aeb35d7f4e3c2fd1959989","6617fad957f7c6a12ea16e26","6622cec137609569465d9863","image grid"," ","","","","","Phylogenetic_Distractor_notarget","2500","ongrid"," ","1","Phylogenetic","true","experimental"
"","null","html-keyboard-response","200","215154","0.0-11.0-2.36","4yOkfYtJKa","65aeb35d7f4e3c2fd1959989","6617fad957f7c6a12ea16e26","6622cec137609569465d9863","
    <div id=""grid-container"">
        <!-- Grid items will be dynamically added here -->
    </div>    ","null","","","","","","","","","","","",""
"","null","html-keyboard-response","201","215870","0.0-11.0-0.37","4yOkfYtJKa","65aeb35d7f4e3c2fd1959989","6617fad957f7c6a12ea16e26","6622cec137609569465d9863","fixation cross","null","","","","","","","","","","","",""
"","1131","html-keyboard-response","202","217002","0.0-11.0-1.37","4yOkfYtJKa","65aeb35d7f4e3c2fd1959989","6617fad957f7c6a12ea16e26","6622cec137609569465d9863","image grid","p","","","","","Phylogenetic_Distractor_Nonthreat_target","2500","ongrid","p","1","Phylogenetic","true","experimental"
"","null","html-keyboard-response","203","217154","0.0-11.0-2.37","4yOkfYtJKa","65aeb35d7f4e3c2fd1959989","6617fad957f7c6a12ea16e26","6622cec137609569465d9863","
    <div id=""grid-container"">
        <!-- Grid items will be dynamically added here -->
    </div>    ","null","","","","","","","","","","","",""
"","null","html-keyboard-response","204","217855","0.0-11.0-0.38","4yOkfYtJKa","65aeb35d7f4e3c2fd1959989","6617fad957f7c6a12ea16e26","6622cec137609569465d9863","fixation cross","null","","","","","","","","","","","",""
"","994","html-keyboard-response","205","218849","0.0-11.0-1.38","4yOkfYtJKa","65aeb35d7f4e3c2fd1959989","6617fad957f7c6a12ea16e26","6622cec137609569465d9863","image grid","p","","","","","Phylogenetic_Distractor_Nonthreat_target","2500","ongrid","p","4","Phylogenetic","true","experimental"
"","null","html-keyboard-response","206","219001","0.0-11.0-2.38","4yOkfYtJKa","65aeb35d7f4e3c2fd1959989","6617fad957f7c6a12ea16e26","6622cec137609569465d9863","
    <div id=""grid-container"">
        <!-- Grid items will be dynamically added here -->
    </div>    ","null","","","","","","","","","","","",""
"","null","html-keyboard-response","207","219727","0.0-11.0-0.39","4yOkfYtJKa","65aeb35d7f4e3c2fd1959989","6617fad957f7c6a12ea16e26","6622cec137609569465d9863","fixation cross","null","","","","","","","","","","","",""
"","1258","html-keyboard-response","208","220986","0.0-11.0-1.39","4yOkfYtJKa","65aeb35d7f4e3c2fd1959989","6617fad957f7c6a12ea16e26","6622cec137609569465d9863","image grid","p","","","","","Phylogenetic_Distractor_Nonthreat_target","2500","ongrid","p","7","Phylogenetic","true","experimental"
"","null","html-keyboard-response","209","221140","0.0-11.0-2.39","4yOkfYtJKa","65aeb35d7f4e3c2fd1959989","6617fad957f7c6a12ea16e26","6622cec137609569465d9863","
    <div id=""grid-container"">
        <!-- Grid items will be dynamically added here -->
    </div>    ","null","","","","","","","","","","","",""
"","7337","html-keyboard-response","210","228698","0.0-12.0","4yOkfYtJKa","65aeb35d7f4e3c2fd1959989","6617fad957f7c6a12ea16e26","6622cec137609569465d9863","break screen"," ","","","","","","","","","","","",""
"","null","html-keyboard-response","211","231225","0.0-13.0-0.0","4yOkfYtJKa","65aeb35d7f4e3c2fd1959989","6617fad957f7c6a12ea16e26","6622cec137609569465d9863","fixation cross","null","","","","","","","","","","","",""
"","1777","html-keyboard-response","212","233002","0.0-13.0-1.0","4yOkfYtJKa","65aeb35d7f4e3c2fd1959989","6617fad957f7c6a12ea16e26","6622cec137609569465d9863","image grid","p","","","","","Ontogenetic_Distractor_Nonthreat_target","2500","ongrid","p","9","Ontogenetic","true","experimental"
"","null","html-keyboard-response","213","233162","0.0-13.0-2.0","4yOkfYtJKa","65aeb35d7f4e3c2fd1959989","6617fad957f7c6a12ea16e26","6622cec137609569465d9863","
    <div id=""grid-container"">
        <!-- Grid items will be dynamically added here -->
    </div>    ","null","","","","","","","","","","","",""
"","null","html-keyboard-response","214","233879","0.0-13.0-0.1","4yOkfYtJKa","65aeb35d7f4e3c2fd1959989","6617fad957f7c6a12ea16e26","6622cec137609569465d9863","fixation cross","null","","","","","","","","","","","",""
"","1202","html-keyboard-response","215","235081","0.0-13.0-1.1","4yOkfYtJKa","65aeb35d7f4e3c2fd1959989","6617fad957f7c6a12ea16e26","6622cec137609569465d9863","image grid","q","","","","","Ontogenetic_Distractor_Threat_target","2500","ongrid","q","8","Ontogenetic","true","experimental"
"","null","html-keyboard-response","216","235238","0.0-13.0-2.1","4yOkfYtJKa","65aeb35d7f4e3c2fd1959989","6617fad957f7c6a12ea16e26","6622cec137609569465d9863","
    <div id=""grid-container"">
        <!-- Grid items will be dynamically added here -->
    </div>    ","null","","","","","","","","","","","",""
"","null","html-keyboard-response","217","235949","0.0-13.0-0.2","4yOkfYtJKa","65aeb35d7f4e3c2fd1959989","6617fad957f7c6a12ea16e26","6622cec137609569465d9863","fixation cross","null","","","","","","","","","","","",""
"","700","html-keyboard-response","218","236649","0.0-13.0-1.2","4yOkfYtJKa","65aeb35d7f4e3c2fd1959989","6617fad957f7c6a12ea16e26","6622cec137609569465d9863","image grid","q","","","","","Ontogenetic_Distractor_Threat_target","2500","ongrid","q","5","Ontogenetic","true","experimental"
"","null","html-keyboard-response","219","236804","0.0-13.0-2.2","4yOkfYtJKa","65aeb35d7f4e3c2fd1959989","6617fad957f7c6a12ea16e26","6622cec137609569465d9863","
    <div id=""grid-container"">
        <!-- Grid items will be dynamically added here -->
    </div>    ","null","","","","","","","","","","","",""
"","null","html-keyboard-response","220","237509","0.0-13.0-0.3","4yOkfYtJKa","65aeb35d7f4e3c2fd1959989","6617fad957f7c6a12ea16e26","6622cec137609569465d9863","fixation cross","null","","","","","","","","","","","",""
"","772","html-keyboard-response","221","238281","0.0-13.0-1.3","4yOkfYtJKa","65aeb35d7f4e3c2fd1959989","6617fad957f7c6a12ea16e26","6622cec137609569465d9863","image grid","q","","","","","Ontogenetic_Distractor_Threat_target","2500","ongrid","q","9","Ontogenetic","true","experimental"
"","null","html-keyboard-response","222","238447","0.0-13.0-2.3","4yOkfYtJKa","65aeb35d7f4e3c2fd1959989","6617fad957f7c6a12ea16e26","6622cec137609569465d9863","
    <div id=""grid-container"">
        <!-- Grid items will be dynamically added here -->
    </div>    ","null","","","","","","","","","","","",""
"","null","html-keyboard-response","223","239164","0.0-13.0-0.4","4yOkfYtJKa","65aeb35d7f4e3c2fd1959989","6617fad957f7c6a12ea16e26","6622cec137609569465d9863","fixation cross","null","","","","","","","","","","","",""
"","1102","html-keyboard-response","224","240266","0.0-13.0-1.4","4yOkfYtJKa","65aeb35d7f4e3c2fd1959989","6617fad957f7c6a12ea16e26","6622cec137609569465d9863","image grid","p","","","","","Ontogenetic_Distractor_Nonthreat_target","2500","ongrid","p","1","Ontogenetic","true","experimental"
"","null","html-keyboard-response","225","240418","0.0-13.0-2.4","4yOkfYtJKa","65aeb35d7f4e3c2fd1959989","6617fad957f7c6a12ea16e26","6622cec137609569465d9863","
    <div id=""grid-container"">
        <!-- Grid items will be dynamically added here -->
    </div>    ","null","","","","","","","","","","","",""
"","null","html-keyboard-response","226","241128","0.0-13.0-0.5","4yOkfYtJKa","65aeb35d7f4e3c2fd1959989","6617fad957f7c6a12ea16e26","6622cec137609569465d9863","fixation cross","null","","","","","","","","","","","",""
"","1106","html-keyboard-response","227","242234","0.0-13.0-1.5","4yOkfYtJKa","65aeb35d7f4e3c2fd1959989","6617fad957f7c6a12ea16e26","6622cec137609569465d9863","image grid","q","","","","","Ontogenetic_Distractor_Threat_target","2500","ongrid","q","7","Ontogenetic","true","experimental"
"","null","html-keyboard-response","228","242395","0.0-13.0-2.5","4yOkfYtJKa","65aeb35d7f4e3c2fd1959989","6617fad957f7c6a12ea16e26","6622cec137609569465d9863","
    <div id=""grid-container"">
        <!-- Grid items will be dynamically added here -->
    </div>    ","null","","","","","","","","","","","",""
"","null","html-keyboard-response","229","243098","0.0-13.0-0.6","4yOkfYtJKa","65aeb35d7f4e3c2fd1959989","6617fad957f7c6a12ea16e26","6622cec137609569465d9863","fixation cross","null","","","","","","","","","","","",""
"","888","html-keyboard-response","230","243986","0.0-13.0-1.6","4yOkfYtJKa","65aeb35d7f4e3c2fd1959989","6617fad957f7c6a12ea16e26","6622cec137609569465d9863","image grid","p","","","","","Ontogenetic_Distractor_Nonthreat_target","2500","ongrid","p","8","Ontogenetic","true","experimental"
"","null","html-keyboard-response","231","244151","0.0-13.0-2.6","4yOkfYtJKa","65aeb35d7f4e3c2fd1959989","6617fad957f7c6a12ea16e26","6622cec137609569465d9863","
    <div id=""grid-container"">
        <!-- Grid items will be dynamically added here -->
    </div>    ","null","","","","","","","","","","","",""
"","null","html-keyboard-response","232","244867","0.0-13.0-0.7","4yOkfYtJKa","65aeb35d7f4e3c2fd1959989","6617fad957f7c6a12ea16e26","6622cec137609569465d9863","fixation cross","null","","","","","","","","","","","",""
"","1031","html-keyboard-response","233","245898","0.0-13.0-1.7","4yOkfYtJKa","65aeb35d7f4e3c2fd1959989","6617fad957f7c6a12ea16e26","6622cec137609569465d9863","image grid","q","","","","","Ontogenetic_Distractor_Threat_target","2500","ongrid","q","3","Ontogenetic","true","experimental"
"","null","html-keyboard-response","234","246057","0.0-13.0-2.7","4yOkfYtJKa","65aeb35d7f4e3c2fd1959989","6617fad957f7c6a12ea16e26","6622cec137609569465d9863","
    <div id=""grid-container"">
        <!-- Grid items will be dynamically added here -->
    </div>    ","null","","","","","","","","","","","",""
"","null","html-keyboard-response","235","246786","0.0-13.0-0.8","4yOkfYtJKa","65aeb35d7f4e3c2fd1959989","6617fad957f7c6a12ea16e26","6622cec137609569465d9863","fixation cross","null","","","","","","","","","","","",""
"","879","html-keyboard-response","236","247666","0.0-13.0-1.8","4yOkfYtJKa","65aeb35d7f4e3c2fd1959989","6617fad957f7c6a12ea16e26","6622cec137609569465d9863","image grid","p","","","","","Ontogenetic_Distractor_Nonthreat_target","2500","ongrid","p","3","Ontogenetic","true","experimental"
"","null","html-keyboard-response","237","247818","0.0-13.0-2.8","4yOkfYtJKa","65aeb35d7f4e3c2fd1959989","6617fad957f7c6a12ea16e26","6622cec137609569465d9863","
    <div id=""grid-container"">
        <!-- Grid items will be dynamically added here -->
    </div>    ","null","","","","","","","","","","","",""
"","null","html-keyboard-response","238","248526","0.0-13.0-0.9","4yOkfYtJKa","65aeb35d7f4e3c2fd1959989","6617fad957f7c6a12ea16e26","6622cec137609569465d9863","fixation cross","null","","","","","","","","","","","",""
"","988","html-keyboard-response","239","249514","0.0-13.0-1.9","4yOkfYtJKa","65aeb35d7f4e3c2fd1959989","6617fad957f7c6a12ea16e26","6622cec137609569465d9863","image grid","p","","","","","Ontogenetic_Distractor_Nonthreat_target","2500","ongrid","p","3","Ontogenetic","true","experimental"
"","null","html-keyboard-response","240","249676","0.0-13.0-2.9","4yOkfYtJKa","65aeb35d7f4e3c2fd1959989","6617fad957f7c6a12ea16e26","6622cec137609569465d9863","
    <div id=""grid-container"">
        <!-- Grid items will be dynamically added here -->
    </div>    ","null","","","","","","","","","","","",""
"","null","html-keyboard-response","241","250385","0.0-13.0-0.10","4yOkfYtJKa","65aeb35d7f4e3c2fd1959989","6617fad957f7c6a12ea16e26","6622cec137609569465d9863","fixation cross","null","","","","","","","","","","","",""
"","800","html-keyboard-response","242","251186","0.0-13.0-1.10","4yOkfYtJKa","65aeb35d7f4e3c2fd1959989","6617fad957f7c6a12ea16e26","6622cec137609569465d9863","image grid","p","","","","","Ontogenetic_Distractor_Nonthreat_target","2500","ongrid","p","1","Ontogenetic","true","experimental"
"","null","html-keyboard-response","243","251350","0.0-13.0-2.10","4yOkfYtJKa","65aeb35d7f4e3c2fd1959989","6617fad957f7c6a12ea16e26","6622cec137609569465d9863","
    <div id=""grid-container"">
        <!-- Grid items will be dynamically added here -->
    </div>    ","null","","","","","","","","","","","",""
"","null","html-keyboard-response","244","252070","0.0-13.0-0.11","4yOkfYtJKa","65aeb35d7f4e3c2fd1959989","6617fad957f7c6a12ea16e26","6622cec137609569465d9863","fixation cross","null","","","","","","","","","","","",""
"","1379","html-keyboard-response","245","253449","0.0-13.0-1.11","4yOkfYtJKa","65aeb35d7f4e3c2fd1959989","6617fad957f7c6a12ea16e26","6622cec137609569465d9863","image grid"," ","","","","","Ontogenetic_Distractor_notarget","2500","ongrid"," ","6","Ontogenetic","true","experimental"
"","null","html-keyboard-response","246","253601","0.0-13.0-2.11","4yOkfYtJKa","65aeb35d7f4e3c2fd1959989","6617fad957f7c6a12ea16e26","6622cec137609569465d9863","
    <div id=""grid-container"">
        <!-- Grid items will be dynamically added here -->
    </div>    ","null","","","","","","","","","","","",""
"","null","html-keyboard-response","247","254325","0.0-13.0-0.12","4yOkfYtJKa","65aeb35d7f4e3c2fd1959989","6617fad957f7c6a12ea16e26","6622cec137609569465d9863","fixation cross","null","","","","","","","","","","","",""
"","781","html-keyboard-response","248","255106","0.0-13.0-1.12","4yOkfYtJKa","65aeb35d7f4e3c2fd1959989","6617fad957f7c6a12ea16e26","6622cec137609569465d9863","image grid","q","","","","","Ontogenetic_Distractor_Threat_target","2500","ongrid","q","5","Ontogenetic","true","experimental"
"","null","html-keyboard-response","249","255260","0.0-13.0-2.12","4yOkfYtJKa","65aeb35d7f4e3c2fd1959989","6617fad957f7c6a12ea16e26","6622cec137609569465d9863","
    <div id=""grid-container"">
        <!-- Grid items will be dynamically added here -->
    </div>    ","null","","","","","","","","","","","",""
"","null","html-keyboard-response","250","255972","0.0-13.0-0.13","4yOkfYtJKa","65aeb35d7f4e3c2fd1959989","6617fad957f7c6a12ea16e26","6622cec137609569465d9863","fixation cross","null","","","","","","","","","","","",""
"","949","html-keyboard-response","251","256921","0.0-13.0-1.13","4yOkfYtJKa","65aeb35d7f4e3c2fd1959989","6617fad957f7c6a12ea16e26","6622cec137609569465d9863","image grid","q","","","","","Ontogenetic_Distractor_Threat_target","2500","ongrid","q","6","Ontogenetic","true","experimental"
"","null","html-keyboard-response","252","257079","0.0-13.0-2.13","4yOkfYtJKa","65aeb35d7f4e3c2fd1959989","6617fad957f7c6a12ea16e26","6622cec137609569465d9863","
    <div id=""grid-container"">
        <!-- Grid items will be dynamically added here -->
    </div>    ","null","","","","","","","","","","","",""
"","null","html-keyboard-response","253","257798","0.0-13.0-0.14","4yOkfYtJKa","65aeb35d7f4e3c2fd1959989","6617fad957f7c6a12ea16e26","6622cec137609569465d9863","fixation cross","null","","","","","","","","","","","",""
"","1203","html-keyboard-response","254","259002","0.0-13.0-1.14","4yOkfYtJKa","65aeb35d7f4e3c2fd1959989","6617fad957f7c6a12ea16e26","6622cec137609569465d9863","image grid","p","","","","","Ontogenetic_Distractor_Nonthreat_target","2500","ongrid","p","9","Ontogenetic","true","experimental"
"","null","html-keyboard-response","255","259167","0.0-13.0-2.14","4yOkfYtJKa","65aeb35d7f4e3c2fd1959989","6617fad957f7c6a12ea16e26","6622cec137609569465d9863","
    <div id=""grid-container"">
        <!-- Grid items will be dynamically added here -->
    </div>    ","null","","","","","","","","","","","",""
"","null","html-keyboard-response","256","259870","0.0-13.0-0.15","4yOkfYtJKa","65aeb35d7f4e3c2fd1959989","6617fad957f7c6a12ea16e26","6622cec137609569465d9863","fixation cross","null","","","","","","","","","","","",""
"","795","html-keyboard-response","257","260666","0.0-13.0-1.15","4yOkfYtJKa","65aeb35d7f4e3c2fd1959989","6617fad957f7c6a12ea16e26","6622cec137609569465d9863","image grid","p","","","","","Ontogenetic_Distractor_Nonthreat_target","2500","ongrid","p","2","Ontogenetic","true","experimental"
"","null","html-keyboard-response","258","260820","0.0-13.0-2.15","4yOkfYtJKa","65aeb35d7f4e3c2fd1959989","6617fad957f7c6a12ea16e26","6622cec137609569465d9863","
    <div id=""grid-container"">
        <!-- Grid items will be dynamically added here -->
    </div>    ","null","","","","","","","","","","","",""
"","null","html-keyboard-response","259","261540","0.0-13.0-0.16","4yOkfYtJKa","65aeb35d7f4e3c2fd1959989","6617fad957f7c6a12ea16e26","6622cec137609569465d9863","fixation cross","null","","","","","","","","","","","",""
"","925","html-keyboard-response","260","262466","0.0-13.0-1.16","4yOkfYtJKa","65aeb35d7f4e3c2fd1959989","6617fad957f7c6a12ea16e26","6622cec137609569465d9863","image grid","p","","","","","Ontogenetic_Distractor_Nonthreat_target","2500","ongrid","p","5","Ontogenetic","true","experimental"
"","null","html-keyboard-response","261","262628","0.0-13.0-2.16","4yOkfYtJKa","65aeb35d7f4e3c2fd1959989","6617fad957f7c6a12ea16e26","6622cec137609569465d9863","
    <div id=""grid-container"">
        <!-- Grid items will be dynamically added here -->
    </div>    ","null","","","","","","","","","","","",""
"","null","html-keyboard-response","262","263335","0.0-13.0-0.17","4yOkfYtJKa","65aeb35d7f4e3c2fd1959989","6617fad957f7c6a12ea16e26","6622cec137609569465d9863","fixation cross","null","","","","","","","","","","","",""
"","971","html-keyboard-response","263","264306","0.0-13.0-1.17","4yOkfYtJKa","65aeb35d7f4e3c2fd1959989","6617fad957f7c6a12ea16e26","6622cec137609569465d9863","image grid","q","","","","","Ontogenetic_Distractor_Threat_target","2500","ongrid","q","3","Ontogenetic","true","experimental"
"","null","html-keyboard-response","264","264462","0.0-13.0-2.17","4yOkfYtJKa","65aeb35d7f4e3c2fd1959989","6617fad957f7c6a12ea16e26","6622cec137609569465d9863","
    <div id=""grid-container"">
        <!-- Grid items will be dynamically added here -->
    </div>    ","null","","","","","","","","","","","",""
"","null","html-keyboard-response","265","265174","0.0-13.0-0.18","4yOkfYtJKa","65aeb35d7f4e3c2fd1959989","6617fad957f7c6a12ea16e26","6622cec137609569465d9863","fixation cross","null","","","","","","","","","","","",""
"","851","html-keyboard-response","266","266026","0.0-13.0-1.18","4yOkfYtJKa","65aeb35d7f4e3c2fd1959989","6617fad957f7c6a12ea16e26","6622cec137609569465d9863","image grid","q","","","","","Ontogenetic_Distractor_Threat_target","2500","ongrid","q","9","Ontogenetic","true","experimental"
"","null","html-keyboard-response","267","266178","0.0-13.0-2.18","4yOkfYtJKa","65aeb35d7f4e3c2fd1959989","6617fad957f7c6a12ea16e26","6622cec137609569465d9863","
    <div id=""grid-container"">
        <!-- Grid items will be dynamically added here -->
    </div>    ","null","","","","","","","","","","","",""
"","null","html-keyboard-response","268","266884","0.0-13.0-0.19","4yOkfYtJKa","65aeb35d7f4e3c2fd1959989","6617fad957f7c6a12ea16e26","6622cec137609569465d9863","fixation cross","null","","","","","","","","","","","",""
"","733","html-keyboard-response","269","267618","0.0-13.0-1.19","4yOkfYtJKa","65aeb35d7f4e3c2fd1959989","6617fad957f7c6a12ea16e26","6622cec137609569465d9863","image grid","q","","","","","Ontogenetic_Distractor_Threat_target","2500","ongrid","q","5","Ontogenetic","true","experimental"
"","null","html-keyboard-response","270","267774","0.0-13.0-2.19","4yOkfYtJKa","65aeb35d7f4e3c2fd1959989","6617fad957f7c6a12ea16e26","6622cec137609569465d9863","
    <div id=""grid-container"">
        <!-- Grid items will be dynamically added here -->
    </div>    ","null","","","","","","","","","","","",""
"","null","html-keyboard-response","271","268494","0.0-13.0-0.20","4yOkfYtJKa","65aeb35d7f4e3c2fd1959989","6617fad957f7c6a12ea16e26","6622cec137609569465d9863","fixation cross","null","","","","","","","","","","","",""
"","1547","html-keyboard-response","272","270042","0.0-13.0-1.20","4yOkfYtJKa","65aeb35d7f4e3c2fd1959989","6617fad957f7c6a12ea16e26","6622cec137609569465d9863","image grid"," ","","","","","Ontogenetic_Distractor_Nonthreat_target","2500","ongrid","p","6","Ontogenetic","false","experimental"
"","null","html-keyboard-response","273","270194","0.0-13.0-2.20","4yOkfYtJKa","65aeb35d7f4e3c2fd1959989","6617fad957f7c6a12ea16e26","6622cec137609569465d9863","
    <div id=""grid-container"">
        <!-- Grid items will be dynamically added here -->
    </div>    ","null","","","","","","","","","","","",""
"","null","html-keyboard-response","274","270900","0.0-13.0-0.21","4yOkfYtJKa","65aeb35d7f4e3c2fd1959989","6617fad957f7c6a12ea16e26","6622cec137609569465d9863","fixation cross","null","","","","","","","","","","","",""
"","973","html-keyboard-response","275","271874","0.0-13.0-1.21","4yOkfYtJKa","65aeb35d7f4e3c2fd1959989","6617fad957f7c6a12ea16e26","6622cec137609569465d9863","image grid","q","","","","","Ontogenetic_Distractor_Threat_target","2500","ongrid","q","2","Ontogenetic","true","experimental"
"","null","html-keyboard-response","276","272035","0.0-13.0-2.21","4yOkfYtJKa","65aeb35d7f4e3c2fd1959989","6617fad957f7c6a12ea16e26","6622cec137609569465d9863","
    <div id=""grid-container"">
        <!-- Grid items will be dynamically added here -->
    </div>    ","null","","","","","","","","","","","",""
"","null","html-keyboard-response","277","272753","0.0-13.0-0.22","4yOkfYtJKa","65aeb35d7f4e3c2fd1959989","6617fad957f7c6a12ea16e26","6622cec137609569465d9863","fixation cross","null","","","","","","","","","","","",""
"","833","html-keyboard-response","278","273586","0.0-13.0-1.22","4yOkfYtJKa","65aeb35d7f4e3c2fd1959989","6617fad957f7c6a12ea16e26","6622cec137609569465d9863","image grid","q","","","","","Ontogenetic_Distractor_Threat_target","2500","ongrid","q","4","Ontogenetic","true","experimental"
"","null","html-keyboard-response","279","273751","0.0-13.0-2.22","4yOkfYtJKa","65aeb35d7f4e3c2fd1959989","6617fad957f7c6a12ea16e26","6622cec137609569465d9863","
    <div id=""grid-container"">
        <!-- Grid items will be dynamically added here -->
    </div>    ","null","","","","","","","","","","","",""
"","null","html-keyboard-response","280","274455","0.0-13.0-0.23","4yOkfYtJKa","65aeb35d7f4e3c2fd1959989","6617fad957f7c6a12ea16e26","6622cec137609569465d9863","fixation cross","null","","","","","","","","","","","",""
"","946","html-keyboard-response","281","275402","0.0-13.0-1.23","4yOkfYtJKa","65aeb35d7f4e3c2fd1959989","6617fad957f7c6a12ea16e26","6622cec137609569465d9863","image grid","q","","","","","Ontogenetic_Distractor_Threat_target","2500","ongrid","q","7","Ontogenetic","true","experimental"
"","null","html-keyboard-response","282","275564","0.0-13.0-2.23","4yOkfYtJKa","65aeb35d7f4e3c2fd1959989","6617fad957f7c6a12ea16e26","6622cec137609569465d9863","
    <div id=""grid-container"">
        <!-- Grid items will be dynamically added here -->
    </div>    ","null","","","","","","","","","","","",""
"","null","html-keyboard-response","283","276283","0.0-13.0-0.24","4yOkfYtJKa","65aeb35d7f4e3c2fd1959989","6617fad957f7c6a12ea16e26","6622cec137609569465d9863","fixation cross","null","","","","","","","","","","","",""
"","1303","html-keyboard-response","284","277586","0.0-13.0-1.24","4yOkfYtJKa","65aeb35d7f4e3c2fd1959989","6617fad957f7c6a12ea16e26","6622cec137609569465d9863","image grid"," ","","","","","Ontogenetic_Distractor_notarget","2500","ongrid"," ","7","Ontogenetic","true","experimental"
"","null","html-keyboard-response","285","277748","0.0-13.0-2.24","4yOkfYtJKa","65aeb35d7f4e3c2fd1959989","6617fad957f7c6a12ea16e26","6622cec137609569465d9863","
    <div id=""grid-container"">
        <!-- Grid items will be dynamically added here -->
    </div>    ","null","","","","","","","","","","","",""
"","null","html-keyboard-response","286","278468","0.0-13.0-0.25","4yOkfYtJKa","65aeb35d7f4e3c2fd1959989","6617fad957f7c6a12ea16e26","6622cec137609569465d9863","fixation cross","null","","","","","","","","","","","",""
"","845","html-keyboard-response","287","279313","0.0-13.0-1.25","4yOkfYtJKa","65aeb35d7f4e3c2fd1959989","6617fad957f7c6a12ea16e26","6622cec137609569465d9863","image grid","q","","","","","Ontogenetic_Distractor_Threat_target","2500","ongrid","q","6","Ontogenetic","true","experimental"
"","null","html-keyboard-response","288","279468","0.0-13.0-2.25","4yOkfYtJKa","65aeb35d7f4e3c2fd1959989","6617fad957f7c6a12ea16e26","6622cec137609569465d9863","
    <div id=""grid-container"">
        <!-- Grid items will be dynamically added here -->
    </div>    ","null","","","","","","","","","","","",""
"","null","html-keyboard-response","289","280184","0.0-13.0-0.26","4yOkfYtJKa","65aeb35d7f4e3c2fd1959989","6617fad957f7c6a12ea16e26","6622cec137609569465d9863","fixation cross","null","","","","","","","","","","","",""
"","889","html-keyboard-response","290","281074","0.0-13.0-1.26","4yOkfYtJKa","65aeb35d7f4e3c2fd1959989","6617fad957f7c6a12ea16e26","6622cec137609569465d9863","image grid","p","","","","","Ontogenetic_Distractor_Nonthreat_target","2500","ongrid","p","5","Ontogenetic","true","experimental"
"","null","html-keyboard-response","291","281227","0.0-13.0-2.26","4yOkfYtJKa","65aeb35d7f4e3c2fd1959989","6617fad957f7c6a12ea16e26","6622cec137609569465d9863","
    <div id=""grid-container"">
        <!-- Grid items will be dynamically added here -->
    </div>    ","null","","","","","","","","","","","",""
"","null","html-keyboard-response","292","281935","0.0-13.0-0.27","4yOkfYtJKa","65aeb35d7f4e3c2fd1959989","6617fad957f7c6a12ea16e26","6622cec137609569465d9863","fixation cross","null","","","","","","","","","","","",""
"","779","html-keyboard-response","293","282714","0.0-13.0-1.27","4yOkfYtJKa","65aeb35d7f4e3c2fd1959989","6617fad957f7c6a12ea16e26","6622cec137609569465d9863","image grid","q","","","","","Ontogenetic_Distractor_Threat_target","2500","ongrid","q","1","Ontogenetic","true","experimental"
"","null","html-keyboard-response","294","282873","0.0-13.0-2.27","4yOkfYtJKa","65aeb35d7f4e3c2fd1959989","6617fad957f7c6a12ea16e26","6622cec137609569465d9863","
    <div id=""grid-container"">
        <!-- Grid items will be dynamically added here -->
    </div>    ","null","","","","","","","","","","","",""
"","null","html-keyboard-response","295","283592","0.0-13.0-0.28","4yOkfYtJKa","65aeb35d7f4e3c2fd1959989","6617fad957f7c6a12ea16e26","6622cec137609569465d9863","fixation cross","null","","","","","","","","","","","",""
"","713","html-keyboard-response","296","284306","0.0-13.0-1.28","4yOkfYtJKa","65aeb35d7f4e3c2fd1959989","6617fad957f7c6a12ea16e26","6622cec137609569465d9863","image grid","p","","","","","Ontogenetic_Distractor_Nonthreat_target","2500","ongrid","p","1","Ontogenetic","true","experimental"
"","null","html-keyboard-response","297","284458","0.0-13.0-2.28","4yOkfYtJKa","65aeb35d7f4e3c2fd1959989","6617fad957f7c6a12ea16e26","6622cec137609569465d9863","
    <div id=""grid-container"">
        <!-- Grid items will be dynamically added here -->
    </div>    ","null","","","","","","","","","","","",""
"","null","html-keyboard-response","298","285171","0.0-13.0-0.29","4yOkfYtJKa","65aeb35d7f4e3c2fd1959989","6617fad957f7c6a12ea16e26","6622cec137609569465d9863","fixation cross","null","","","","","","","","","","","",""
"","1495","html-keyboard-response","299","286666","0.0-13.0-1.29","4yOkfYtJKa","65aeb35d7f4e3c2fd1959989","6617fad957f7c6a12ea16e26","6622cec137609569465d9863","image grid","p","","","","","Ontogenetic_Distractor_Nonthreat_target","2500","ongrid","p","9","Ontogenetic","true","experimental"
"","null","html-keyboard-response","300","286818","0.0-13.0-2.29","4yOkfYtJKa","65aeb35d7f4e3c2fd1959989","6617fad957f7c6a12ea16e26","6622cec137609569465d9863","
    <div id=""grid-container"">
        <!-- Grid items will be dynamically added here -->
    </div>    ","null","","","","","","","","","","","",""
"","null","html-keyboard-response","301","287526","0.0-13.0-0.30","4yOkfYtJKa","65aeb35d7f4e3c2fd1959989","6617fad957f7c6a12ea16e26","6622cec137609569465d9863","fixation cross","null","","","","","","","","","","","",""
"","1476","html-keyboard-response","302","289002","0.0-13.0-1.30","4yOkfYtJKa","65aeb35d7f4e3c2fd1959989","6617fad957f7c6a12ea16e26","6622cec137609569465d9863","image grid"," ","","","","","Ontogenetic_Distractor_notarget","2500","ongrid"," ","9","Ontogenetic","true","experimental"
"","null","html-keyboard-response","303","289166","0.0-13.0-2.30","4yOkfYtJKa","65aeb35d7f4e3c2fd1959989","6617fad957f7c6a12ea16e26","6622cec137609569465d9863","
    <div id=""grid-container"">
        <!-- Grid items will be dynamically added here -->
    </div>    ","null","","","","","","","","","","","",""
"","null","html-keyboard-response","304","289877","0.0-13.0-0.31","4yOkfYtJKa","65aeb35d7f4e3c2fd1959989","6617fad957f7c6a12ea16e26","6622cec137609569465d9863","fixation cross","null","","","","","","","","","","","",""
"","900","html-keyboard-response","305","290777","0.0-13.0-1.31","4yOkfYtJKa","65aeb35d7f4e3c2fd1959989","6617fad957f7c6a12ea16e26","6622cec137609569465d9863","image grid","q","","","","","Ontogenetic_Distractor_Threat_target","2500","ongrid","q","7","Ontogenetic","true","experimental"
"","null","html-keyboard-response","306","290931","0.0-13.0-2.31","4yOkfYtJKa","65aeb35d7f4e3c2fd1959989","6617fad957f7c6a12ea16e26","6622cec137609569465d9863","
    <div id=""grid-container"">
        <!-- Grid items will be dynamically added here -->
    </div>    ","null","","","","","","","","","","","",""
"","null","html-keyboard-response","307","291637","0.0-13.0-0.32","4yOkfYtJKa","65aeb35d7f4e3c2fd1959989","6617fad957f7c6a12ea16e26","6622cec137609569465d9863","fixation cross","null","","","","","","","","","","","",""
"","1692","html-keyboard-response","308","293330","0.0-13.0-1.32","4yOkfYtJKa","65aeb35d7f4e3c2fd1959989","6617fad957f7c6a12ea16e26","6622cec137609569465d9863","image grid"," ","","","","","Ontogenetic_Distractor_notarget","2500","ongrid"," ","5","Ontogenetic","true","experimental"
"","null","html-keyboard-response","309","293481","0.0-13.0-2.32","4yOkfYtJKa","65aeb35d7f4e3c2fd1959989","6617fad957f7c6a12ea16e26","6622cec137609569465d9863","
    <div id=""grid-container"">
        <!-- Grid items will be dynamically added here -->
    </div>    ","null","","","","","","","","","","","",""
"","null","html-keyboard-response","310","294199","0.0-13.0-0.33","4yOkfYtJKa","65aeb35d7f4e3c2fd1959989","6617fad957f7c6a12ea16e26","6622cec137609569465d9863","fixation cross","null","","","","","","","","","","","",""
"","747","html-keyboard-response","311","294946","0.0-13.0-1.33","4yOkfYtJKa","65aeb35d7f4e3c2fd1959989","6617fad957f7c6a12ea16e26","6622cec137609569465d9863","image grid","p","","","","","Ontogenetic_Distractor_Nonthreat_target","2500","ongrid","p","8","Ontogenetic","true","experimental"
"","null","html-keyboard-response","312","295105","0.0-13.0-2.33","4yOkfYtJKa","65aeb35d7f4e3c2fd1959989","6617fad957f7c6a12ea16e26","6622cec137609569465d9863","
    <div id=""grid-container"">
        <!-- Grid items will be dynamically added here -->
    </div>    ","null","","","","","","","","","","","",""
"","null","html-keyboard-response","313","295812","0.0-13.0-0.34","4yOkfYtJKa","65aeb35d7f4e3c2fd1959989","6617fad957f7c6a12ea16e26","6622cec137609569465d9863","fixation cross","null","","","","","","","","","","","",""
"","885","html-keyboard-response","314","296697","0.0-13.0-1.34","4yOkfYtJKa","65aeb35d7f4e3c2fd1959989","6617fad957f7c6a12ea16e26","6622cec137609569465d9863","image grid","q","","","","","Ontogenetic_Distractor_Threat_target","2500","ongrid","q","6","Ontogenetic","true","experimental"
"","null","html-keyboard-response","315","296862","0.0-13.0-2.34","4yOkfYtJKa","65aeb35d7f4e3c2fd1959989","6617fad957f7c6a12ea16e26","6622cec137609569465d9863","
    <div id=""grid-container"">
        <!-- Grid items will be dynamically added here -->
    </div>    ","null","","","","","","","","","","","",""
"","null","html-keyboard-response","316","297568","0.0-13.0-0.35","4yOkfYtJKa","65aeb35d7f4e3c2fd1959989","6617fad957f7c6a12ea16e26","6622cec137609569465d9863","fixation cross","null","","","","","","","","","","","",""
"","873","html-keyboard-response","317","298442","0.0-13.0-1.35","4yOkfYtJKa","65aeb35d7f4e3c2fd1959989","6617fad957f7c6a12ea16e26","6622cec137609569465d9863","image grid","p","","","","","Ontogenetic_Distractor_Nonthreat_target","2500","ongrid","p","5","Ontogenetic","true","experimental"
"","null","html-keyboard-response","318","298599","0.0-13.0-2.35","4yOkfYtJKa","65aeb35d7f4e3c2fd1959989","6617fad957f7c6a12ea16e26","6622cec137609569465d9863","
    <div id=""grid-container"">
        <!-- Grid items will be dynamically added here -->
    </div>    ","null","","","","","","","","","","","",""
"","null","html-keyboard-response","319","299314","0.0-13.0-0.36","4yOkfYtJKa","65aeb35d7f4e3c2fd1959989","6617fad957f7c6a12ea16e26","6622cec137609569465d9863","fixation cross","null","","","","","","","","","","","",""
"","839","html-keyboard-response","320","300154","0.0-13.0-1.36","4yOkfYtJKa","65aeb35d7f4e3c2fd1959989","6617fad957f7c6a12ea16e26","6622cec137609569465d9863","image grid","p","","","","","Ontogenetic_Distractor_Nonthreat_target","2500","ongrid","p","7","Ontogenetic","true","experimental"
"","null","html-keyboard-response","321","300314","0.0-13.0-2.36","4yOkfYtJKa","65aeb35d7f4e3c2fd1959989","6617fad957f7c6a12ea16e26","6622cec137609569465d9863","
    <div id=""grid-container"">
        <!-- Grid items will be dynamically added here -->
    </div>    ","null","","","","","","","","","","","",""
"","null","html-keyboard-response","322","301031","0.0-13.0-0.37","4yOkfYtJKa","65aeb35d7f4e3c2fd1959989","6617fad957f7c6a12ea16e26","6622cec137609569465d9863","fixation cross","null","","","","","","","","","","","",""
"","1691","html-keyboard-response","323","302722","0.0-13.0-1.37","4yOkfYtJKa","65aeb35d7f4e3c2fd1959989","6617fad957f7c6a12ea16e26","6622cec137609569465d9863","image grid","q","","","","","Ontogenetic_Distractor_Threat_target","2500","ongrid","q","8","Ontogenetic","true","experimental"
"","null","html-keyboard-response","324","302882","0.0-13.0-2.37","4yOkfYtJKa","65aeb35d7f4e3c2fd1959989","6617fad957f7c6a12ea16e26","6622cec137609569465d9863","
    <div id=""grid-container"">
        <!-- Grid items will be dynamically added here -->
    </div>    ","null","","","","","","","","","","","",""
"","null","html-keyboard-response","325","303595","0.0-13.0-0.38","4yOkfYtJKa","65aeb35d7f4e3c2fd1959989","6617fad957f7c6a12ea16e26","6622cec137609569465d9863","fixation cross","null","","","","","","","","","","","",""
"","926","html-keyboard-response","326","304522","0.0-13.0-1.38","4yOkfYtJKa","65aeb35d7f4e3c2fd1959989","6617fad957f7c6a12ea16e26","6622cec137609569465d9863","image grid","p","","","","","Ontogenetic_Distractor_Nonthreat_target","2500","ongrid","p","9","Ontogenetic","true","experimental"
"","null","html-keyboard-response","327","304674","0.0-13.0-2.38","4yOkfYtJKa","65aeb35d7f4e3c2fd1959989","6617fad957f7c6a12ea16e26","6622cec137609569465d9863","
    <div id=""grid-container"">
        <!-- Grid items will be dynamically added here -->
    </div>    ","null","","","","","","","","","","","",""
"","null","html-keyboard-response","328","305382","0.0-13.0-0.39","4yOkfYtJKa","65aeb35d7f4e3c2fd1959989","6617fad957f7c6a12ea16e26","6622cec137609569465d9863","fixation cross","null","","","","","","","","","","","",""
"","1620","html-keyboard-response","329","307002","0.0-13.0-1.39","4yOkfYtJKa","65aeb35d7f4e3c2fd1959989","6617fad957f7c6a12ea16e26","6622cec137609569465d9863","image grid","p","","","","","Ontogenetic_Distractor_Nonthreat_target","2500","ongrid","p","4","Ontogenetic","true","experimental"
"","null","html-keyboard-response","330","307161","0.0-13.0-2.39","4yOkfYtJKa","65aeb35d7f4e3c2fd1959989","6617fad957f7c6a12ea16e26","6622cec137609569465d9863","
    <div id=""grid-container"">
        <!-- Grid items will be dynamically added here -->
    </div>    ","null","","","","","","","","","","","",""
"","4192","html-keyboard-response","331","311570","0.0-14.0","4yOkfYtJKa","65aeb35d7f4e3c2fd1959989","6617fad957f7c6a12ea16e26","6622cec137609569465d9863","break screen"," ","","","","","","","","","","","",""
"","null","html-keyboard-response","332","314081","0.0-15.0-0.0","4yOkfYtJKa","65aeb35d7f4e3c2fd1959989","6617fad957f7c6a12ea16e26","6622cec137609569465d9863","fixation cross","null","","","","","","","","","","","",""
"","745","html-keyboard-response","333","314826","0.0-15.0-1.0","4yOkfYtJKa","65aeb35d7f4e3c2fd1959989","6617fad957f7c6a12ea16e26","6622cec137609569465d9863","image grid","q","","","","","Ontogenetic_Distractor_Threat_target","800","ongrid","q","9","Ontogenetic","true","experimental"
"","null","html-keyboard-response","334","314983","0.0-15.0-2.0","4yOkfYtJKa","65aeb35d7f4e3c2fd1959989","6617fad957f7c6a12ea16e26","6622cec137609569465d9863","
    <div id=""grid-container"">
        <!-- Grid items will be dynamically added here -->
    </div>    ","null","","","","","","","","","","","",""
"","null","html-keyboard-response","335","315690","0.0-15.0-0.1","4yOkfYtJKa","65aeb35d7f4e3c2fd1959989","6617fad957f7c6a12ea16e26","6622cec137609569465d9863","fixation cross","null","","","","","","","","","","","",""
"","760","html-keyboard-response","336","316450","0.0-15.0-1.1","4yOkfYtJKa","65aeb35d7f4e3c2fd1959989","6617fad957f7c6a12ea16e26","6622cec137609569465d9863","image grid","p","","","","","Ontogenetic_Distractor_Nonthreat_target","800","ongrid","p","5","Ontogenetic","true","experimental"
"","null","html-keyboard-response","337","316613","0.0-15.0-2.1","4yOkfYtJKa","65aeb35d7f4e3c2fd1959989","6617fad957f7c6a12ea16e26","6622cec137609569465d9863","
    <div id=""grid-container"">
        <!-- Grid items will be dynamically added here -->
    </div>    ","null","","","","","","","","","","","",""
"","null","html-keyboard-response","338","317331","0.0-15.0-0.2","4yOkfYtJKa","65aeb35d7f4e3c2fd1959989","6617fad957f7c6a12ea16e26","6622cec137609569465d9863","fixation cross","null","","","","","","","","","","","",""
"","null","html-keyboard-response","339","318139","0.0-15.0-1.2","4yOkfYtJKa","65aeb35d7f4e3c2fd1959989","6617fad957f7c6a12ea16e26","6622cec137609569465d9863","
        <div id=""grid-container"">
        <!-- Grid items will be dynamically added here -->
    </div>    ","null","","","","","","","","","","","",""
"","1847","html-keyboard-response","340","319186","0.0-15.0-2.2","4yOkfYtJKa","65aeb35d7f4e3c2fd1959989","6617fad957f7c6a12ea16e26","6622cec137609569465d9863","mask grid"," ","","","","","Ontogenetic_Distractor_Nonthreat_target","800","onmask","p","9","Ontogenetic","false","experimental"
"","null","html-keyboard-response","341","319905","0.0-15.0-0.3","4yOkfYtJKa","65aeb35d7f4e3c2fd1959989","6617fad957f7c6a12ea16e26","6622cec137609569465d9863","fixation cross","null","","","","","","","","","","","",""
"","752","html-keyboard-response","342","320658","0.0-15.0-1.3","4yOkfYtJKa","65aeb35d7f4e3c2fd1959989","6617fad957f7c6a12ea16e26","6622cec137609569465d9863","image grid","q","","","","","Ontogenetic_Distractor_Threat_target","800","ongrid","q","1","Ontogenetic","true","experimental"
"","null","html-keyboard-response","343","320818","0.0-15.0-2.3","4yOkfYtJKa","65aeb35d7f4e3c2fd1959989","6617fad957f7c6a12ea16e26","6622cec137609569465d9863","
    <div id=""grid-container"">
        <!-- Grid items will be dynamically added here -->
    </div>    ","null","","","","","","","","","","","",""
"","null","html-keyboard-response","344","321524","0.0-15.0-0.4","4yOkfYtJKa","65aeb35d7f4e3c2fd1959989","6617fad957f7c6a12ea16e26","6622cec137609569465d9863","fixation cross","null","","","","","","","","","","","",""
"","null","html-keyboard-response","345","322337","0.0-15.0-1.4","4yOkfYtJKa","65aeb35d7f4e3c2fd1959989","6617fad957f7c6a12ea16e26","6622cec137609569465d9863","
        <div id=""grid-container"">
        <!-- Grid items will be dynamically added here -->
    </div>    ","null","","","","","","","","","","","",""
"","991","html-keyboard-response","346","322529","0.0-15.0-2.4","4yOkfYtJKa","65aeb35d7f4e3c2fd1959989","6617fad957f7c6a12ea16e26","6622cec137609569465d9863","mask grid","p","","","","","Ontogenetic_Distractor_Nonthreat_target","800","onmask","p","8","Ontogenetic","true","experimental"
"","null","html-keyboard-response","347","323258","0.0-15.0-0.5","4yOkfYtJKa","65aeb35d7f4e3c2fd1959989","6617fad957f7c6a12ea16e26","6622cec137609569465d9863","fixation cross","null","","","","","","","","","","","",""
"","null","html-keyboard-response","348","324067","0.0-15.0-1.5","4yOkfYtJKa","65aeb35d7f4e3c2fd1959989","6617fad957f7c6a12ea16e26","6622cec137609569465d9863","
        <div id=""grid-container"">
        <!-- Grid items will be dynamically added here -->
    </div>    ","null","","","","","","","","","","","",""
"","1085","html-keyboard-response","349","324353","0.0-15.0-2.5","4yOkfYtJKa","65aeb35d7f4e3c2fd1959989","6617fad957f7c6a12ea16e26","6622cec137609569465d9863","mask grid"," ","","","","","Ontogenetic_Distractor_notarget","800","onmask"," ","7","Ontogenetic","true","experimental"
"","null","html-keyboard-response","350","325069","0.0-15.0-0.6","4yOkfYtJKa","65aeb35d7f4e3c2fd1959989","6617fad957f7c6a12ea16e26","6622cec137609569465d9863","fixation cross","null","","","","","","","","","","","",""
"","661","html-keyboard-response","351","325730","0.0-15.0-1.6","4yOkfYtJKa","65aeb35d7f4e3c2fd1959989","6617fad957f7c6a12ea16e26","6622cec137609569465d9863","image grid","q","","","","","Ontogenetic_Distractor_Threat_target","800","ongrid","q","6","Ontogenetic","true","experimental"
"","null","html-keyboard-response","352","325896","0.0-15.0-2.6","4yOkfYtJKa","65aeb35d7f4e3c2fd1959989","6617fad957f7c6a12ea16e26","6622cec137609569465d9863","
    <div id=""grid-container"">
        <!-- Grid items will be dynamically added here -->
    </div>    ","null","","","","","","","","","","","",""
"","null","html-keyboard-response","353","326604","0.0-15.0-0.7","4yOkfYtJKa","65aeb35d7f4e3c2fd1959989","6617fad957f7c6a12ea16e26","6622cec137609569465d9863","fixation cross","null","","","","","","","","","","","",""
"","606","html-keyboard-response","354","327210","0.0-15.0-1.7","4yOkfYtJKa","65aeb35d7f4e3c2fd1959989","6617fad957f7c6a12ea16e26","6622cec137609569465d9863","image grid","p","","","","","Ontogenetic_Distractor_Nonthreat_target","800","ongrid","p","5","Ontogenetic","true","experimental"
"","null","html-keyboard-response","355","327370","0.0-15.0-2.7","4yOkfYtJKa","65aeb35d7f4e3c2fd1959989","6617fad957f7c6a12ea16e26","6622cec137609569465d9863","
    <div id=""grid-container"">
        <!-- Grid items will be dynamically added here -->
    </div>    ","null","","","","","","","","","","","",""
"","null","html-keyboard-response","356","328074","0.0-15.0-0.8","4yOkfYtJKa","65aeb35d7f4e3c2fd1959989","6617fad957f7c6a12ea16e26","6622cec137609569465d9863","fixation cross","null","","","","","","","","","","","",""
"","736","html-keyboard-response","357","328810","0.0-15.0-1.8","4yOkfYtJKa","65aeb35d7f4e3c2fd1959989","6617fad957f7c6a12ea16e26","6622cec137609569465d9863","image grid","p","","","","","Ontogenetic_Distractor_Nonthreat_target","800","ongrid","p","4","Ontogenetic","true","experimental"
"","null","html-keyboard-response","358","328966","0.0-15.0-2.8","4yOkfYtJKa","65aeb35d7f4e3c2fd1959989","6617fad957f7c6a12ea16e26","6622cec137609569465d9863","
    <div id=""grid-container"">
        <!-- Grid items will be dynamically added here -->
    </div>    ","null","","","","","","","","","","","",""
"","null","html-keyboard-response","359","329674","0.0-15.0-0.9","4yOkfYtJKa","65aeb35d7f4e3c2fd1959989","6617fad957f7c6a12ea16e26","6622cec137609569465d9863","fixation cross","null","","","","","","","","","","","",""
"","null","html-keyboard-response","360","330477","0.0-15.0-1.9","4yOkfYtJKa","65aeb35d7f4e3c2fd1959989","6617fad957f7c6a12ea16e26","6622cec137609569465d9863","
        <div id=""grid-container"">
        <!-- Grid items will be dynamically added here -->
    </div>    ","null","","","","","","","","","","","",""
"","1269","html-keyboard-response","361","330946","0.0-15.0-2.9","4yOkfYtJKa","65aeb35d7f4e3c2fd1959989","6617fad957f7c6a12ea16e26","6622cec137609569465d9863","mask grid","p","","","","","Ontogenetic_Distractor_Nonthreat_target","800","onmask","p","4","Ontogenetic","true","experimental"
"","null","html-keyboard-response","362","331653","0.0-15.0-0.10","4yOkfYtJKa","65aeb35d7f4e3c2fd1959989","6617fad957f7c6a12ea16e26","6622cec137609569465d9863","fixation cross","null","","","","","","","","","","","",""
"","701","html-keyboard-response","363","332354","0.0-15.0-1.10","4yOkfYtJKa","65aeb35d7f4e3c2fd1959989","6617fad957f7c6a12ea16e26","6622cec137609569465d9863","image grid","p","","","","","Ontogenetic_Distractor_Nonthreat_target","800","ongrid","p","1","Ontogenetic","true","experimental"
"","null","html-keyboard-response","364","332510","0.0-15.0-2.10","4yOkfYtJKa","65aeb35d7f4e3c2fd1959989","6617fad957f7c6a12ea16e26","6622cec137609569465d9863","
    <div id=""grid-container"">
        <!-- Grid items will be dynamically added here -->
    </div>    ","null","","","","","","","","","","","",""
"","null","html-keyboard-response","365","333224","0.0-15.0-0.11","4yOkfYtJKa","65aeb35d7f4e3c2fd1959989","6617fad957f7c6a12ea16e26","6622cec137609569465d9863","fixation cross","null","","","","","","","","","","","",""
"","785","html-keyboard-response","366","334010","0.0-15.0-1.11","4yOkfYtJKa","65aeb35d7f4e3c2fd1959989","6617fad957f7c6a12ea16e26","6622cec137609569465d9863","image grid","p","","","","","Ontogenetic_Distractor_Nonthreat_target","800","ongrid","p","8","Ontogenetic","true","experimental"
"","null","html-keyboard-response","367","334164","0.0-15.0-2.11","4yOkfYtJKa","65aeb35d7f4e3c2fd1959989","6617fad957f7c6a12ea16e26","6622cec137609569465d9863","
    <div id=""grid-container"">
        <!-- Grid items will be dynamically added here -->
    </div>    ","null","","","","","","","","","","","",""
"","null","html-keyboard-response","368","334872","0.0-15.0-0.12","4yOkfYtJKa","65aeb35d7f4e3c2fd1959989","6617fad957f7c6a12ea16e26","6622cec137609569465d9863","fixation cross","null","","","","","","","","","","","",""
"","null","html-keyboard-response","369","335678","0.0-15.0-1.12","4yOkfYtJKa","65aeb35d7f4e3c2fd1959989","6617fad957f7c6a12ea16e26","6622cec137609569465d9863","
        <div id=""grid-container"">
        <!-- Grid items will be dynamically added here -->
    </div>    ","null","","","","","","","","","","","",""
