"success","rt","trial_type","trial_index","time_elapsed","internal_node_id","unique_identifier","subject_id","study_id","session_id","stimulus","response","timeout","failed_images","failed_audio","failed_video","task","time_manipulation","respondedwhen","correctresponse","targetimagelocation","blocktype","correct","roundtype"
"true","2731","fullscreen","0","3739","0.0-0.0","w27wN2oJZF","6108f7876d88d5079619afca","6617fad957f7c6a12ea16e26","6622cda1b0961b742ba67acf","","","","","","","","","","","","","",""
"","7958","html-keyboard-response","1","11700","0.0-1.0","w27wN2oJZF","6108f7876d88d5079619afca","6617fad957f7c6a12ea16e26","6622cda1b0961b742ba67acf","instruction screen 0"," ","","","","","","","","","","","",""
"true","","preload","2","19858","0.0-2.0","w27wN2oJZF","6108f7876d88d5079619afca","6617fad957f7c6a12ea16e26","6622cda1b0961b742ba67acf","","","false","[]","[]","[]","","","","","","","",""
"","113061","html-keyboard-response","3","132922","0.0-3.0","w27wN2oJZF","6108f7876d88d5079619afca","6617fad957f7c6a12ea16e26","6622cda1b0961b742ba67acf","instruction screen 1"," ","","","","","","","","","","","",""
"","7934","html-keyboard-response","4","140887","0.0-4.0","w27wN2oJZF","6108f7876d88d5079619afca","6617fad957f7c6a12ea16e26","6622cda1b0961b742ba67acf","instruction screen 2","q","","","","","","","","","","","",""
"","4102","html-keyboard-response","5","145021","0.0-5.0","w27wN2oJZF","6108f7876d88d5079619afca","6617fad957f7c6a12ea16e26","6622cda1b0961b742ba67acf","instruction screen 3","p","","","","","","","","","","","",""
"","4871","html-keyboard-response","6","149923","0.0-6.0","w27wN2oJZF","6108f7876d88d5079619afca","6617fad957f7c6a12ea16e26","6622cda1b0961b742ba67acf","instruction screen 4"," ","","","","","","","","","","","",""
"","25009","html-keyboard-response","7","174964","0.0-7.0","w27wN2oJZF","6108f7876d88d5079619afca","6617fad957f7c6a12ea16e26","6622cda1b0961b742ba67acf","instruction screen 5"," ","","","","","","","","","","","",""
"","null","html-keyboard-response","8","175500","0.0-8.0","w27wN2oJZF","6108f7876d88d5079619afca","6617fad957f7c6a12ea16e26","6622cda1b0961b742ba67acf","fixation cross","null","","","","","","","","","","","",""
"","null","html-keyboard-response","9","176008","0.0-9.0-0.0","w27wN2oJZF","6108f7876d88d5079619afca","6617fad957f7c6a12ea16e26","6622cda1b0961b742ba67acf","fixation cross","null","","","","","","","","","","","",""
"","2702","html-keyboard-response","10","178711","0.0-9.0-1.0","w27wN2oJZF","6108f7876d88d5079619afca","6617fad957f7c6a12ea16e26","6622cda1b0961b742ba67acf","image grid","p","","","","","Ontogenetic_Distractor_Nonthreat_target","3000","ongrid","p","4","Phylogenetic","true","practice"
"","null","html-keyboard-response","11","178872","0.0-9.0-2.0","w27wN2oJZF","6108f7876d88d5079619afca","6617fad957f7c6a12ea16e26","6622cda1b0961b742ba67acf","
    <div id=""grid-container"">
        <!-- Grid items will be dynamically added here -->
    </div>    ","null","","","","","","","","","","","",""
"","null","html-keyboard-response","12","180095","0.0-9.0-3.0","w27wN2oJZF","6108f7876d88d5079619afca","6617fad957f7c6a12ea16e26","6622cda1b0961b742ba67acf","feedback screen","null","","","","","","","","","","","",""
"","null","html-keyboard-response","13","180616","0.0-9.0-0.1","w27wN2oJZF","6108f7876d88d5079619afca","6617fad957f7c6a12ea16e26","6622cda1b0961b742ba67acf","fixation cross","null","","","","","","","","","","","",""
"","1369","html-keyboard-response","14","181986","0.0-9.0-1.1","w27wN2oJZF","6108f7876d88d5079619afca","6617fad957f7c6a12ea16e26","6622cda1b0961b742ba67acf","image grid","p","","","","","Phylogenetic_Distractor_Nonthreat_target","2900","ongrid","p","5","Phylogenetic","true","practice"
"","null","html-keyboard-response","15","182139","0.0-9.0-2.1","w27wN2oJZF","6108f7876d88d5079619afca","6617fad957f7c6a12ea16e26","6622cda1b0961b742ba67acf","
    <div id=""grid-container"">
        <!-- Grid items will be dynamically added here -->
    </div>    ","null","","","","","","","","","","","",""
"","null","html-keyboard-response","16","183359","0.0-9.0-3.1","w27wN2oJZF","6108f7876d88d5079619afca","6617fad957f7c6a12ea16e26","6622cda1b0961b742ba67acf","feedback screen","null","","","","","","","","","","","",""
"","null","html-keyboard-response","17","183877","0.0-9.0-0.2","w27wN2oJZF","6108f7876d88d5079619afca","6617fad957f7c6a12ea16e26","6622cda1b0961b742ba67acf","fixation cross","null","","","","","","","","","","","",""
"","908","html-keyboard-response","18","184786","0.0-9.0-1.2","w27wN2oJZF","6108f7876d88d5079619afca","6617fad957f7c6a12ea16e26","6622cda1b0961b742ba67acf","image grid","p","","","","","Ontogenetic_Distractor_Nonthreat_target","2800","ongrid","p","3","Phylogenetic","true","practice"
"","null","html-keyboard-response","19","184946","0.0-9.0-2.2","w27wN2oJZF","6108f7876d88d5079619afca","6617fad957f7c6a12ea16e26","6622cda1b0961b742ba67acf","
    <div id=""grid-container"">
        <!-- Grid items will be dynamically added here -->
    </div>    ","null","","","","","","","","","","","",""
"","null","html-keyboard-response","20","186171","0.0-9.0-3.2","w27wN2oJZF","6108f7876d88d5079619afca","6617fad957f7c6a12ea16e26","6622cda1b0961b742ba67acf","feedback screen","null","","","","","","","","","","","",""
"","null","html-keyboard-response","21","186676","0.0-9.0-0.3","w27wN2oJZF","6108f7876d88d5079619afca","6617fad957f7c6a12ea16e26","6622cda1b0961b742ba67acf","fixation cross","null","","","","","","","","","","","",""
"","577","html-keyboard-response","22","187255","0.0-9.0-1.3","w27wN2oJZF","6108f7876d88d5079619afca","6617fad957f7c6a12ea16e26","6622cda1b0961b742ba67acf","image grid","p","","","","","Ontogenetic_Distractor_Nonthreat_target","2700","ongrid","p","8","Phylogenetic","true","practice"
"","null","html-keyboard-response","23","187416","0.0-9.0-2.3","w27wN2oJZF","6108f7876d88d5079619afca","6617fad957f7c6a12ea16e26","6622cda1b0961b742ba67acf","
    <div id=""grid-container"">
        <!-- Grid items will be dynamically added here -->
    </div>    ","null","","","","","","","","","","","",""
"","null","html-keyboard-response","24","188631","0.0-9.0-3.3","w27wN2oJZF","6108f7876d88d5079619afca","6617fad957f7c6a12ea16e26","6622cda1b0961b742ba67acf","feedback screen","null","","","","","","","","","","","",""
"","null","html-keyboard-response","25","189149","0.0-9.0-0.4","w27wN2oJZF","6108f7876d88d5079619afca","6617fad957f7c6a12ea16e26","6622cda1b0961b742ba67acf","fixation cross","null","","","","","","","","","","","",""
"","1920","html-keyboard-response","26","191062","0.0-9.0-1.4","w27wN2oJZF","6108f7876d88d5079619afca","6617fad957f7c6a12ea16e26","6622cda1b0961b742ba67acf","image grid","q","","","","","Phylogenetic_Distractor_Threat_target","2600","ongrid","q","3","Phylogenetic","true","practice"
"","null","html-keyboard-response","27","191222","0.0-9.0-2.4","w27wN2oJZF","6108f7876d88d5079619afca","6617fad957f7c6a12ea16e26","6622cda1b0961b742ba67acf","
    <div id=""grid-container"">
        <!-- Grid items will be dynamically added here -->
    </div>    ","null","","","","","","","","","","","",""
"","null","html-keyboard-response","28","192446","0.0-9.0-3.4","w27wN2oJZF","6108f7876d88d5079619afca","6617fad957f7c6a12ea16e26","6622cda1b0961b742ba67acf","feedback screen","null","","","","","","","","","","","",""
"","null","html-keyboard-response","29","192952","0.0-9.0-0.5","w27wN2oJZF","6108f7876d88d5079619afca","6617fad957f7c6a12ea16e26","6622cda1b0961b742ba67acf","fixation cross","null","","","","","","","","","","","",""
"","724","html-keyboard-response","30","193677","0.0-9.0-1.5","w27wN2oJZF","6108f7876d88d5079619afca","6617fad957f7c6a12ea16e26","6622cda1b0961b742ba67acf","image grid","p","","","","","Ontogenetic_Distractor_Nonthreat_target","2500","ongrid","p","3","Phylogenetic","true","practice"
"","null","html-keyboard-response","31","193828","0.0-9.0-2.5","w27wN2oJZF","6108f7876d88d5079619afca","6617fad957f7c6a12ea16e26","6622cda1b0961b742ba67acf","
    <div id=""grid-container"">
        <!-- Grid items will be dynamically added here -->
    </div>    ","null","","","","","","","","","","","",""
"","null","html-keyboard-response","32","195048","0.0-9.0-3.5","w27wN2oJZF","6108f7876d88d5079619afca","6617fad957f7c6a12ea16e26","6622cda1b0961b742ba67acf","feedback screen","null","","","","","","","","","","","",""
"","null","html-keyboard-response","33","195560","0.0-9.0-0.6","w27wN2oJZF","6108f7876d88d5079619afca","6617fad957f7c6a12ea16e26","6622cda1b0961b742ba67acf","fixation cross","null","","","","","","","","","","","",""
"","785","html-keyboard-response","34","196345","0.0-9.0-1.6","w27wN2oJZF","6108f7876d88d5079619afca","6617fad957f7c6a12ea16e26","6622cda1b0961b742ba67acf","image grid","q","","","","","Ontogenetic_Distractor_Threat_target","2400","ongrid","q","8","Phylogenetic","true","practice"
"","null","html-keyboard-response","35","196501","0.0-9.0-2.6","w27wN2oJZF","6108f7876d88d5079619afca","6617fad957f7c6a12ea16e26","6622cda1b0961b742ba67acf","
    <div id=""grid-container"">
        <!-- Grid items will be dynamically added here -->
    </div>    ","null","","","","","","","","","","","",""
"","null","html-keyboard-response","36","197728","0.0-9.0-3.6","w27wN2oJZF","6108f7876d88d5079619afca","6617fad957f7c6a12ea16e26","6622cda1b0961b742ba67acf","feedback screen","null","","","","","","","","","","","",""
"","null","html-keyboard-response","37","198233","0.0-9.0-0.7","w27wN2oJZF","6108f7876d88d5079619afca","6617fad957f7c6a12ea16e26","6622cda1b0961b742ba67acf","fixation cross","null","","","","","","","","","","","",""
"","969","html-keyboard-response","38","199203","0.0-9.0-1.7","w27wN2oJZF","6108f7876d88d5079619afca","6617fad957f7c6a12ea16e26","6622cda1b0961b742ba67acf","image grid","q","","","","","Ontogenetic_Distractor_Threat_target","2300","ongrid","q","7","Phylogenetic","true","practice"
"","null","html-keyboard-response","39","199367","0.0-9.0-2.7","w27wN2oJZF","6108f7876d88d5079619afca","6617fad957f7c6a12ea16e26","6622cda1b0961b742ba67acf","
    <div id=""grid-container"">
        <!-- Grid items will be dynamically added here -->
    </div>    ","null","","","","","","","","","","","",""
"","null","html-keyboard-response","40","200578","0.0-9.0-3.7","w27wN2oJZF","6108f7876d88d5079619afca","6617fad957f7c6a12ea16e26","6622cda1b0961b742ba67acf","feedback screen","null","","","","","","","","","","","",""
"","null","html-keyboard-response","41","201088","0.0-9.0-0.8","w27wN2oJZF","6108f7876d88d5079619afca","6617fad957f7c6a12ea16e26","6622cda1b0961b742ba67acf","fixation cross","null","","","","","","","","","","","",""
"","1679","html-keyboard-response","42","202767","0.0-9.0-1.8","w27wN2oJZF","6108f7876d88d5079619afca","6617fad957f7c6a12ea16e26","6622cda1b0961b742ba67acf","image grid"," ","","","","","Phylogenetic_Distractor_notarget","2200","ongrid"," ","8","Phylogenetic","true","practice"
"","null","html-keyboard-response","43","202922","0.0-9.0-2.8","w27wN2oJZF","6108f7876d88d5079619afca","6617fad957f7c6a12ea16e26","6622cda1b0961b742ba67acf","
    <div id=""grid-container"">
        <!-- Grid items will be dynamically added here -->
    </div>    ","null","","","","","","","","","","","",""
"","null","html-keyboard-response","44","204156","0.0-9.0-3.8","w27wN2oJZF","6108f7876d88d5079619afca","6617fad957f7c6a12ea16e26","6622cda1b0961b742ba67acf","feedback screen","null","","","","","","","","","","","",""
"","null","html-keyboard-response","45","204673","0.0-9.0-0.9","w27wN2oJZF","6108f7876d88d5079619afca","6617fad957f7c6a12ea16e26","6622cda1b0961b742ba67acf","fixation cross","null","","","","","","","","","","","",""
"","1425","html-keyboard-response","46","206099","0.0-9.0-1.9","w27wN2oJZF","6108f7876d88d5079619afca","6617fad957f7c6a12ea16e26","6622cda1b0961b742ba67acf","image grid","q","","","","","Phylogenetic_Distractor_Threat_target","2100","ongrid","q","9","Phylogenetic","true","practice"
"","null","html-keyboard-response","47","206253","0.0-9.0-2.9","w27wN2oJZF","6108f7876d88d5079619afca","6617fad957f7c6a12ea16e26","6622cda1b0961b742ba67acf","
    <div id=""grid-container"">
        <!-- Grid items will be dynamically added here -->
    </div>    ","null","","","","","","","","","","","",""
"","null","html-keyboard-response","48","207478","0.0-9.0-3.9","w27wN2oJZF","6108f7876d88d5079619afca","6617fad957f7c6a12ea16e26","6622cda1b0961b742ba67acf","feedback screen","null","","","","","","","","","","","",""
"","null","html-keyboard-response","49","208001","0.0-9.0-0.10","w27wN2oJZF","6108f7876d88d5079619afca","6617fad957f7c6a12ea16e26","6622cda1b0961b742ba67acf","fixation cross","null","","","","","","","","","","","",""
"","1570","html-keyboard-response","50","209572","0.0-9.0-1.10","w27wN2oJZF","6108f7876d88d5079619afca","6617fad957f7c6a12ea16e26","6622cda1b0961b742ba67acf","image grid"," ","","","","","Phylogenetic_Distractor_Nonthreat_target","2000","ongrid","p","7","Phylogenetic","false","practice"
"","null","html-keyboard-response","51","209724","0.0-9.0-2.10","w27wN2oJZF","6108f7876d88d5079619afca","6617fad957f7c6a12ea16e26","6622cda1b0961b742ba67acf","
    <div id=""grid-container"">
        <!-- Grid items will be dynamically added here -->
    </div>    ","null","","","","","","","","","","","",""
"","null","html-keyboard-response","52","210946","0.0-9.0-3.10","w27wN2oJZF","6108f7876d88d5079619afca","6617fad957f7c6a12ea16e26","6622cda1b0961b742ba67acf","feedback screen","null","","","","","","","","","","","",""
"","null","html-keyboard-response","53","211450","0.0-9.0-0.11","w27wN2oJZF","6108f7876d88d5079619afca","6617fad957f7c6a12ea16e26","6622cda1b0961b742ba67acf","fixation cross","null","","","","","","","","","","","",""
"","null","html-keyboard-response","54","213361","0.0-9.0-1.11","w27wN2oJZF","6108f7876d88d5079619afca","6617fad957f7c6a12ea16e26","6622cda1b0961b742ba67acf","
        <div id=""grid-container"">
        <!-- Grid items will be dynamically added here -->
    </div>    ","null","","","","","","","","","","","",""
"","2875","html-keyboard-response","55","214337","0.0-9.0-2.11","w27wN2oJZF","6108f7876d88d5079619afca","6617fad957f7c6a12ea16e26","6622cda1b0961b742ba67acf","mask grid","q","","","","","Phylogenetic_Distractor_Threat_target","1900","onmask","q","7","Phylogenetic","true","practice"
"","null","html-keyboard-response","56","215548","0.0-9.0-3.11","w27wN2oJZF","6108f7876d88d5079619afca","6617fad957f7c6a12ea16e26","6622cda1b0961b742ba67acf","feedback screen","null","","","","","","","","","","","",""
"","null","html-keyboard-response","57","216069","0.0-9.0-0.12","w27wN2oJZF","6108f7876d88d5079619afca","6617fad957f7c6a12ea16e26","6622cda1b0961b742ba67acf","fixation cross","null","","","","","","","","","","","",""
"","1072","html-keyboard-response","58","217143","0.0-9.0-1.12","w27wN2oJZF","6108f7876d88d5079619afca","6617fad957f7c6a12ea16e26","6622cda1b0961b742ba67acf","image grid"," ","","","","","Ontogenetic_Distractor_notarget","1800","ongrid"," ","8","Phylogenetic","true","practice"
"","null","html-keyboard-response","59","217297","0.0-9.0-2.12","w27wN2oJZF","6108f7876d88d5079619afca","6617fad957f7c6a12ea16e26","6622cda1b0961b742ba67acf","
    <div id=""grid-container"">
        <!-- Grid items will be dynamically added here -->
    </div>    ","null","","","","","","","","","","","",""
"","null","html-keyboard-response","60","218524","0.0-9.0-3.12","w27wN2oJZF","6108f7876d88d5079619afca","6617fad957f7c6a12ea16e26","6622cda1b0961b742ba67acf","feedback screen","null","","","","","","","","","","","",""
"","null","html-keyboard-response","61","219040","0.0-9.0-0.13","w27wN2oJZF","6108f7876d88d5079619afca","6617fad957f7c6a12ea16e26","6622cda1b0961b742ba67acf","fixation cross","null","","","","","","","","","","","",""
"","1605","html-keyboard-response","62","220646","0.0-9.0-1.13","w27wN2oJZF","6108f7876d88d5079619afca","6617fad957f7c6a12ea16e26","6622cda1b0961b742ba67acf","image grid","p","","","","","Phylogenetic_Distractor_Nonthreat_target","1700","ongrid","p","8","Phylogenetic","true","practice"
"","null","html-keyboard-response","63","220812","0.0-9.0-2.13","w27wN2oJZF","6108f7876d88d5079619afca","6617fad957f7c6a12ea16e26","6622cda1b0961b742ba67acf","
    <div id=""grid-container"">
        <!-- Grid items will be dynamically added here -->
    </div>    ","null","","","","","","","","","","","",""
"","null","html-keyboard-response","64","222028","0.0-9.0-3.13","w27wN2oJZF","6108f7876d88d5079619afca","6617fad957f7c6a12ea16e26","6622cda1b0961b742ba67acf","feedback screen","null","","","","","","","","","","","",""
"","null","html-keyboard-response","65","222531","0.0-9.0-0.14","w27wN2oJZF","6108f7876d88d5079619afca","6617fad957f7c6a12ea16e26","6622cda1b0961b742ba67acf","fixation cross","null","","","","","","","","","","","",""
"","779","html-keyboard-response","66","223311","0.0-9.0-1.14","w27wN2oJZF","6108f7876d88d5079619afca","6617fad957f7c6a12ea16e26","6622cda1b0961b742ba67acf","image grid","q","","","","","Ontogenetic_Distractor_Threat_target","1600","ongrid","q","4","Phylogenetic","true","practice"
"","null","html-keyboard-response","67","223465","0.0-9.0-2.14","w27wN2oJZF","6108f7876d88d5079619afca","6617fad957f7c6a12ea16e26","6622cda1b0961b742ba67acf","
    <div id=""grid-container"">
        <!-- Grid items will be dynamically added here -->
    </div>    ","null","","","","","","","","","","","",""
"","null","html-keyboard-response","68","224690","0.0-9.0-3.14","w27wN2oJZF","6108f7876d88d5079619afca","6617fad957f7c6a12ea16e26","6622cda1b0961b742ba67acf","feedback screen","null","","","","","","","","","","","",""
"","null","html-keyboard-response","69","225203","0.0-9.0-0.15","w27wN2oJZF","6108f7876d88d5079619afca","6617fad957f7c6a12ea16e26","6622cda1b0961b742ba67acf","fixation cross","null","","","","","","","","","","","",""
"","null","html-keyboard-response","70","226713","0.0-9.0-1.15","w27wN2oJZF","6108f7876d88d5079619afca","6617fad957f7c6a12ea16e26","6622cda1b0961b742ba67acf","
        <div id=""grid-container"">
        <!-- Grid items will be dynamically added here -->
    </div>    ","null","","","","","","","","","","","",""
"","1812","html-keyboard-response","71","227026","0.0-9.0-2.15","w27wN2oJZF","6108f7876d88d5079619afca","6617fad957f7c6a12ea16e26","6622cda1b0961b742ba67acf","mask grid"," ","","","","","Ontogenetic_Distractor_notarget","1500","onmask"," ","4","Phylogenetic","true","practice"
"","null","html-keyboard-response","72","228265","0.0-9.0-3.15","w27wN2oJZF","6108f7876d88d5079619afca","6617fad957f7c6a12ea16e26","6622cda1b0961b742ba67acf","feedback screen","null","","","","","","","","","","","",""
"","null","html-keyboard-response","73","228769","0.0-9.0-0.16","w27wN2oJZF","6108f7876d88d5079619afca","6617fad957f7c6a12ea16e26","6622cda1b0961b742ba67acf","fixation cross","null","","","","","","","","","","","",""
"","973","html-keyboard-response","74","229743","0.0-9.0-1.16","w27wN2oJZF","6108f7876d88d5079619afca","6617fad957f7c6a12ea16e26","6622cda1b0961b742ba67acf","image grid","q","","","","","Phylogenetic_Distractor_Threat_target","1400","ongrid","q","3","Phylogenetic","true","practice"
"","null","html-keyboard-response","75","229912","0.0-9.0-2.16","w27wN2oJZF","6108f7876d88d5079619afca","6617fad957f7c6a12ea16e26","6622cda1b0961b742ba67acf","
    <div id=""grid-container"">
        <!-- Grid items will be dynamically added here -->
    </div>    ","null","","","","","","","","","","","",""
"","null","html-keyboard-response","76","231135","0.0-9.0-3.16","w27wN2oJZF","6108f7876d88d5079619afca","6617fad957f7c6a12ea16e26","6622cda1b0961b742ba67acf","feedback screen","null","","","","","","","","","","","",""
"","null","html-keyboard-response","77","231656","0.0-9.0-0.17","w27wN2oJZF","6108f7876d88d5079619afca","6617fad957f7c6a12ea16e26","6622cda1b0961b742ba67acf","fixation cross","null","","","","","","","","","","","",""
"","1257","html-keyboard-response","78","232914","0.0-9.0-1.17","w27wN2oJZF","6108f7876d88d5079619afca","6617fad957f7c6a12ea16e26","6622cda1b0961b742ba67acf","image grid","p","","","","","Phylogenetic_Distractor_Nonthreat_target","1300","ongrid","p","8","Phylogenetic","true","practice"
"","null","html-keyboard-response","79","233082","0.0-9.0-2.17","w27wN2oJZF","6108f7876d88d5079619afca","6617fad957f7c6a12ea16e26","6622cda1b0961b742ba67acf","
    <div id=""grid-container"">
        <!-- Grid items will be dynamically added here -->
    </div>    ","null","","","","","","","","","","","",""
"","null","html-keyboard-response","80","234313","0.0-9.0-3.17","w27wN2oJZF","6108f7876d88d5079619afca","6617fad957f7c6a12ea16e26","6622cda1b0961b742ba67acf","feedback screen","null","","","","","","","","","","","",""
"","null","html-keyboard-response","81","234820","0.0-9.0-0.18","w27wN2oJZF","6108f7876d88d5079619afca","6617fad957f7c6a12ea16e26","6622cda1b0961b742ba67acf","fixation cross","null","","","","","","","","","","","",""
"","null","html-keyboard-response","82","236023","0.0-9.0-1.18","w27wN2oJZF","6108f7876d88d5079619afca","6617fad957f7c6a12ea16e26","6622cda1b0961b742ba67acf","
        <div id=""grid-container"">
        <!-- Grid items will be dynamically added here -->
    </div>    ","null","","","","","","","","","","","",""
"","1425","html-keyboard-response","83","236249","0.0-9.0-2.18","w27wN2oJZF","6108f7876d88d5079619afca","6617fad957f7c6a12ea16e26","6622cda1b0961b742ba67acf","mask grid"," ","","","","","Phylogenetic_Distractor_notarget","1200","onmask"," ","5","Phylogenetic","true","practice"
"","null","html-keyboard-response","84","237485","0.0-9.0-3.18","w27wN2oJZF","6108f7876d88d5079619afca","6617fad957f7c6a12ea16e26","6622cda1b0961b742ba67acf","feedback screen","null","","","","","","","","","","","",""
"","null","html-keyboard-response","85","237989","0.0-9.0-0.19","w27wN2oJZF","6108f7876d88d5079619afca","6617fad957f7c6a12ea16e26","6622cda1b0961b742ba67acf","fixation cross","null","","","","","","","","","","","",""
"","null","html-keyboard-response","86","239096","0.0-9.0-1.19","w27wN2oJZF","6108f7876d88d5079619afca","6617fad957f7c6a12ea16e26","6622cda1b0961b742ba67acf","
        <div id=""grid-container"">
        <!-- Grid items will be dynamically added here -->
    </div>    ","null","","","","","","","","","","","",""
"","1254","html-keyboard-response","87","239251","0.0-9.0-2.19","w27wN2oJZF","6108f7876d88d5079619afca","6617fad957f7c6a12ea16e26","6622cda1b0961b742ba67acf","mask grid","q","","","","","Ontogenetic_Distractor_Threat_target","1100","onmask","q","1","Phylogenetic","true","practice"
"","null","html-keyboard-response","88","240465","0.0-9.0-3.19","w27wN2oJZF","6108f7876d88d5079619afca","6617fad957f7c6a12ea16e26","6622cda1b0961b742ba67acf","feedback screen","null","","","","","","","","","","","",""
"","176134","html-keyboard-response","89","416631","0.0-10.0","w27wN2oJZF","6108f7876d88d5079619afca","6617fad957f7c6a12ea16e26","6622cda1b0961b742ba67acf","pre-experimental_briefing"," ","","","","","","","","","","","",""
"","null","html-keyboard-response","90","419184","0.0-11.0-0.0","w27wN2oJZF","6108f7876d88d5079619afca","6617fad957f7c6a12ea16e26","6622cda1b0961b742ba67acf","fixation cross","null","","","","","","","","","","","",""
"","1514","html-keyboard-response","91","420699","0.0-11.0-1.0","w27wN2oJZF","6108f7876d88d5079619afca","6617fad957f7c6a12ea16e26","6622cda1b0961b742ba67acf","image grid","q","","","","","Phylogenetic_Distractor_Threat_target","2500","ongrid","q","9","Phylogenetic","true","experimental"
"","null","html-keyboard-response","92","420861","0.0-11.0-2.0","w27wN2oJZF","6108f7876d88d5079619afca","6617fad957f7c6a12ea16e26","6622cda1b0961b742ba67acf","
    <div id=""grid-container"">
        <!-- Grid items will be dynamically added here -->
    </div>    ","null","","","","","","","","","","","",""
"","null","html-keyboard-response","93","421580","0.0-11.0-0.1","w27wN2oJZF","6108f7876d88d5079619afca","6617fad957f7c6a12ea16e26","6622cda1b0961b742ba67acf","fixation cross","null","","","","","","","","","","","",""
"","1151","html-keyboard-response","94","422732","0.0-11.0-1.1","w27wN2oJZF","6108f7876d88d5079619afca","6617fad957f7c6a12ea16e26","6622cda1b0961b742ba67acf","image grid"," ","","","","","Phylogenetic_Distractor_Threat_target","2500","ongrid","q","2","Phylogenetic","false","experimental"
"","null","html-keyboard-response","95","422897","0.0-11.0-2.1","w27wN2oJZF","6108f7876d88d5079619afca","6617fad957f7c6a12ea16e26","6622cda1b0961b742ba67acf","
    <div id=""grid-container"">
        <!-- Grid items will be dynamically added here -->
    </div>    ","null","","","","","","","","","","","",""
"","null","html-keyboard-response","96","423619","0.0-11.0-0.2","w27wN2oJZF","6108f7876d88d5079619afca","6617fad957f7c6a12ea16e26","6622cda1b0961b742ba67acf","fixation cross","null","","","","","","","","","","","",""
"","1212","html-keyboard-response","97","424831","0.0-11.0-1.2","w27wN2oJZF","6108f7876d88d5079619afca","6617fad957f7c6a12ea16e26","6622cda1b0961b742ba67acf","image grid","p","","","","","Phylogenetic_Distractor_Nonthreat_target","2500","ongrid","p","4","Phylogenetic","true","experimental"
"","null","html-keyboard-response","98","424982","0.0-11.0-2.2","w27wN2oJZF","6108f7876d88d5079619afca","6617fad957f7c6a12ea16e26","6622cda1b0961b742ba67acf","
    <div id=""grid-container"">
        <!-- Grid items will be dynamically added here -->
    </div>    ","null","","","","","","","","","","","",""
"","null","html-keyboard-response","99","425711","0.0-11.0-0.3","w27wN2oJZF","6108f7876d88d5079619afca","6617fad957f7c6a12ea16e26","6622cda1b0961b742ba67acf","fixation cross","null","","","","","","","","","","","",""
"","1268","html-keyboard-response","100","426979","0.0-11.0-1.3","w27wN2oJZF","6108f7876d88d5079619afca","6617fad957f7c6a12ea16e26","6622cda1b0961b742ba67acf","image grid","q","","","","","Phylogenetic_Distractor_Threat_target","2500","ongrid","q","9","Phylogenetic","true","experimental"
"","null","html-keyboard-response","101","427132","0.0-11.0-2.3","w27wN2oJZF","6108f7876d88d5079619afca","6617fad957f7c6a12ea16e26","6622cda1b0961b742ba67acf","
    <div id=""grid-container"">
        <!-- Grid items will be dynamically added here -->
    </div>    ","null","","","","","","","","","","","",""
"","null","html-keyboard-response","102","427838","0.0-11.0-0.4","w27wN2oJZF","6108f7876d88d5079619afca","6617fad957f7c6a12ea16e26","6622cda1b0961b742ba67acf","fixation cross","null","","","","","","","","","","","",""
"","1292","html-keyboard-response","103","429131","0.0-11.0-1.4","w27wN2oJZF","6108f7876d88d5079619afca","6617fad957f7c6a12ea16e26","6622cda1b0961b742ba67acf","image grid"," ","","","","","Phylogenetic_Distractor_Nonthreat_target","2500","ongrid","p","3","Phylogenetic","false","experimental"
"","null","html-keyboard-response","104","429297","0.0-11.0-2.4","w27wN2oJZF","6108f7876d88d5079619afca","6617fad957f7c6a12ea16e26","6622cda1b0961b742ba67acf","
    <div id=""grid-container"">
        <!-- Grid items will be dynamically added here -->
    </div>    ","null","","","","","","","","","","","",""
"","null","html-keyboard-response","105","430025","0.0-11.0-0.5","w27wN2oJZF","6108f7876d88d5079619afca","6617fad957f7c6a12ea16e26","6622cda1b0961b742ba67acf","fixation cross","null","","","","","","","","","","","",""
"","905","html-keyboard-response","106","430931","0.0-11.0-1.5","w27wN2oJZF","6108f7876d88d5079619afca","6617fad957f7c6a12ea16e26","6622cda1b0961b742ba67acf","image grid","q","","","","","Phylogenetic_Distractor_Threat_target","2500","ongrid","q","8","Phylogenetic","true","experimental"
"","null","html-keyboard-response","107","431086","0.0-11.0-2.5","w27wN2oJZF","6108f7876d88d5079619afca","6617fad957f7c6a12ea16e26","6622cda1b0961b742ba67acf","
    <div id=""grid-container"">
        <!-- Grid items will be dynamically added here -->
    </div>    ","null","","","","","","","","","","","",""
"","null","html-keyboard-response","108","431795","0.0-11.0-0.6","w27wN2oJZF","6108f7876d88d5079619afca","6617fad957f7c6a12ea16e26","6622cda1b0961b742ba67acf","fixation cross","null","","","","","","","","","","","",""
"","781","html-keyboard-response","109","432577","0.0-11.0-1.6","w27wN2oJZF","6108f7876d88d5079619afca","6617fad957f7c6a12ea16e26","6622cda1b0961b742ba67acf","image grid","q","","","","","Phylogenetic_Distractor_Threat_target","2500","ongrid","q","2","Phylogenetic","true","experimental"
"","null","html-keyboard-response","110","432732","0.0-11.0-2.6","w27wN2oJZF","6108f7876d88d5079619afca","6617fad957f7c6a12ea16e26","6622cda1b0961b742ba67acf","
    <div id=""grid-container"">
        <!-- Grid items will be dynamically added here -->
    </div>    ","null","","","","","","","","","","","",""
"","null","html-keyboard-response","111","433447","0.0-11.0-0.7","w27wN2oJZF","6108f7876d88d5079619afca","6617fad957f7c6a12ea16e26","6622cda1b0961b742ba67acf","fixation cross","null","","","","","","","","","","","",""
"","1371","html-keyboard-response","112","434819","0.0-11.0-1.7","w27wN2oJZF","6108f7876d88d5079619afca","6617fad957f7c6a12ea16e26","6622cda1b0961b742ba67acf","image grid"," ","","","","","Phylogenetic_Distractor_notarget","2500","ongrid"," ","1","Phylogenetic","true","experimental"
"","null","html-keyboard-response","113","434970","0.0-11.0-2.7","w27wN2oJZF","6108f7876d88d5079619afca","6617fad957f7c6a12ea16e26","6622cda1b0961b742ba67acf","
    <div id=""grid-container"">
        <!-- Grid items will be dynamically added here -->
    </div>    ","null","","","","","","","","","","","",""
"","null","html-keyboard-response","114","435706","0.0-11.0-0.8","w27wN2oJZF","6108f7876d88d5079619afca","6617fad957f7c6a12ea16e26","6622cda1b0961b742ba67acf","fixation cross","null","","","","","","","","","","","",""
"","1324","html-keyboard-response","115","437030","0.0-11.0-1.8","w27wN2oJZF","6108f7876d88d5079619afca","6617fad957f7c6a12ea16e26","6622cda1b0961b742ba67acf","image grid","q","","","","","Phylogenetic_Distractor_Threat_target","2500","ongrid","q","6","Phylogenetic","true","experimental"
"","null","html-keyboard-response","116","437187","0.0-11.0-2.8","w27wN2oJZF","6108f7876d88d5079619afca","6617fad957f7c6a12ea16e26","6622cda1b0961b742ba67acf","
    <div id=""grid-container"">
        <!-- Grid items will be dynamically added here -->
    </div>    ","null","","","","","","","","","","","",""
"","null","html-keyboard-response","117","437911","0.0-11.0-0.9","w27wN2oJZF","6108f7876d88d5079619afca","6617fad957f7c6a12ea16e26","6622cda1b0961b742ba67acf","fixation cross","null","","","","","","","","","","","",""
"","1308","html-keyboard-response","118","439220","0.0-11.0-1.9","w27wN2oJZF","6108f7876d88d5079619afca","6617fad957f7c6a12ea16e26","6622cda1b0961b742ba67acf","image grid","q","","","","","Phylogenetic_Distractor_Threat_target","2500","ongrid","q","7","Phylogenetic","true","experimental"
"","null","html-keyboard-response","119","439394","0.0-11.0-2.9","w27wN2oJZF","6108f7876d88d5079619afca","6617fad957f7c6a12ea16e26","6622cda1b0961b742ba67acf","
    <div id=""grid-container"">
        <!-- Grid items will be dynamically added here -->
    </div>    ","null","","","","","","","","","","","",""
"","null","html-keyboard-response","120","440124","0.0-11.0-0.10","w27wN2oJZF","6108f7876d88d5079619afca","6617fad957f7c6a12ea16e26","6622cda1b0961b742ba67acf","fixation cross","null","","","","","","","","","","","",""
"","904","html-keyboard-response","121","441029","0.0-11.0-1.10","w27wN2oJZF","6108f7876d88d5079619afca","6617fad957f7c6a12ea16e26","6622cda1b0961b742ba67acf","image grid","q","","","","","Phylogenetic_Distractor_Threat_target","2500","ongrid","q","8","Phylogenetic","true","experimental"
"","null","html-keyboard-response","122","441194","0.0-11.0-2.10","w27wN2oJZF","6108f7876d88d5079619afca","6617fad957f7c6a12ea16e26","6622cda1b0961b742ba67acf","
    <div id=""grid-container"">
        <!-- Grid items will be dynamically added here -->
    </div>    ","null","","","","","","","","","","","",""
"","null","html-keyboard-response","123","441919","0.0-11.0-0.11","w27wN2oJZF","6108f7876d88d5079619afca","6617fad957f7c6a12ea16e26","6622cda1b0961b742ba67acf","fixation cross","null","","","","","","","","","","","",""
"","1072","html-keyboard-response","124","442992","0.0-11.0-1.11","w27wN2oJZF","6108f7876d88d5079619afca","6617fad957f7c6a12ea16e26","6622cda1b0961b742ba67acf","image grid","q","","","","","Phylogenetic_Distractor_Threat_target","2500","ongrid","q","2","Phylogenetic","true","experimental"
"","null","html-keyboard-response","125","443163","0.0-11.0-2.11","w27wN2oJZF","6108f7876d88d5079619afca","6617fad957f7c6a12ea16e26","6622cda1b0961b742ba67acf","
    <div id=""grid-container"">
        <!-- Grid items will be dynamically added here -->
    </div>    ","null","","","","","","","","","","","",""
"","null","html-keyboard-response","126","443882","0.0-11.0-0.12","w27wN2oJZF","6108f7876d88d5079619afca","6617fad957f7c6a12ea16e26","6622cda1b0961b742ba67acf","fixation cross","null","","","","","","","","","","","",""
"","1372","html-keyboard-response","127","445255","0.0-11.0-1.12","w27wN2oJZF","6108f7876d88d5079619afca","6617fad957f7c6a12ea16e26","6622cda1b0961b742ba67acf","image grid","q","","","","","Phylogenetic_Distractor_Threat_target","2500","ongrid","q","4","Phylogenetic","true","experimental"
"","null","html-keyboard-response","128","445418","0.0-11.0-2.12","w27wN2oJZF","6108f7876d88d5079619afca","6617fad957f7c6a12ea16e26","6622cda1b0961b742ba67acf","
    <div id=""grid-container"">
        <!-- Grid items will be dynamically added here -->
    </div>    ","null","","","","","","","","","","","",""
"","null","html-keyboard-response","129","446149","0.0-11.0-0.13","w27wN2oJZF","6108f7876d88d5079619afca","6617fad957f7c6a12ea16e26","6622cda1b0961b742ba67acf","fixation cross","null","","","","","","","","","","","",""
"","1282","html-keyboard-response","130","447431","0.0-11.0-1.13","w27wN2oJZF","6108f7876d88d5079619afca","6617fad957f7c6a12ea16e26","6622cda1b0961b742ba67acf","image grid","p","","","","","Phylogenetic_Distractor_Nonthreat_target","2500","ongrid","p","6","Phylogenetic","true","experimental"
"","null","html-keyboard-response","131","447594","0.0-11.0-2.13","w27wN2oJZF","6108f7876d88d5079619afca","6617fad957f7c6a12ea16e26","6622cda1b0961b742ba67acf","
    <div id=""grid-container"">
        <!-- Grid items will be dynamically added here -->
    </div>    ","null","","","","","","","","","","","",""
"","null","html-keyboard-response","132","448314","0.0-11.0-0.14","w27wN2oJZF","6108f7876d88d5079619afca","6617fad957f7c6a12ea16e26","6622cda1b0961b742ba67acf","fixation cross","null","","","","","","","","","","","",""
"","944","html-keyboard-response","133","449259","0.0-11.0-1.14","w27wN2oJZF","6108f7876d88d5079619afca","6617fad957f7c6a12ea16e26","6622cda1b0961b742ba67acf","image grid","q","","","","","Phylogenetic_Distractor_Threat_target","2500","ongrid","q","9","Phylogenetic","true","experimental"
"","null","html-keyboard-response","134","449426","0.0-11.0-2.14","w27wN2oJZF","6108f7876d88d5079619afca","6617fad957f7c6a12ea16e26","6622cda1b0961b742ba67acf","
    <div id=""grid-container"">
        <!-- Grid items will be dynamically added here -->
    </div>    ","null","","","","","","","","","","","",""
"","null","html-keyboard-response","135","450152","0.0-11.0-0.15","w27wN2oJZF","6108f7876d88d5079619afca","6617fad957f7c6a12ea16e26","6622cda1b0961b742ba67acf","fixation cross","null","","","","","","","","","","","",""
"","736","html-keyboard-response","136","450888","0.0-11.0-1.15","w27wN2oJZF","6108f7876d88d5079619afca","6617fad957f7c6a12ea16e26","6622cda1b0961b742ba67acf","image grid","q","","","","","Phylogenetic_Distractor_Threat_target","2500","ongrid","q","6","Phylogenetic","true","experimental"
"","null","html-keyboard-response","137","451040","0.0-11.0-2.15","w27wN2oJZF","6108f7876d88d5079619afca","6617fad957f7c6a12ea16e26","6622cda1b0961b742ba67acf","
    <div id=""grid-container"">
        <!-- Grid items will be dynamically added here -->
    </div>    ","null","","","","","","","","","","","",""
"","null","html-keyboard-response","138","451765","0.0-11.0-0.16","w27wN2oJZF","6108f7876d88d5079619afca","6617fad957f7c6a12ea16e26","6622cda1b0961b742ba67acf","fixation cross","null","","","","","","","","","","","",""
"","763","html-keyboard-response","139","452529","0.0-11.0-1.16","w27wN2oJZF","6108f7876d88d5079619afca","6617fad957f7c6a12ea16e26","6622cda1b0961b742ba67acf","image grid","q","","","","","Phylogenetic_Distractor_Threat_target","2500","ongrid","q","9","Phylogenetic","true","experimental"
"","null","html-keyboard-response","140","452687","0.0-11.0-2.16","w27wN2oJZF","6108f7876d88d5079619afca","6617fad957f7c6a12ea16e26","6622cda1b0961b742ba67acf","
    <div id=""grid-container"">
        <!-- Grid items will be dynamically added here -->
    </div>    ","null","","","","","","","","","","","",""
"","null","html-keyboard-response","141","453403","0.0-11.0-0.17","w27wN2oJZF","6108f7876d88d5079619afca","6617fad957f7c6a12ea16e26","6622cda1b0961b742ba67acf","fixation cross","null","","","","","","","","","","","",""
"","735","html-keyboard-response","142","454139","0.0-11.0-1.17","w27wN2oJZF","6108f7876d88d5079619afca","6617fad957f7c6a12ea16e26","6622cda1b0961b742ba67acf","image grid","p","","","","","Phylogenetic_Distractor_Nonthreat_target","2500","ongrid","p","9","Phylogenetic","true","experimental"
"","null","html-keyboard-response","143","454299","0.0-11.0-2.17","w27wN2oJZF","6108f7876d88d5079619afca","6617fad957f7c6a12ea16e26","6622cda1b0961b742ba67acf","
    <div id=""grid-container"">
        <!-- Grid items will be dynamically added here -->
    </div>    ","null","","","","","","","","","","","",""
"","null","html-keyboard-response","144","455003","0.0-11.0-0.18","w27wN2oJZF","6108f7876d88d5079619afca","6617fad957f7c6a12ea16e26","6622cda1b0961b742ba67acf","fixation cross","null","","","","","","","","","","","",""
"","1704","html-keyboard-response","145","456707","0.0-11.0-1.18","w27wN2oJZF","6108f7876d88d5079619afca","6617fad957f7c6a12ea16e26","6622cda1b0961b742ba67acf","image grid"," ","","","","","Phylogenetic_Distractor_notarget","2500","ongrid"," ","6","Phylogenetic","true","experimental"
"","null","html-keyboard-response","146","456860","0.0-11.0-2.18","w27wN2oJZF","6108f7876d88d5079619afca","6617fad957f7c6a12ea16e26","6622cda1b0961b742ba67acf","
    <div id=""grid-container"">
        <!-- Grid items will be dynamically added here -->
    </div>    ","null","","","","","","","","","","","",""
"","null","html-keyboard-response","147","457574","0.0-11.0-0.19","w27wN2oJZF","6108f7876d88d5079619afca","6617fad957f7c6a12ea16e26","6622cda1b0961b742ba67acf","fixation cross","null","","","","","","","","","","","",""
"","1909","html-keyboard-response","148","459484","0.0-11.0-1.19","w27wN2oJZF","6108f7876d88d5079619afca","6617fad957f7c6a12ea16e26","6622cda1b0961b742ba67acf","image grid","q","","","","","Phylogenetic_Distractor_Nonthreat_target","2500","ongrid","p","3","Phylogenetic","false","experimental"
"","null","html-keyboard-response","149","459636","0.0-11.0-2.19","w27wN2oJZF","6108f7876d88d5079619afca","6617fad957f7c6a12ea16e26","6622cda1b0961b742ba67acf","
    <div id=""grid-container"">
        <!-- Grid items will be dynamically added here -->
    </div>    ","null","","","","","","","","","","","",""
"","null","html-keyboard-response","150","460346","0.0-11.0-0.20","w27wN2oJZF","6108f7876d88d5079619afca","6617fad957f7c6a12ea16e26","6622cda1b0961b742ba67acf","fixation cross","null","","","","","","","","","","","",""
"","1430","html-keyboard-response","151","461776","0.0-11.0-1.20","w27wN2oJZF","6108f7876d88d5079619afca","6617fad957f7c6a12ea16e26","6622cda1b0961b742ba67acf","image grid","p","","","","","Phylogenetic_Distractor_Nonthreat_target","2500","ongrid","p","2","Phylogenetic","true","experimental"
"","null","html-keyboard-response","152","461941","0.0-11.0-2.20","w27wN2oJZF","6108f7876d88d5079619afca","6617fad957f7c6a12ea16e26","6622cda1b0961b742ba67acf","
    <div id=""grid-container"">
        <!-- Grid items will be dynamically added here -->
    </div>    ","null","","","","","","","","","","","",""
"","null","html-keyboard-response","153","462673","0.0-11.0-0.21","w27wN2oJZF","6108f7876d88d5079619afca","6617fad957f7c6a12ea16e26","6622cda1b0961b742ba67acf","fixation cross","null","","","","","","","","","","","",""
"","1027","html-keyboard-response","154","463700","0.0-11.0-1.21","w27wN2oJZF","6108f7876d88d5079619afca","6617fad957f7c6a12ea16e26","6622cda1b0961b742ba67acf","image grid","p","","","","","Phylogenetic_Distractor_Nonthreat_target","2500","ongrid","p","1","Phylogenetic","true","experimental"
"","null","html-keyboard-response","155","463852","0.0-11.0-2.21","w27wN2oJZF","6108f7876d88d5079619afca","6617fad957f7c6a12ea16e26","6622cda1b0961b742ba67acf","
    <div id=""grid-container"">
        <!-- Grid items will be dynamically added here -->
    </div>    ","null","","","","","","","","","","","",""
"","null","html-keyboard-response","156","464578","0.0-11.0-0.22","w27wN2oJZF","6108f7876d88d5079619afca","6617fad957f7c6a12ea16e26","6622cda1b0961b742ba67acf","fixation cross","null","","","","","","","","","","","",""
"","1813","html-keyboard-response","157","466391","0.0-11.0-1.22","w27wN2oJZF","6108f7876d88d5079619afca","6617fad957f7c6a12ea16e26","6622cda1b0961b742ba67acf","image grid","q","","","","","Phylogenetic_Distractor_Threat_target","2500","ongrid","q","8","Phylogenetic","true","experimental"
"","null","html-keyboard-response","158","466563","0.0-11.0-2.22","w27wN2oJZF","6108f7876d88d5079619afca","6617fad957f7c6a12ea16e26","6622cda1b0961b742ba67acf","
    <div id=""grid-container"">
        <!-- Grid items will be dynamically added here -->
    </div>    ","null","","","","","","","","","","","",""
"","null","html-keyboard-response","159","467289","0.0-11.0-0.23","w27wN2oJZF","6108f7876d88d5079619afca","6617fad957f7c6a12ea16e26","6622cda1b0961b742ba67acf","fixation cross","null","","","","","","","","","","","",""
"","796","html-keyboard-response","160","468086","0.0-11.0-1.23","w27wN2oJZF","6108f7876d88d5079619afca","6617fad957f7c6a12ea16e26","6622cda1b0961b742ba67acf","image grid","q","","","","","Phylogenetic_Distractor_Threat_target","2500","ongrid","q","2","Phylogenetic","true","experimental"
"","null","html-keyboard-response","161","468253","0.0-11.0-2.23","w27wN2oJZF","6108f7876d88d5079619afca","6617fad957f7c6a12ea16e26","6622cda1b0961b742ba67acf","
    <div id=""grid-container"">
        <!-- Grid items will be dynamically added here -->
    </div>    ","null","","","","","","","","","","","",""
"","null","html-keyboard-response","162","468968","0.0-11.0-0.24","w27wN2oJZF","6108f7876d88d5079619afca","6617fad957f7c6a12ea16e26","6622cda1b0961b742ba67acf","fixation cross","null","","","","","","","","","","","",""
"","723","html-keyboard-response","163","469691","0.0-11.0-1.24","w27wN2oJZF","6108f7876d88d5079619afca","6617fad957f7c6a12ea16e26","6622cda1b0961b742ba67acf","image grid","q","","","","","Phylogenetic_Distractor_Threat_target","2500","ongrid","q","6","Phylogenetic","true","experimental"
"","null","html-keyboard-response","164","469844","0.0-11.0-2.24","w27wN2oJZF","6108f7876d88d5079619afca","6617fad957f7c6a12ea16e26","6622cda1b0961b742ba67acf","
    <div id=""grid-container"">
        <!-- Grid items will be dynamically added here -->
    </div>    ","null","","","","","","","","","","","",""
"","null","html-keyboard-response","165","470550","0.0-11.0-0.25","w27wN2oJZF","6108f7876d88d5079619afca","6617fad957f7c6a12ea16e26","6622cda1b0961b742ba67acf","fixation cross","null","","","","","","","","","","","",""
"","1225","html-keyboard-response","166","471777","0.0-11.0-1.25","w27wN2oJZF","6108f7876d88d5079619afca","6617fad957f7c6a12ea16e26","6622cda1b0961b742ba67acf","image grid","p","","","","","Phylogenetic_Distractor_Nonthreat_target","2500","ongrid","p","5","Phylogenetic","true","experimental"
"","null","html-keyboard-response","167","471929","0.0-11.0-2.25","w27wN2oJZF","6108f7876d88d5079619afca","6617fad957f7c6a12ea16e26","6622cda1b0961b742ba67acf","
    <div id=""grid-container"">
        <!-- Grid items will be dynamically added here -->
    </div>    ","null","","","","","","","","","","","",""
"","null","html-keyboard-response","168","472641","0.0-11.0-0.26","w27wN2oJZF","6108f7876d88d5079619afca","6617fad957f7c6a12ea16e26","6622cda1b0961b742ba67acf","fixation cross","null","","","","","","","","","","","",""
"","1017","html-keyboard-response","169","473658","0.0-11.0-1.26","w27wN2oJZF","6108f7876d88d5079619afca","6617fad957f7c6a12ea16e26","6622cda1b0961b742ba67acf","image grid","p","","","","","Phylogenetic_Distractor_Nonthreat_target","2500","ongrid","p","2","Phylogenetic","true","experimental"
"","null","html-keyboard-response","170","473811","0.0-11.0-2.26","w27wN2oJZF","6108f7876d88d5079619afca","6617fad957f7c6a12ea16e26","6622cda1b0961b742ba67acf","
    <div id=""grid-container"">
        <!-- Grid items will be dynamically added here -->
    </div>    ","null","","","","","","","","","","","",""
"","null","html-keyboard-response","171","474525","0.0-11.0-0.27","w27wN2oJZF","6108f7876d88d5079619afca","6617fad957f7c6a12ea16e26","6622cda1b0961b742ba67acf","fixation cross","null","","","","","","","","","","","",""
"","1713","html-keyboard-response","172","476238","0.0-11.0-1.27","w27wN2oJZF","6108f7876d88d5079619afca","6617fad957f7c6a12ea16e26","6622cda1b0961b742ba67acf","image grid"," ","","","","","Phylogenetic_Distractor_notarget","2500","ongrid"," ","4","Phylogenetic","true","experimental"
"","null","html-keyboard-response","173","476394","0.0-11.0-2.27","w27wN2oJZF","6108f7876d88d5079619afca","6617fad957f7c6a12ea16e26","6622cda1b0961b742ba67acf","
    <div id=""grid-container"">
        <!-- Grid items will be dynamically added here -->
    </div>    ","null","","","","","","","","","","","",""
"","null","html-keyboard-response","174","477125","0.0-11.0-0.28","w27wN2oJZF","6108f7876d88d5079619afca","6617fad957f7c6a12ea16e26","6622cda1b0961b742ba67acf","fixation cross","null","","","","","","","","","","","",""
"","924","html-keyboard-response","175","478050","0.0-11.0-1.28","w27wN2oJZF","6108f7876d88d5079619afca","6617fad957f7c6a12ea16e26","6622cda1b0961b742ba67acf","image grid","p","","","","","Phylogenetic_Distractor_Nonthreat_target","2500","ongrid","p","6","Phylogenetic","true","experimental"
"","null","html-keyboard-response","176","478213","0.0-11.0-2.28","w27wN2oJZF","6108f7876d88d5079619afca","6617fad957f7c6a12ea16e26","6622cda1b0961b742ba67acf","
    <div id=""grid-container"">
        <!-- Grid items will be dynamically added here -->
    </div>    ","null","","","","","","","","","","","",""
"","null","html-keyboard-response","177","478939","0.0-11.0-0.29","w27wN2oJZF","6108f7876d88d5079619afca","6617fad957f7c6a12ea16e26","6622cda1b0961b742ba67acf","fixation cross","null","","","","","","","","","","","",""
"","1098","html-keyboard-response","178","480037","0.0-11.0-1.29","w27wN2oJZF","6108f7876d88d5079619afca","6617fad957f7c6a12ea16e26","6622cda1b0961b742ba67acf","image grid","p","","","","","Phylogenetic_Distractor_Nonthreat_target","2500","ongrid","p","5","Phylogenetic","true","experimental"
"","null","html-keyboard-response","179","480194","0.0-11.0-2.29","w27wN2oJZF","6108f7876d88d5079619afca","6617fad957f7c6a12ea16e26","6622cda1b0961b742ba67acf","
    <div id=""grid-container"">
        <!-- Grid items will be dynamically added here -->
    </div>    ","null","","","","","","","","","","","",""
"","null","html-keyboard-response","180","480913","0.0-11.0-0.30","w27wN2oJZF","6108f7876d88d5079619afca","6617fad957f7c6a12ea16e26","6622cda1b0961b742ba67acf","fixation cross","null","","","","","","","","","","","",""
"","1788","html-keyboard-response","181","482701","0.0-11.0-1.30","w27wN2oJZF","6108f7876d88d5079619afca","6617fad957f7c6a12ea16e26","6622cda1b0961b742ba67acf","image grid","p","","","","","Phylogenetic_Distractor_Nonthreat_target","2500","ongrid","p","7","Phylogenetic","true","experimental"
"","null","html-keyboard-response","182","482861","0.0-11.0-2.30","w27wN2oJZF","6108f7876d88d5079619afca","6617fad957f7c6a12ea16e26","6622cda1b0961b742ba67acf","
    <div id=""grid-container"">
        <!-- Grid items will be dynamically added here -->
    </div>    ","null","","","","","","","","","","","",""
"","null","html-keyboard-response","183","483586","0.0-11.0-0.31","w27wN2oJZF","6108f7876d88d5079619afca","6617fad957f7c6a12ea16e26","6622cda1b0961b742ba67acf","fixation cross","null","","","","","","","","","","","",""
"","967","html-keyboard-response","184","484554","0.0-11.0-1.31","w27wN2oJZF","6108f7876d88d5079619afca","6617fad957f7c6a12ea16e26","6622cda1b0961b742ba67acf","image grid","q","","","","","Phylogenetic_Distractor_Threat_target","2500","ongrid","q","2","Phylogenetic","true","experimental"
"","null","html-keyboard-response","185","484708","0.0-11.0-2.31","w27wN2oJZF","6108f7876d88d5079619afca","6617fad957f7c6a12ea16e26","6622cda1b0961b742ba67acf","
    <div id=""grid-container"">
        <!-- Grid items will be dynamically added here -->
    </div>    ","null","","","","","","","","","","","",""
"","null","html-keyboard-response","186","485436","0.0-11.0-0.32","w27wN2oJZF","6108f7876d88d5079619afca","6617fad957f7c6a12ea16e26","6622cda1b0961b742ba67acf","fixation cross","null","","","","","","","","","","","",""
"","1508","html-keyboard-response","187","486945","0.0-11.0-1.32","w27wN2oJZF","6108f7876d88d5079619afca","6617fad957f7c6a12ea16e26","6622cda1b0961b742ba67acf","image grid","p","","","","","Phylogenetic_Distractor_Nonthreat_target","2500","ongrid","p","1","Phylogenetic","true","experimental"
"","null","html-keyboard-response","188","487110","0.0-11.0-2.32","w27wN2oJZF","6108f7876d88d5079619afca","6617fad957f7c6a12ea16e26","6622cda1b0961b742ba67acf","
    <div id=""grid-container"">
        <!-- Grid items will be dynamically added here -->
    </div>    ","null","","","","","","","","","","","",""
"","null","html-keyboard-response","189","487838","0.0-11.0-0.33","w27wN2oJZF","6108f7876d88d5079619afca","6617fad957f7c6a12ea16e26","6622cda1b0961b742ba67acf","fixation cross","null","","","","","","","","","","","",""
"","1216","html-keyboard-response","190","489055","0.0-11.0-1.33","w27wN2oJZF","6108f7876d88d5079619afca","6617fad957f7c6a12ea16e26","6622cda1b0961b742ba67acf","image grid"," ","","","","","Phylogenetic_Distractor_Nonthreat_target","2500","ongrid","p","4","Phylogenetic","false","experimental"
"","null","html-keyboard-response","191","489211","0.0-11.0-2.33","w27wN2oJZF","6108f7876d88d5079619afca","6617fad957f7c6a12ea16e26","6622cda1b0961b742ba67acf","
    <div id=""grid-container"">
        <!-- Grid items will be dynamically added here -->
    </div>    ","null","","","","","","","","","","","",""
"","null","html-keyboard-response","192","489929","0.0-11.0-0.34","w27wN2oJZF","6108f7876d88d5079619afca","6617fad957f7c6a12ea16e26","6622cda1b0961b742ba67acf","fixation cross","null","","","","","","","","","","","",""
"","null","html-keyboard-response","193","492431","0.0-11.0-1.34","w27wN2oJZF","6108f7876d88d5079619afca","6617fad957f7c6a12ea16e26","6622cda1b0961b742ba67acf","
        <div id=""grid-container"">
        <!-- Grid items will be dynamically added here -->
    </div>    ","null","","","","","","","","","","","",""
"","2500","html-keyboard-response","194","497448","0.0-11.0-2.34","w27wN2oJZF","6108f7876d88d5079619afca","6617fad957f7c6a12ea16e26","6622cda1b0961b742ba67acf","mask grid","null","","","","","Phylogenetic_Distractor_Nonthreat_target","2500","onmask","p","2","Phylogenetic","false","experimental"
"","null","html-keyboard-response","195","498183","0.0-11.0-0.35","w27wN2oJZF","6108f7876d88d5079619afca","6617fad957f7c6a12ea16e26","6622cda1b0961b742ba67acf","fixation cross","null","","","","","","","","","","","",""
"","2240","html-keyboard-response","196","500424","0.0-11.0-1.35","w27wN2oJZF","6108f7876d88d5079619afca","6617fad957f7c6a12ea16e26","6622cda1b0961b742ba67acf","image grid"," ","","","","","Phylogenetic_Distractor_notarget","2500","ongrid"," ","8","Phylogenetic","true","experimental"
"","null","html-keyboard-response","197","500586","0.0-11.0-2.35","w27wN2oJZF","6108f7876d88d5079619afca","6617fad957f7c6a12ea16e26","6622cda1b0961b742ba67acf","
    <div id=""grid-container"">
        <!-- Grid items will be dynamically added here -->
    </div>    ","null","","","","","","","","","","","",""
"","null","html-keyboard-response","198","501320","0.0-11.0-0.36","w27wN2oJZF","6108f7876d88d5079619afca","6617fad957f7c6a12ea16e26","6622cda1b0961b742ba67acf","fixation cross","null","","","","","","","","","","","",""
"","2075","html-keyboard-response","199","503396","0.0-11.0-1.36","w27wN2oJZF","6108f7876d88d5079619afca","6617fad957f7c6a12ea16e26","6622cda1b0961b742ba67acf","image grid","q","","","","","Phylogenetic_Distractor_Threat_target","2500","ongrid","q","5","Phylogenetic","true","experimental"
"","null","html-keyboard-response","200","503562","0.0-11.0-2.36","w27wN2oJZF","6108f7876d88d5079619afca","6617fad957f7c6a12ea16e26","6622cda1b0961b742ba67acf","
    <div id=""grid-container"">
        <!-- Grid items will be dynamically added here -->
    </div>    ","null","","","","","","","","","","","",""
"","null","html-keyboard-response","201","504272","0.0-11.0-0.37","w27wN2oJZF","6108f7876d88d5079619afca","6617fad957f7c6a12ea16e26","6622cda1b0961b742ba67acf","fixation cross","null","","","","","","","","","","","",""
"","798","html-keyboard-response","202","505072","0.0-11.0-1.37","w27wN2oJZF","6108f7876d88d5079619afca","6617fad957f7c6a12ea16e26","6622cda1b0961b742ba67acf","image grid","p","","","","","Phylogenetic_Distractor_Nonthreat_target","2500","ongrid","p","5","Phylogenetic","true","experimental"
"","null","html-keyboard-response","203","505226","0.0-11.0-2.37","w27wN2oJZF","6108f7876d88d5079619afca","6617fad957f7c6a12ea16e26","6622cda1b0961b742ba67acf","
    <div id=""grid-container"">
        <!-- Grid items will be dynamically added here -->
    </div>    ","null","","","","","","","","","","","",""
"","null","html-keyboard-response","204","505953","0.0-11.0-0.38","w27wN2oJZF","6108f7876d88d5079619afca","6617fad957f7c6a12ea16e26","6622cda1b0961b742ba67acf","fixation cross","null","","","","","","","","","","","",""
"","null","html-keyboard-response","205","508462","0.0-11.0-1.38","w27wN2oJZF","6108f7876d88d5079619afca","6617fad957f7c6a12ea16e26","6622cda1b0961b742ba67acf","
        <div id=""grid-container"">
        <!-- Grid items will be dynamically added here -->
    </div>    ","null","","","","","","","","","","","",""
"","2500","html-keyboard-response","206","513475","0.0-11.0-2.38","w27wN2oJZF","6108f7876d88d5079619afca","6617fad957f7c6a12ea16e26","6622cda1b0961b742ba67acf","mask grid","null","","","","","Phylogenetic_Distractor_Nonthreat_target","2500","onmask","p","7","Phylogenetic","false","experimental"
"","null","html-keyboard-response","207","514182","0.0-11.0-0.39","w27wN2oJZF","6108f7876d88d5079619afca","6617fad957f7c6a12ea16e26","6622cda1b0961b742ba67acf","fixation cross","null","","","","","","","","","","","",""
"","985","html-keyboard-response","208","515168","0.0-11.0-1.39","w27wN2oJZF","6108f7876d88d5079619afca","6617fad957f7c6a12ea16e26","6622cda1b0961b742ba67acf","image grid","p","","","","","Phylogenetic_Distractor_Nonthreat_target","2500","ongrid","p","3","Phylogenetic","true","experimental"
"","null","html-keyboard-response","209","515333","0.0-11.0-2.39","w27wN2oJZF","6108f7876d88d5079619afca","6617fad957f7c6a12ea16e26","6622cda1b0961b742ba67acf","
    <div id=""grid-container"">
        <!-- Grid items will be dynamically added here -->
    </div>    ","null","","","","","","","","","","","",""
"","175756","html-keyboard-response","210","691324","0.0-12.0","w27wN2oJZF","6108f7876d88d5079619afca","6617fad957f7c6a12ea16e26","6622cda1b0961b742ba67acf","break screen"," ","","","","","","","","","","","",""
"","null","html-keyboard-response","211","693876","0.0-13.0-0.0","w27wN2oJZF","6108f7876d88d5079619afca","6617fad957f7c6a12ea16e26","6622cda1b0961b742ba67acf","fixation cross","null","","","","","","","","","","","",""
"","1514","html-keyboard-response","212","695390","0.0-13.0-1.0","w27wN2oJZF","6108f7876d88d5079619afca","6617fad957f7c6a12ea16e26","6622cda1b0961b742ba67acf","image grid","p","","","","","Ontogenetic_Distractor_Nonthreat_target","2500","ongrid","p","7","Ontogenetic","true","experimental"
"","null","html-keyboard-response","213","695556","0.0-13.0-2.0","w27wN2oJZF","6108f7876d88d5079619afca","6617fad957f7c6a12ea16e26","6622cda1b0961b742ba67acf","
    <div id=""grid-container"">
        <!-- Grid items will be dynamically added here -->
    </div>    ","null","","","","","","","","","","","",""
"","null","html-keyboard-response","214","696272","0.0-13.0-0.1","w27wN2oJZF","6108f7876d88d5079619afca","6617fad957f7c6a12ea16e26","6622cda1b0961b742ba67acf","fixation cross","null","","","","","","","","","","","",""
"","1382","html-keyboard-response","215","697655","0.0-13.0-1.1","w27wN2oJZF","6108f7876d88d5079619afca","6617fad957f7c6a12ea16e26","6622cda1b0961b742ba67acf","image grid"," ","","","","","Ontogenetic_Distractor_notarget","2500","ongrid"," ","5","Ontogenetic","true","experimental"
"","null","html-keyboard-response","216","697818","0.0-13.0-2.1","w27wN2oJZF","6108f7876d88d5079619afca","6617fad957f7c6a12ea16e26","6622cda1b0961b742ba67acf","
    <div id=""grid-container"">
        <!-- Grid items will be dynamically added here -->
    </div>    ","null","","","","","","","","","","","",""
"","null","html-keyboard-response","217","698539","0.0-13.0-0.2","w27wN2oJZF","6108f7876d88d5079619afca","6617fad957f7c6a12ea16e26","6622cda1b0961b742ba67acf","fixation cross","null","","","","","","","","","","","",""
"","1557","html-keyboard-response","218","700096","0.0-13.0-1.2","w27wN2oJZF","6108f7876d88d5079619afca","6617fad957f7c6a12ea16e26","6622cda1b0961b742ba67acf","image grid"," ","","","","","Ontogenetic_Distractor_notarget","2500","ongrid"," ","3","Ontogenetic","true","experimental"
"","null","html-keyboard-response","219","700261","0.0-13.0-2.2","w27wN2oJZF","6108f7876d88d5079619afca","6617fad957f7c6a12ea16e26","6622cda1b0961b742ba67acf","
    <div id=""grid-container"">
        <!-- Grid items will be dynamically added here -->
    </div>    ","null","","","","","","","","","","","",""
"","null","html-keyboard-response","220","700990","0.0-13.0-0.3","w27wN2oJZF","6108f7876d88d5079619afca","6617fad957f7c6a12ea16e26","6622cda1b0961b742ba67acf","fixation cross","null","","","","","","","","","","","",""
"","995","html-keyboard-response","221","701986","0.0-13.0-1.3","w27wN2oJZF","6108f7876d88d5079619afca","6617fad957f7c6a12ea16e26","6622cda1b0961b742ba67acf","image grid","q","","","","","Ontogenetic_Distractor_Threat_target","2500","ongrid","q","3","Ontogenetic","true","experimental"
"","null","html-keyboard-response","222","702149","0.0-13.0-2.3","w27wN2oJZF","6108f7876d88d5079619afca","6617fad957f7c6a12ea16e26","6622cda1b0961b742ba67acf","
    <div id=""grid-container"">
        <!-- Grid items will be dynamically added here -->
    </div>    ","null","","","","","","","","","","","",""
"","null","html-keyboard-response","223","702854","0.0-13.0-0.4","w27wN2oJZF","6108f7876d88d5079619afca","6617fad957f7c6a12ea16e26","6622cda1b0961b742ba67acf","fixation cross","null","","","","","","","","","","","",""
"","856","html-keyboard-response","224","703711","0.0-13.0-1.4","w27wN2oJZF","6108f7876d88d5079619afca","6617fad957f7c6a12ea16e26","6622cda1b0961b742ba67acf","image grid","p","","","","","Ontogenetic_Distractor_Nonthreat_target","2500","ongrid","p","6","Ontogenetic","true","experimental"
"","null","html-keyboard-response","225","703866","0.0-13.0-2.4","w27wN2oJZF","6108f7876d88d5079619afca","6617fad957f7c6a12ea16e26","6622cda1b0961b742ba67acf","
    <div id=""grid-container"">
        <!-- Grid items will be dynamically added here -->
    </div>    ","null","","","","","","","","","","","",""
"","null","html-keyboard-response","226","704583","0.0-13.0-0.5","w27wN2oJZF","6108f7876d88d5079619afca","6617fad957f7c6a12ea16e26","6622cda1b0961b742ba67acf","fixation cross","null","","","","","","","","","","","",""
"","790","html-keyboard-response","227","705373","0.0-13.0-1.5","w27wN2oJZF","6108f7876d88d5079619afca","6617fad957f7c6a12ea16e26","6622cda1b0961b742ba67acf","image grid","p","","","","","Ontogenetic_Distractor_Nonthreat_target","2500","ongrid","p","6","Ontogenetic","true","experimental"
"","null","html-keyboard-response","228","705526","0.0-13.0-2.5","w27wN2oJZF","6108f7876d88d5079619afca","6617fad957f7c6a12ea16e26","6622cda1b0961b742ba67acf","
    <div id=""grid-container"">
        <!-- Grid items will be dynamically added here -->
    </div>    ","null","","","","","","","","","","","",""
"","null","html-keyboard-response","229","706264","0.0-13.0-0.6","w27wN2oJZF","6108f7876d88d5079619afca","6617fad957f7c6a12ea16e26","6622cda1b0961b742ba67acf","fixation cross","null","","","","","","","","","","","",""
"","950","html-keyboard-response","230","707215","0.0-13.0-1.6","w27wN2oJZF","6108f7876d88d5079619afca","6617fad957f7c6a12ea16e26","6622cda1b0961b742ba67acf","image grid","q","","","","","Ontogenetic_Distractor_Threat_target","2500","ongrid","q","4","Ontogenetic","true","experimental"
"","null","html-keyboard-response","231","707367","0.0-13.0-2.6","w27wN2oJZF","6108f7876d88d5079619afca","6617fad957f7c6a12ea16e26","6622cda1b0961b742ba67acf","
    <div id=""grid-container"">
        <!-- Grid items will be dynamically added here -->
    </div>    ","null","","","","","","","","","","","",""
"","null","html-keyboard-response","232","708078","0.0-13.0-0.7","w27wN2oJZF","6108f7876d88d5079619afca","6617fad957f7c6a12ea16e26","6622cda1b0961b742ba67acf","fixation cross","null","","","","","","","","","","","",""
"","1524","html-keyboard-response","233","709603","0.0-13.0-1.7","w27wN2oJZF","6108f7876d88d5079619afca","6617fad957f7c6a12ea16e26","6622cda1b0961b742ba67acf","image grid","q","","","","","Ontogenetic_Distractor_Threat_target","2500","ongrid","q","8","Ontogenetic","true","experimental"
"","null","html-keyboard-response","234","709758","0.0-13.0-2.7","w27wN2oJZF","6108f7876d88d5079619afca","6617fad957f7c6a12ea16e26","6622cda1b0961b742ba67acf","
    <div id=""grid-container"">
        <!-- Grid items will be dynamically added here -->
    </div>    ","null","","","","","","","","","","","",""
"","null","html-keyboard-response","235","710476","0.0-13.0-0.8","w27wN2oJZF","6108f7876d88d5079619afca","6617fad957f7c6a12ea16e26","6622cda1b0961b742ba67acf","fixation cross","null","","","","","","","","","","","",""
"","831","html-keyboard-response","236","711307","0.0-13.0-1.8","w27wN2oJZF","6108f7876d88d5079619afca","6617fad957f7c6a12ea16e26","6622cda1b0961b742ba67acf","image grid","p","","","","","Ontogenetic_Distractor_Nonthreat_target","2500","ongrid","p","7","Ontogenetic","true","experimental"
"","null","html-keyboard-response","237","711461","0.0-13.0-2.8","w27wN2oJZF","6108f7876d88d5079619afca","6617fad957f7c6a12ea16e26","6622cda1b0961b742ba67acf","
    <div id=""grid-container"">
        <!-- Grid items will be dynamically added here -->
    </div>    ","null","","","","","","","","","","","",""
"","null","html-keyboard-response","238","712177","0.0-13.0-0.9","w27wN2oJZF","6108f7876d88d5079619afca","6617fad957f7c6a12ea16e26","6622cda1b0961b742ba67acf","fixation cross","null","","","","","","","","","","","",""
"","1089","html-keyboard-response","239","713267","0.0-13.0-1.9","w27wN2oJZF","6108f7876d88d5079619afca","6617fad957f7c6a12ea16e26","6622cda1b0961b742ba67acf","image grid","p","","","","","Ontogenetic_Distractor_Nonthreat_target","2500","ongrid","p","9","Ontogenetic","true","experimental"
"","null","html-keyboard-response","240","713433","0.0-13.0-2.9","w27wN2oJZF","6108f7876d88d5079619afca","6617fad957f7c6a12ea16e26","6622cda1b0961b742ba67acf","
    <div id=""grid-container"">
        <!-- Grid items will be dynamically added here -->
    </div>    ","null","","","","","","","","","","","",""
"","null","html-keyboard-response","241","714158","0.0-13.0-0.10","w27wN2oJZF","6108f7876d88d5079619afca","6617fad957f7c6a12ea16e26","6622cda1b0961b742ba67acf","fixation cross","null","","","","","","","","","","","",""
"","856","html-keyboard-response","242","715015","0.0-13.0-1.10","w27wN2oJZF","6108f7876d88d5079619afca","6617fad957f7c6a12ea16e26","6622cda1b0961b742ba67acf","image grid","q","","","","","Ontogenetic_Distractor_Threat_target","2500","ongrid","q","8","Ontogenetic","true","experimental"
"","null","html-keyboard-response","243","715185","0.0-13.0-2.10","w27wN2oJZF","6108f7876d88d5079619afca","6617fad957f7c6a12ea16e26","6622cda1b0961b742ba67acf","
    <div id=""grid-container"">
        <!-- Grid items will be dynamically added here -->
    </div>    ","null","","","","","","","","","","","",""
"","null","html-keyboard-response","244","715916","0.0-13.0-0.11","w27wN2oJZF","6108f7876d88d5079619afca","6617fad957f7c6a12ea16e26","6622cda1b0961b742ba67acf","fixation cross","null","","","","","","","","","","","",""
"","982","html-keyboard-response","245","716899","0.0-13.0-1.11","w27wN2oJZF","6108f7876d88d5079619afca","6617fad957f7c6a12ea16e26","6622cda1b0961b742ba67acf","image grid","p","","","","","Ontogenetic_Distractor_Nonthreat_target","2500","ongrid","p","5","Ontogenetic","true","experimental"
"","null","html-keyboard-response","246","717069","0.0-13.0-2.11","w27wN2oJZF","6108f7876d88d5079619afca","6617fad957f7c6a12ea16e26","6622cda1b0961b742ba67acf","
    <div id=""grid-container"">
        <!-- Grid items will be dynamically added here -->
    </div>    ","null","","","","","","","","","","","",""
"","null","html-keyboard-response","247","717779","0.0-13.0-0.12","w27wN2oJZF","6108f7876d88d5079619afca","6617fad957f7c6a12ea16e26","6622cda1b0961b742ba67acf","fixation cross","null","","","","","","","","","","","",""
"","996","html-keyboard-response","248","718775","0.0-13.0-1.12","w27wN2oJZF","6108f7876d88d5079619afca","6617fad957f7c6a12ea16e26","6622cda1b0961b742ba67acf","image grid","p","","","","","Ontogenetic_Distractor_Nonthreat_target","2500","ongrid","p","7","Ontogenetic","true","experimental"
"","null","html-keyboard-response","249","718934","0.0-13.0-2.12","w27wN2oJZF","6108f7876d88d5079619afca","6617fad957f7c6a12ea16e26","6622cda1b0961b742ba67acf","
    <div id=""grid-container"">
        <!-- Grid items will be dynamically added here -->
    </div>    ","null","","","","","","","","","","","",""
"","null","html-keyboard-response","250","719649","0.0-13.0-0.13","w27wN2oJZF","6108f7876d88d5079619afca","6617fad957f7c6a12ea16e26","6622cda1b0961b742ba67acf","fixation cross","null","","","","","","","","","","","",""
"","1752","html-keyboard-response","251","721401","0.0-13.0-1.13","w27wN2oJZF","6108f7876d88d5079619afca","6617fad957f7c6a12ea16e26","6622cda1b0961b742ba67acf","image grid","q","","","","","Ontogenetic_Distractor_Threat_target","2500","ongrid","q","9","Ontogenetic","true","experimental"
"","null","html-keyboard-response","252","721568","0.0-13.0-2.13","w27wN2oJZF","6108f7876d88d5079619afca","6617fad957f7c6a12ea16e26","6622cda1b0961b742ba67acf","
    <div id=""grid-container"">
        <!-- Grid items will be dynamically added here -->
    </div>    ","null","","","","","","","","","","","",""
"","null","html-keyboard-response","253","722276","0.0-13.0-0.14","w27wN2oJZF","6108f7876d88d5079619afca","6617fad957f7c6a12ea16e26","6622cda1b0961b742ba67acf","fixation cross","null","","","","","","","","","","","",""
"","1554","html-keyboard-response","254","723831","0.0-13.0-1.14","w27wN2oJZF","6108f7876d88d5079619afca","6617fad957f7c6a12ea16e26","6622cda1b0961b742ba67acf","image grid"," ","","","","","Ontogenetic_Distractor_notarget","2500","ongrid"," ","4","Ontogenetic","true","experimental"
"","null","html-keyboard-response","255","723990","0.0-13.0-2.14","w27wN2oJZF","6108f7876d88d5079619afca","6617fad957f7c6a12ea16e26","6622cda1b0961b742ba67acf","
    <div id=""grid-container"">
        <!-- Grid items will be dynamically added here -->
    </div>    ","null","","","","","","","","","","","",""
"","null","html-keyboard-response","256","724693","0.0-13.0-0.15","w27wN2oJZF","6108f7876d88d5079619afca","6617fad957f7c6a12ea16e26","6622cda1b0961b742ba67acf","fixation cross","null","","","","","","","","","","","",""
"","755","html-keyboard-response","257","725449","0.0-13.0-1.15","w27wN2oJZF","6108f7876d88d5079619afca","6617fad957f7c6a12ea16e26","6622cda1b0961b742ba67acf","image grid","q","","","","","Ontogenetic_Distractor_Threat_target","2500","ongrid","q","5","Ontogenetic","true","experimental"
"","null","html-keyboard-response","258","725608","0.0-13.0-2.15","w27wN2oJZF","6108f7876d88d5079619afca","6617fad957f7c6a12ea16e26","6622cda1b0961b742ba67acf","
    <div id=""grid-container"">
        <!-- Grid items will be dynamically added here -->
    </div>    ","null","","","","","","","","","","","",""
"","null","html-keyboard-response","259","726313","0.0-13.0-0.16","w27wN2oJZF","6108f7876d88d5079619afca","6617fad957f7c6a12ea16e26","6622cda1b0961b742ba67acf","fixation cross","null","","","","","","","","","","","",""
"","746","html-keyboard-response","260","727060","0.0-13.0-1.16","w27wN2oJZF","6108f7876d88d5079619afca","6617fad957f7c6a12ea16e26","6622cda1b0961b742ba67acf","image grid","p","","","","","Ontogenetic_Distractor_Nonthreat_target","2500","ongrid","p","4","Ontogenetic","true","experimental"
"","null","html-keyboard-response","261","727218","0.0-13.0-2.16","w27wN2oJZF","6108f7876d88d5079619afca","6617fad957f7c6a12ea16e26","6622cda1b0961b742ba67acf","
    <div id=""grid-container"">
        <!-- Grid items will be dynamically added here -->
    </div>    ","null","","","","","","","","","","","",""
"","null","html-keyboard-response","262","727933","0.0-13.0-0.17","w27wN2oJZF","6108f7876d88d5079619afca","6617fad957f7c6a12ea16e26","6622cda1b0961b742ba67acf","fixation cross","null","","","","","","","","","","","",""
"","1227","html-keyboard-response","263","729164","0.0-13.0-1.17","w27wN2oJZF","6108f7876d88d5079619afca","6617fad957f7c6a12ea16e26","6622cda1b0961b742ba67acf","image grid","p","","","","","Ontogenetic_Distractor_Nonthreat_target","2500","ongrid","p","3","Ontogenetic","true","experimental"
"","null","html-keyboard-response","264","729326","0.0-13.0-2.17","w27wN2oJZF","6108f7876d88d5079619afca","6617fad957f7c6a12ea16e26","6622cda1b0961b742ba67acf","
    <div id=""grid-container"">
        <!-- Grid items will be dynamically added here -->
    </div>    ","null","","","","","","","","","","","",""
"","null","html-keyboard-response","265","730051","0.0-13.0-0.18","w27wN2oJZF","6108f7876d88d5079619afca","6617fad957f7c6a12ea16e26","6622cda1b0961b742ba67acf","fixation cross","null","","","","","","","","","","","",""
"","1467","html-keyboard-response","266","731519","0.0-13.0-1.18","w27wN2oJZF","6108f7876d88d5079619afca","6617fad957f7c6a12ea16e26","6622cda1b0961b742ba67acf","image grid","q","","","","","Ontogenetic_Distractor_Threat_target","2500","ongrid","q","7","Ontogenetic","true","experimental"
"","null","html-keyboard-response","267","731685","0.0-13.0-2.18","w27wN2oJZF","6108f7876d88d5079619afca","6617fad957f7c6a12ea16e26","6622cda1b0961b742ba67acf","
    <div id=""grid-container"">
        <!-- Grid items will be dynamically added here -->
    </div>    ","null","","","","","","","","","","","",""
"","null","html-keyboard-response","268","732402","0.0-13.0-0.19","w27wN2oJZF","6108f7876d88d5079619afca","6617fad957f7c6a12ea16e26","6622cda1b0961b742ba67acf","fixation cross","null","","","","","","","","","","","",""
"","755","html-keyboard-response","269","733157","0.0-13.0-1.19","w27wN2oJZF","6108f7876d88d5079619afca","6617fad957f7c6a12ea16e26","6622cda1b0961b742ba67acf","image grid","q","","","","","Ontogenetic_Distractor_Threat_target","2500","ongrid","q","6","Ontogenetic","true","experimental"
"","null","html-keyboard-response","270","733320","0.0-13.0-2.19","w27wN2oJZF","6108f7876d88d5079619afca","6617fad957f7c6a12ea16e26","6622cda1b0961b742ba67acf","
    <div id=""grid-container"">
        <!-- Grid items will be dynamically added here -->
    </div>    ","null","","","","","","","","","","","",""
"","null","html-keyboard-response","271","734026","0.0-13.0-0.20","w27wN2oJZF","6108f7876d88d5079619afca","6617fad957f7c6a12ea16e26","6622cda1b0961b742ba67acf","fixation cross","null","","","","","","","","","","","",""
"","1073","html-keyboard-response","272","735100","0.0-13.0-1.20","w27wN2oJZF","6108f7876d88d5079619afca","6617fad957f7c6a12ea16e26","6622cda1b0961b742ba67acf","image grid","q","","","","","Ontogenetic_Distractor_Threat_target","2500","ongrid","q","2","Ontogenetic","true","experimental"
"","null","html-keyboard-response","273","735259","0.0-13.0-2.20","w27wN2oJZF","6108f7876d88d5079619afca","6617fad957f7c6a12ea16e26","6622cda1b0961b742ba67acf","
    <div id=""grid-container"">
        <!-- Grid items will be dynamically added here -->
    </div>    ","null","","","","","","","","","","","",""
"","null","html-keyboard-response","274","735976","0.0-13.0-0.21","w27wN2oJZF","6108f7876d88d5079619afca","6617fad957f7c6a12ea16e26","6622cda1b0961b742ba67acf","fixation cross","null","","","","","","","","","","","",""
"","1559","html-keyboard-response","275","737537","0.0-13.0-1.21","w27wN2oJZF","6108f7876d88d5079619afca","6617fad957f7c6a12ea16e26","6622cda1b0961b742ba67acf","image grid","p","","","","","Ontogenetic_Distractor_Nonthreat_target","2500","ongrid","p","9","Ontogenetic","true","experimental"
"","null","html-keyboard-response","276","737703","0.0-13.0-2.21","w27wN2oJZF","6108f7876d88d5079619afca","6617fad957f7c6a12ea16e26","6622cda1b0961b742ba67acf","
    <div id=""grid-container"">
        <!-- Grid items will be dynamically added here -->
    </div>    ","null","","","","","","","","","","","",""
"","null","html-keyboard-response","277","738411","0.0-13.0-0.22","w27wN2oJZF","6108f7876d88d5079619afca","6617fad957f7c6a12ea16e26","6622cda1b0961b742ba67acf","fixation cross","null","","","","","","","","","","","",""
"","1901","html-keyboard-response","278","740313","0.0-13.0-1.22","w27wN2oJZF","6108f7876d88d5079619afca","6617fad957f7c6a12ea16e26","6622cda1b0961b742ba67acf","image grid","p","","","","","Ontogenetic_Distractor_Nonthreat_target","2500","ongrid","p","2","Ontogenetic","true","experimental"
"","null","html-keyboard-response","279","740470","0.0-13.0-2.22","w27wN2oJZF","6108f7876d88d5079619afca","6617fad957f7c6a12ea16e26","6622cda1b0961b742ba67acf","
    <div id=""grid-container"">
        <!-- Grid items will be dynamically added here -->
    </div>    ","null","","","","","","","","","","","",""
"","null","html-keyboard-response","280","741189","0.0-13.0-0.23","w27wN2oJZF","6108f7876d88d5079619afca","6617fad957f7c6a12ea16e26","6622cda1b0961b742ba67acf","fixation cross","null","","","","","","","","","","","",""
"","1013","html-keyboard-response","281","742203","0.0-13.0-1.23","w27wN2oJZF","6108f7876d88d5079619afca","6617fad957f7c6a12ea16e26","6622cda1b0961b742ba67acf","image grid","q","","","","","Ontogenetic_Distractor_Threat_target","2500","ongrid","q","7","Ontogenetic","true","experimental"
"","null","html-keyboard-response","282","742368","0.0-13.0-2.23","w27wN2oJZF","6108f7876d88d5079619afca","6617fad957f7c6a12ea16e26","6622cda1b0961b742ba67acf","
    <div id=""grid-container"">
        <!-- Grid items will be dynamically added here -->
    </div>    ","null","","","","","","","","","","","",""
"","null","html-keyboard-response","283","743086","0.0-13.0-0.24","w27wN2oJZF","6108f7876d88d5079619afca","6617fad957f7c6a12ea16e26","6622cda1b0961b742ba67acf","fixation cross","null","","","","","","","","","","","",""
"","1255","html-keyboard-response","284","744342","0.0-13.0-1.24","w27wN2oJZF","6108f7876d88d5079619afca","6617fad957f7c6a12ea16e26","6622cda1b0961b742ba67acf","image grid","p","","","","","Ontogenetic_Distractor_Nonthreat_target","2500","ongrid","p","7","Ontogenetic","true","experimental"
"","null","html-keyboard-response","285","744511","0.0-13.0-2.24","w27wN2oJZF","6108f7876d88d5079619afca","6617fad957f7c6a12ea16e26","6622cda1b0961b742ba67acf","
    <div id=""grid-container"">
        <!-- Grid items will be dynamically added here -->
    </div>    ","null","","","","","","","","","","","",""
"","null","html-keyboard-response","286","745233","0.0-13.0-0.25","w27wN2oJZF","6108f7876d88d5079619afca","6617fad957f7c6a12ea16e26","6622cda1b0961b742ba67acf","fixation cross","null","","","","","","","","","","","",""
"","2013","html-keyboard-response","287","747246","0.0-13.0-1.25","w27wN2oJZF","6108f7876d88d5079619afca","6617fad957f7c6a12ea16e26","6622cda1b0961b742ba67acf","image grid","q","","","","","Ontogenetic_Distractor_Threat_target","2500","ongrid","q","3","Ontogenetic","true","experimental"
"","null","html-keyboard-response","288","747399","0.0-13.0-2.25","w27wN2oJZF","6108f7876d88d5079619afca","6617fad957f7c6a12ea16e26","6622cda1b0961b742ba67acf","
    <div id=""grid-container"">
        <!-- Grid items will be dynamically added here -->
    </div>    ","null","","","","","","","","","","","",""
"","null","html-keyboard-response","289","748124","0.0-13.0-0.26","w27wN2oJZF","6108f7876d88d5079619afca","6617fad957f7c6a12ea16e26","6622cda1b0961b742ba67acf","fixation cross","null","","","","","","","","","","","",""
"","795","html-keyboard-response","290","748920","0.0-13.0-1.26","w27wN2oJZF","6108f7876d88d5079619afca","6617fad957f7c6a12ea16e26","6622cda1b0961b742ba67acf","image grid","p","","","","","Ontogenetic_Distractor_Nonthreat_target","2500","ongrid","p","3","Ontogenetic","true","experimental"
"","null","html-keyboard-response","291","749075","0.0-13.0-2.26","w27wN2oJZF","6108f7876d88d5079619afca","6617fad957f7c6a12ea16e26","6622cda1b0961b742ba67acf","
    <div id=""grid-container"">
        <!-- Grid items will be dynamically added here -->
    </div>    ","null","","","","","","","","","","","",""
"","null","html-keyboard-response","292","749787","0.0-13.0-0.27","w27wN2oJZF","6108f7876d88d5079619afca","6617fad957f7c6a12ea16e26","6622cda1b0961b742ba67acf","fixation cross","null","","","","","","","","","","","",""
"","1382","html-keyboard-response","293","751170","0.0-13.0-1.27","w27wN2oJZF","6108f7876d88d5079619afca","6617fad957f7c6a12ea16e26","6622cda1b0961b742ba67acf","image grid","p","","","","","Ontogenetic_Distractor_Nonthreat_target","2500","ongrid","p","1","Ontogenetic","true","experimental"
"","null","html-keyboard-response","294","751336","0.0-13.0-2.27","w27wN2oJZF","6108f7876d88d5079619afca","6617fad957f7c6a12ea16e26","6622cda1b0961b742ba67acf","
    <div id=""grid-container"">
        <!-- Grid items will be dynamically added here -->
    </div>    ","null","","","","","","","","","","","",""
"","null","html-keyboard-response","295","752057","0.0-13.0-0.28","w27wN2oJZF","6108f7876d88d5079619afca","6617fad957f7c6a12ea16e26","6622cda1b0961b742ba67acf","fixation cross","null","","","","","","","","","","","",""
"","839","html-keyboard-response","296","752899","0.0-13.0-1.28","w27wN2oJZF","6108f7876d88d5079619afca","6617fad957f7c6a12ea16e26","6622cda1b0961b742ba67acf","image grid","q","","","","","Ontogenetic_Distractor_Threat_target","2500","ongrid","q","5","Ontogenetic","true","experimental"
"","null","html-keyboard-response","297","753054","0.0-13.0-2.28","w27wN2oJZF","6108f7876d88d5079619afca","6617fad957f7c6a12ea16e26","6622cda1b0961b742ba67acf","
    <div id=""grid-container"">
        <!-- Grid items will be dynamically added here -->
    </div>    ","null","","","","","","","","","","","",""
"","null","html-keyboard-response","298","753773","0.0-13.0-0.29","w27wN2oJZF","6108f7876d88d5079619afca","6617fad957f7c6a12ea16e26","6622cda1b0961b742ba67acf","fixation cross","null","","","","","","","","","","","",""
"","992","html-keyboard-response","299","754767","0.0-13.0-1.29","w27wN2oJZF","6108f7876d88d5079619afca","6617fad957f7c6a12ea16e26","6622cda1b0961b742ba67acf","image grid","q","","","","","Ontogenetic_Distractor_Threat_target","2500","ongrid","q","9","Ontogenetic","true","experimental"
"","null","html-keyboard-response","300","754929","0.0-13.0-2.29","w27wN2oJZF","6108f7876d88d5079619afca","6617fad957f7c6a12ea16e26","6622cda1b0961b742ba67acf","
    <div id=""grid-container"">
        <!-- Grid items will be dynamically added here -->
    </div>    ","null","","","","","","","","","","","",""
"","null","html-keyboard-response","301","755664","0.0-13.0-0.30","w27wN2oJZF","6108f7876d88d5079619afca","6617fad957f7c6a12ea16e26","6622cda1b0961b742ba67acf","fixation cross","null","","","","","","","","","","","",""
"","749","html-keyboard-response","302","756414","0.0-13.0-1.30","w27wN2oJZF","6108f7876d88d5079619afca","6617fad957f7c6a12ea16e26","6622cda1b0961b742ba67acf","image grid","p","","","","","Ontogenetic_Distractor_Nonthreat_target","2500","ongrid","p","4","Ontogenetic","true","experimental"
"","null","html-keyboard-response","303","756570","0.0-13.0-2.30","w27wN2oJZF","6108f7876d88d5079619afca","6617fad957f7c6a12ea16e26","6622cda1b0961b742ba67acf","
    <div id=""grid-container"">
        <!-- Grid items will be dynamically added here -->
    </div>    ","null","","","","","","","","","","","",""
"","null","html-keyboard-response","304","757296","0.0-13.0-0.31","w27wN2oJZF","6108f7876d88d5079619afca","6617fad957f7c6a12ea16e26","6622cda1b0961b742ba67acf","fixation cross","null","","","","","","","","","","","",""
"","1651","html-keyboard-response","305","758948","0.0-13.0-1.31","w27wN2oJZF","6108f7876d88d5079619afca","6617fad957f7c6a12ea16e26","6622cda1b0961b742ba67acf","image grid"," ","","","","","Ontogenetic_Distractor_notarget","2500","ongrid"," ","3","Ontogenetic","true","experimental"
"","null","html-keyboard-response","306","759101","0.0-13.0-2.31","w27wN2oJZF","6108f7876d88d5079619afca","6617fad957f7c6a12ea16e26","6622cda1b0961b742ba67acf","
    <div id=""grid-container"">
        <!-- Grid items will be dynamically added here -->
    </div>    ","null","","","","","","","","","","","",""
"","null","html-keyboard-response","307","759811","0.0-13.0-0.32","w27wN2oJZF","6108f7876d88d5079619afca","6617fad957f7c6a12ea16e26","6622cda1b0961b742ba67acf","fixation cross","null","","","","","","","","","","","",""
"","1963","html-keyboard-response","308","761775","0.0-13.0-1.32","w27wN2oJZF","6108f7876d88d5079619afca","6617fad957f7c6a12ea16e26","6622cda1b0961b742ba67acf","image grid","p","","","","","Ontogenetic_Distractor_Nonthreat_target","2500","ongrid","p","7","Ontogenetic","true","experimental"
"","null","html-keyboard-response","309","761940","0.0-13.0-2.32","w27wN2oJZF","6108f7876d88d5079619afca","6617fad957f7c6a12ea16e26","6622cda1b0961b742ba67acf","
    <div id=""grid-container"">
        <!-- Grid items will be dynamically added here -->
    </div>    ","null","","","","","","","","","","","",""
"","null","html-keyboard-response","310","762666","0.0-13.0-0.33","w27wN2oJZF","6108f7876d88d5079619afca","6617fad957f7c6a12ea16e26","6622cda1b0961b742ba67acf","fixation cross","null","","","","","","","","","","","",""
"","801","html-keyboard-response","311","763467","0.0-13.0-1.33","w27wN2oJZF","6108f7876d88d5079619afca","6617fad957f7c6a12ea16e26","6622cda1b0961b742ba67acf","image grid","q","","","","","Ontogenetic_Distractor_Threat_target","2500","ongrid","q","5","Ontogenetic","true","experimental"
"","null","html-keyboard-response","312","763634","0.0-13.0-2.33","w27wN2oJZF","6108f7876d88d5079619afca","6617fad957f7c6a12ea16e26","6622cda1b0961b742ba67acf","
    <div id=""grid-container"">
        <!-- Grid items will be dynamically added here -->
    </div>    ","null","","","","","","","","","","","",""
"","null","html-keyboard-response","313","764343","0.0-13.0-0.34","w27wN2oJZF","6108f7876d88d5079619afca","6617fad957f7c6a12ea16e26","6622cda1b0961b742ba67acf","fixation cross","null","","","","","","","","","","","",""
"","1231","html-keyboard-response","314","765574","0.0-13.0-1.34","w27wN2oJZF","6108f7876d88d5079619afca","6617fad957f7c6a12ea16e26","6622cda1b0961b742ba67acf","image grid","q","","","","","Ontogenetic_Distractor_Threat_target","2500","ongrid","q","7","Ontogenetic","true","experimental"
"","null","html-keyboard-response","315","765738","0.0-13.0-2.34","w27wN2oJZF","6108f7876d88d5079619afca","6617fad957f7c6a12ea16e26","6622cda1b0961b742ba67acf","
    <div id=""grid-container"">
        <!-- Grid items will be dynamically added here -->
    </div>    ","null","","","","","","","","","","","",""
"","null","html-keyboard-response","316","766465","0.0-13.0-0.35","w27wN2oJZF","6108f7876d88d5079619afca","6617fad957f7c6a12ea16e26","6622cda1b0961b742ba67acf","fixation cross","null","","","","","","","","","","","",""
"","1215","html-keyboard-response","317","767680","0.0-13.0-1.35","w27wN2oJZF","6108f7876d88d5079619afca","6617fad957f7c6a12ea16e26","6622cda1b0961b742ba67acf","image grid","q","","","","","Ontogenetic_Distractor_Threat_target","2500","ongrid","q","8","Ontogenetic","true","experimental"
"","null","html-keyboard-response","318","767841","0.0-13.0-2.35","w27wN2oJZF","6108f7876d88d5079619afca","6617fad957f7c6a12ea16e26","6622cda1b0961b742ba67acf","
    <div id=""grid-container"">
        <!-- Grid items will be dynamically added here -->
    </div>    ","null","","","","","","","","","","","",""
"","null","html-keyboard-response","319","768562","0.0-13.0-0.36","w27wN2oJZF","6108f7876d88d5079619afca","6617fad957f7c6a12ea16e26","6622cda1b0961b742ba67acf","fixation cross","null","","","","","","","","","","","",""
"","1476","html-keyboard-response","320","770039","0.0-13.0-1.36","w27wN2oJZF","6108f7876d88d5079619afca","6617fad957f7c6a12ea16e26","6622cda1b0961b742ba67acf","image grid","p","","","","","Ontogenetic_Distractor_Nonthreat_target","2500","ongrid","p","2","Ontogenetic","true","experimental"
"","null","html-keyboard-response","321","770192","0.0-13.0-2.36","w27wN2oJZF","6108f7876d88d5079619afca","6617fad957f7c6a12ea16e26","6622cda1b0961b742ba67acf","
    <div id=""grid-container"">
        <!-- Grid items will be dynamically added here -->
    </div>    ","null","","","","","","","","","","","",""
"","null","html-keyboard-response","322","770909","0.0-13.0-0.37","w27wN2oJZF","6108f7876d88d5079619afca","6617fad957f7c6a12ea16e26","6622cda1b0961b742ba67acf","fixation cross","null","","","","","","","","","","","",""
"","1250","html-keyboard-response","323","772160","0.0-13.0-1.37","w27wN2oJZF","6108f7876d88d5079619afca","6617fad957f7c6a12ea16e26","6622cda1b0961b742ba67acf","image grid","q","","","","","Ontogenetic_Distractor_Threat_target","2500","ongrid","q","7","Ontogenetic","true","experimental"
"","null","html-keyboard-response","324","772324","0.0-13.0-2.37","w27wN2oJZF","6108f7876d88d5079619afca","6617fad957f7c6a12ea16e26","6622cda1b0961b742ba67acf","
    <div id=""grid-container"">
        <!-- Grid items will be dynamically added here -->
    </div>    ","null","","","","","","","","","","","",""
"","null","html-keyboard-response","325","773045","0.0-13.0-0.38","w27wN2oJZF","6108f7876d88d5079619afca","6617fad957f7c6a12ea16e26","6622cda1b0961b742ba67acf","fixation cross","null","","","","","","","","","","","",""
"","768","html-keyboard-response","326","773814","0.0-13.0-1.38","w27wN2oJZF","6108f7876d88d5079619afca","6617fad957f7c6a12ea16e26","6622cda1b0961b742ba67acf","image grid","q","","","","","Ontogenetic_Distractor_Threat_target","2500","ongrid","q","5","Ontogenetic","true","experimental"
"","null","html-keyboard-response","327","773971","0.0-13.0-2.38","w27wN2oJZF","6108f7876d88d5079619afca","6617fad957f7c6a12ea16e26","6622cda1b0961b742ba67acf","
    <div id=""grid-container"">
        <!-- Grid items will be dynamically added here -->
    </div>    ","null","","","","","","","","","","","",""
"","null","html-keyboard-response","328","774679","0.0-13.0-0.39","w27wN2oJZF","6108f7876d88d5079619afca","6617fad957f7c6a12ea16e26","6622cda1b0961b742ba67acf","fixation cross","null","","","","","","","","","","","",""
"","1065","html-keyboard-response","329","775745","0.0-13.0-1.39","w27wN2oJZF","6108f7876d88d5079619afca","6617fad957f7c6a12ea16e26","6622cda1b0961b742ba67acf","image grid","p","","","","","Ontogenetic_Distractor_Nonthreat_target","2500","ongrid","p","8","Ontogenetic","true","experimental"
"","null","html-keyboard-response","330","775907","0.0-13.0-2.39","w27wN2oJZF","6108f7876d88d5079619afca","6617fad957f7c6a12ea16e26","6622cda1b0961b742ba67acf","
    <div id=""grid-container"">
        <!-- Grid items will be dynamically added here -->
    </div>    ","null","","","","","","","","","","","",""
"","137073","html-keyboard-response","331","913177","0.0-14.0","w27wN2oJZF","6108f7876d88d5079619afca","6617fad957f7c6a12ea16e26","6622cda1b0961b742ba67acf","break screen"," ","","","","","","","","","","","",""
"","null","html-keyboard-response","332","915689","0.0-15.0-0.0","w27wN2oJZF","6108f7876d88d5079619afca","6617fad957f7c6a12ea16e26","6622cda1b0961b742ba67acf","fixation cross","null","","","","","","","","","","","",""
"","null","html-keyboard-response","333","916502","0.0-15.0-1.0","w27wN2oJZF","6108f7876d88d5079619afca","6617fad957f7c6a12ea16e26","6622cda1b0961b742ba67acf","
        <div id=""grid-container"">
        <!-- Grid items will be dynamically added here -->
    </div>    ","null","","","","","","","","","","","",""
"","933","html-keyboard-response","334","916636","0.0-15.0-2.0","w27wN2oJZF","6108f7876d88d5079619afca","6617fad957f7c6a12ea16e26","6622cda1b0961b742ba67acf","mask grid","q","","","","","Phylogenetic_Distractor_Threat_target","800","onmask","q","8","Phylogenetic","true","experimental"
"","null","html-keyboard-response","335","917353","0.0-15.0-0.1","w27wN2oJZF","6108f7876d88d5079619afca","6617fad957f7c6a12ea16e26","6622cda1b0961b742ba67acf","fixation cross","null","","","","","","","","","","","",""
"","null","html-keyboard-response","336","918176","0.0-15.0-1.1","w27wN2oJZF","6108f7876d88d5079619afca","6617fad957f7c6a12ea16e26","6622cda1b0961b742ba67acf","
        <div id=""grid-container"">
        <!-- Grid items will be dynamically added here -->
    </div>    ","null","","","","","","","","","","","",""
"","953","html-keyboard-response","337","918330","0.0-15.0-2.1","w27wN2oJZF","6108f7876d88d5079619afca","6617fad957f7c6a12ea16e26","6622cda1b0961b742ba67acf","mask grid"," ","","","","","Phylogenetic_Distractor_notarget","800","onmask"," ","2","Phylogenetic","true","experimental"
"","null","html-keyboard-response","338","919066","0.0-15.0-0.2","w27wN2oJZF","6108f7876d88d5079619afca","6617fad957f7c6a12ea16e26","6622cda1b0961b742ba67acf","fixation cross","null","","","","","","","","","","","",""
"","654","html-keyboard-response","339","919722","0.0-15.0-1.2","w27wN2oJZF","6108f7876d88d5079619afca","6617fad957f7c6a12ea16e26","6622cda1b0961b742ba67acf","image grid","q","","","","","Phylogenetic_Distractor_Threat_target","800","ongrid","q","2","Phylogenetic","true","experimental"
"","null","html-keyboard-response","340","919889","0.0-15.0-2.2","w27wN2oJZF","6108f7876d88d5079619afca","6617fad957f7c6a12ea16e26","6622cda1b0961b742ba67acf","
    <div id=""grid-container"">
        <!-- Grid items will be dynamically added here -->
    </div>    ","null","","","","","","","","","","","",""
"","null","html-keyboard-response","341","920619","0.0-15.0-0.3","w27wN2oJZF","6108f7876d88d5079619afca","6617fad957f7c6a12ea16e26","6622cda1b0961b742ba67acf","fixation cross","null","","","","","","","","","","","",""
"","766","html-keyboard-response","342","921385","0.0-15.0-1.3","w27wN2oJZF","6108f7876d88d5079619afca","6617fad957f7c6a12ea16e26","6622cda1b0961b742ba67acf","image grid","p","","","","","Phylogenetic_Distractor_Nonthreat_target","800","ongrid","p","4","Phylogenetic","true","experimental"
"","null","html-keyboard-response","343","921548","0.0-15.0-2.3","w27wN2oJZF","6108f7876d88d5079619afca","6617fad957f7c6a12ea16e26","6622cda1b0961b742ba67acf","
    <div id=""grid-container"">
        <!-- Grid items will be dynamically added here -->
    </div>    ","null","","","","","","","","","","","",""
"","null","html-keyboard-response","344","922260","0.0-15.0-0.4","w27wN2oJZF","6108f7876d88d5079619afca","6617fad957f7c6a12ea16e26","6622cda1b0961b742ba67acf","fixation cross","null","","","","","","","","","","","",""
"","602","html-keyboard-response","345","922863","0.0-15.0-1.4","w27wN2oJZF","6108f7876d88d5079619afca","6617fad957f7c6a12ea16e26","6622cda1b0961b742ba67acf","image grid","q","","","","","Phylogenetic_Distractor_Threat_target","800","ongrid","q","3","Phylogenetic","true","experimental"
"","null","html-keyboard-response","346","923017","0.0-15.0-2.4","w27wN2oJZF","6108f7876d88d5079619afca","6617fad957f7c6a12ea16e26","6622cda1b0961b742ba67acf","
    <div id=""grid-container"">
        <!-- Grid items will be dynamically added here -->
    </div>    ","null","","","","","","","","","","","",""
"","null","html-keyboard-response","347","923731","0.0-15.0-0.5","w27wN2oJZF","6108f7876d88d5079619afca","6617fad957f7c6a12ea16e26","6622cda1b0961b742ba67acf","fixation cross","null","","","","","","","","","","","",""
"","null","html-keyboard-response","348","924536","0.0-15.0-1.5","w27wN2oJZF","6108f7876d88d5079619afca","6617fad957f7c6a12ea16e26","6622cda1b0961b742ba67acf","
        <div id=""grid-container"">
        <!-- Grid items will be dynamically added here -->
    </div>    ","null","","","","","","","","","","","",""
"","871","html-keyboard-response","349","924608","0.0-15.0-2.5","w27wN2oJZF","6108f7876d88d5079619afca","6617fad957f7c6a12ea16e26","6622cda1b0961b742ba67acf","mask grid"," ","","","","","Phylogenetic_Distractor_notarget","800","onmask"," ","6","Phylogenetic","true","experimental"
"","null","html-keyboard-response","350","925339","0.0-15.0-0.6","w27wN2oJZF","6108f7876d88d5079619afca","6617fad957f7c6a12ea16e26","6622cda1b0961b742ba67acf","fixation cross","null","","","","","","","","","","","",""
"","768","html-keyboard-response","351","926108","0.0-15.0-1.6","w27wN2oJZF","6108f7876d88d5079619afca","6617fad957f7c6a12ea16e26","6622cda1b0961b742ba67acf","image grid","p","","","","","Phylogenetic_Distractor_Nonthreat_target","800","ongrid","p","2","Phylogenetic","true","experimental"
"","null","html-keyboard-response","352","926268","0.0-15.0-2.6","w27wN2oJZF","6108f7876d88d5079619afca","6617fad957f7c6a12ea16e26","6622cda1b0961b742ba67acf","
    <div id=""grid-container"">
        <!-- Grid items will be dynamically added here -->
    </div>    ","null","","","","","","","","","","","",""
"","null","html-keyboard-response","353","926987","0.0-15.0-0.7","w27wN2oJZF","6108f7876d88d5079619afca","6617fad957f7c6a12ea16e26","6622cda1b0961b742ba67acf","fixation cross","null","","","","","","","","","","","",""
"","null","html-keyboard-response","354","927798","0.0-15.0-1.7","w27wN2oJZF","6108f7876d88d5079619afca","6617fad957f7c6a12ea16e26","6622cda1b0961b742ba67acf","
        <div id=""grid-container"">
        <!-- Grid items will be dynamically added here -->
    </div>    ","null","","","","","","","","","","","",""
"","822","html-keyboard-response","355","927820","0.0-15.0-2.7","w27wN2oJZF","6108f7876d88d5079619afca","6617fad957f7c6a12ea16e26","6622cda1b0961b742ba67acf","mask grid","q","","","","","Phylogenetic_Distractor_Nonthreat_target","800","onmask","p","7","Phylogenetic","false","experimental"
"","null","html-keyboard-response","356","928542","0.0-15.0-0.8","w27wN2oJZF","6108f7876d88d5079619afca","6617fad957f7c6a12ea16e26","6622cda1b0961b742ba67acf","fixation cross","null","","","","","","","","","","","",""
"","657","html-keyboard-response","357","929200","0.0-15.0-1.8","w27wN2oJZF","6108f7876d88d5079619afca","6617fad957f7c6a12ea16e26","6622cda1b0961b742ba67acf","image grid","p","","","","","Phylogenetic_Distractor_Nonthreat_target","800","ongrid","p","8","Phylogenetic","true","experimental"
"","null","html-keyboard-response","358","929362","0.0-15.0-2.8","w27wN2oJZF","6108f7876d88d5079619afca","6617fad957f7c6a12ea16e26","6622cda1b0961b742ba67acf","
    <div id=""grid-container"">
        <!-- Grid items will be dynamically added here -->
    </div>    ","null","","","","","","","","","","","",""
"","null","html-keyboard-response","359","930097","0.0-15.0-0.9","w27wN2oJZF","6108f7876d88d5079619afca","6617fad957f7c6a12ea16e26","6622cda1b0961b742ba67acf","fixation cross","null","","","","","","","","","","","",""
"","null","html-keyboard-response","360","930910","0.0-15.0-1.9","w27wN2oJZF","6108f7876d88d5079619afca","6617fad957f7c6a12ea16e26","6622cda1b0961b742ba67acf","
        <div id=""grid-container"">
        <!-- Grid items will be dynamically added here -->
    </div>    ","null","","","","","","","","","","","",""
"","1004","html-keyboard-response","361","931115","0.0-15.0-2.9","w27wN2oJZF","6108f7876d88d5079619afca","6617fad957f7c6a12ea16e26","6622cda1b0961b742ba67acf","mask grid","p","","","","","Phylogenetic_Distractor_Nonthreat_target","800","onmask","p","9","Phylogenetic","true","experimental"
"","null","html-keyboard-response","362","931830","0.0-15.0-0.10","w27wN2oJZF","6108f7876d88d5079619afca","6617fad957f7c6a12ea16e26","6622cda1b0961b742ba67acf","fixation cross","null","","","","","","","","","","","",""
"","565","html-keyboard-response","363","932395","0.0-15.0-1.10","w27wN2oJZF","6108f7876d88d5079619afca","6617fad957f7c6a12ea16e26","6622cda1b0961b742ba67acf","image grid","q","","","","","Phylogenetic_Distractor_Threat_target","800","ongrid","q","5","Phylogenetic","true","experimental"
"","null","html-keyboard-response","364","932551","0.0-15.0-2.10","w27wN2oJZF","6108f7876d88d5079619afca","6617fad957f7c6a12ea16e26","6622cda1b0961b742ba67acf","
    <div id=""grid-container"">
        <!-- Grid items will be dynamically added here -->
    </div>    ","null","","","","","","","","","","","",""
"","null","html-keyboard-response","365","933255","0.0-15.0-0.11","w27wN2oJZF","6108f7876d88d5079619afca","6617fad957f7c6a12ea16e26","6622cda1b0961b742ba67acf","fixation cross","null","","","","","","","","","","","",""
"","null","html-keyboard-response","366","934067","0.0-15.0-1.11","w27wN2oJZF","6108f7876d88d5079619afca","6617fad957f7c6a12ea16e26","6622cda1b0961b742ba67acf","
        <div id=""grid-container"">
        <!-- Grid items will be dynamically added here -->
    </div>    ","null","","","","","","","","","","","",""
"","1010","html-keyboard-response","367","934278","0.0-15.0-2.11","w27wN2oJZF","6108f7876d88d5079619afca","6617fad957f7c6a12ea16e26","6622cda1b0961b742ba67acf","mask grid"," ","","","","","Phylogenetic_Distractor_notarget","800","onmask"," ","2","Phylogenetic","true","experimental"
"","null","html-keyboard-response","368","934994","0.0-15.0-0.12","w27wN2oJZF","6108f7876d88d5079619afca","6617fad957f7c6a12ea16e26","6622cda1b0961b742ba67acf","fixation cross","null","","","","","","","","","","","",""
"","713","html-keyboard-response","369","935708","0.0-15.0-1.12","w27wN2oJZF","6108f7876d88d5079619afca","6617fad957f7c6a12ea16e26","6622cda1b0961b742ba67acf","image grid","p","","","","","Phylogenetic_Distractor_Nonthreat_target","800","ongrid","p","9","Phylogenetic","true","experimental"
"","null","html-keyboard-response","370","935861","0.0-15.0-2.12","w27wN2oJZF","6108f7876d88d5079619afca","6617fad957f7c6a12ea16e26","6622cda1b0961b742ba67acf","
