"success","rt","trial_type","trial_index","time_elapsed","internal_node_id","unique_identifier","subject_id","study_id","session_id","stimulus","response","timeout","failed_images","failed_audio","failed_video","task","time_manipulation","respondedwhen","correctresponse","targetimagelocation","blocktype","correct","roundtype"
"true","2228","fullscreen","0","3239","0.0-0.0","xmUQ1iLSN4","5f6388bf9ae5ad07ba1a0173","6617fad957f7c6a12ea16e26","6622cea26530d65ac59f5412","","","","","","","","","","","","","",""
"","8860","html-keyboard-response","1","12103","0.0-1.0","xmUQ1iLSN4","5f6388bf9ae5ad07ba1a0173","6617fad957f7c6a12ea16e26","6622cea26530d65ac59f5412","instruction screen 0"," ","","","","","","","","","","","",""
"true","","preload","2","13225","0.0-2.0","xmUQ1iLSN4","5f6388bf9ae5ad07ba1a0173","6617fad957f7c6a12ea16e26","6622cea26530d65ac59f5412","","","false","[]","[]","[]","","","","","","","",""
"","9764","html-keyboard-response","3","22989","0.0-3.0","xmUQ1iLSN4","5f6388bf9ae5ad07ba1a0173","6617fad957f7c6a12ea16e26","6622cea26530d65ac59f5412","instruction screen 1"," ","","","","","","","","","","","",""
"","8576","html-keyboard-response","4","31572","0.0-4.0","xmUQ1iLSN4","5f6388bf9ae5ad07ba1a0173","6617fad957f7c6a12ea16e26","6622cea26530d65ac59f5412","instruction screen 2","q","","","","","","","","","","","",""
"","6006","html-keyboard-response","5","37584","0.0-5.0","xmUQ1iLSN4","5f6388bf9ae5ad07ba1a0173","6617fad957f7c6a12ea16e26","6622cea26530d65ac59f5412","instruction screen 3","p","","","","","","","","","","","",""
"","6173","html-keyboard-response","6","43762","0.0-6.0","xmUQ1iLSN4","5f6388bf9ae5ad07ba1a0173","6617fad957f7c6a12ea16e26","6622cea26530d65ac59f5412","instruction screen 4"," ","","","","","","","","","","","",""
"","3830","html-keyboard-response","7","47597","0.0-7.0","xmUQ1iLSN4","5f6388bf9ae5ad07ba1a0173","6617fad957f7c6a12ea16e26","6622cea26530d65ac59f5412","instruction screen 5"," ","","","","","","","","","","","",""
"","null","html-keyboard-response","8","48107","0.0-8.0","xmUQ1iLSN4","5f6388bf9ae5ad07ba1a0173","6617fad957f7c6a12ea16e26","6622cea26530d65ac59f5412","fixation cross","null","","","","","","","","","","","",""
"","null","html-keyboard-response","9","48620","0.0-9.0-0.0","xmUQ1iLSN4","5f6388bf9ae5ad07ba1a0173","6617fad957f7c6a12ea16e26","6622cea26530d65ac59f5412","fixation cross","null","","","","","","","","","","","",""
"","637","html-keyboard-response","10","49258","0.0-9.0-1.0","xmUQ1iLSN4","5f6388bf9ae5ad07ba1a0173","6617fad957f7c6a12ea16e26","6622cea26530d65ac59f5412","image grid","q","","","","","Ontogenetic_Distractor_Threat_target","3000","ongrid","q","4","Phylogenetic","true","practice"
"","null","html-keyboard-response","11","49411","0.0-9.0-2.0","xmUQ1iLSN4","5f6388bf9ae5ad07ba1a0173","6617fad957f7c6a12ea16e26","6622cea26530d65ac59f5412","
    <div id=""grid-container"">
        <!-- Grid items will be dynamically added here -->
    </div>    ","null","","","","","","","","","","","",""
"","null","html-keyboard-response","12","50624","0.0-9.0-3.0","xmUQ1iLSN4","5f6388bf9ae5ad07ba1a0173","6617fad957f7c6a12ea16e26","6622cea26530d65ac59f5412","feedback screen","null","","","","","","","","","","","",""
"","null","html-keyboard-response","13","51136","0.0-9.0-0.1","xmUQ1iLSN4","5f6388bf9ae5ad07ba1a0173","6617fad957f7c6a12ea16e26","6622cea26530d65ac59f5412","fixation cross","null","","","","","","","","","","","",""
"","685","html-keyboard-response","14","51822","0.0-9.0-1.1","xmUQ1iLSN4","5f6388bf9ae5ad07ba1a0173","6617fad957f7c6a12ea16e26","6622cea26530d65ac59f5412","image grid","p","","","","","Phylogenetic_Distractor_notarget","2900","ongrid"," ","1","Phylogenetic","false","practice"
"","null","html-keyboard-response","15","51979","0.0-9.0-2.1","xmUQ1iLSN4","5f6388bf9ae5ad07ba1a0173","6617fad957f7c6a12ea16e26","6622cea26530d65ac59f5412","
    <div id=""grid-container"">
        <!-- Grid items will be dynamically added here -->
    </div>    ","null","","","","","","","","","","","",""
"","null","html-keyboard-response","16","53204","0.0-9.0-3.1","xmUQ1iLSN4","5f6388bf9ae5ad07ba1a0173","6617fad957f7c6a12ea16e26","6622cea26530d65ac59f5412","feedback screen","null","","","","","","","","","","","",""
"","null","html-keyboard-response","17","53719","0.0-9.0-0.2","xmUQ1iLSN4","5f6388bf9ae5ad07ba1a0173","6617fad957f7c6a12ea16e26","6622cea26530d65ac59f5412","fixation cross","null","","","","","","","","","","","",""
"","690","html-keyboard-response","18","54409","0.0-9.0-1.2","xmUQ1iLSN4","5f6388bf9ae5ad07ba1a0173","6617fad957f7c6a12ea16e26","6622cea26530d65ac59f5412","image grid","p","","","","","Phylogenetic_Distractor_Nonthreat_target","2800","ongrid","p","1","Phylogenetic","true","practice"
"","null","html-keyboard-response","19","54576","0.0-9.0-2.2","xmUQ1iLSN4","5f6388bf9ae5ad07ba1a0173","6617fad957f7c6a12ea16e26","6622cea26530d65ac59f5412","
    <div id=""grid-container"">
        <!-- Grid items will be dynamically added here -->
    </div>    ","null","","","","","","","","","","","",""
"","null","html-keyboard-response","20","55802","0.0-9.0-3.2","xmUQ1iLSN4","5f6388bf9ae5ad07ba1a0173","6617fad957f7c6a12ea16e26","6622cea26530d65ac59f5412","feedback screen","null","","","","","","","","","","","",""
"","null","html-keyboard-response","21","56319","0.0-9.0-0.3","xmUQ1iLSN4","5f6388bf9ae5ad07ba1a0173","6617fad957f7c6a12ea16e26","6622cea26530d65ac59f5412","fixation cross","null","","","","","","","","","","","",""
"","1208","html-keyboard-response","22","57527","0.0-9.0-1.3","xmUQ1iLSN4","5f6388bf9ae5ad07ba1a0173","6617fad957f7c6a12ea16e26","6622cea26530d65ac59f5412","image grid","p","","","","","Phylogenetic_Distractor_Nonthreat_target","2700","ongrid","p","1","Phylogenetic","true","practice"
"","null","html-keyboard-response","23","57693","0.0-9.0-2.3","xmUQ1iLSN4","5f6388bf9ae5ad07ba1a0173","6617fad957f7c6a12ea16e26","6622cea26530d65ac59f5412","
    <div id=""grid-container"">
        <!-- Grid items will be dynamically added here -->
    </div>    ","null","","","","","","","","","","","",""
"","null","html-keyboard-response","24","58904","0.0-9.0-3.3","xmUQ1iLSN4","5f6388bf9ae5ad07ba1a0173","6617fad957f7c6a12ea16e26","6622cea26530d65ac59f5412","feedback screen","null","","","","","","","","","","","",""
"","null","html-keyboard-response","25","59417","0.0-9.0-0.4","xmUQ1iLSN4","5f6388bf9ae5ad07ba1a0173","6617fad957f7c6a12ea16e26","6622cea26530d65ac59f5412","fixation cross","null","","","","","","","","","","","",""
"","953","html-keyboard-response","26","60357","0.0-9.0-1.4","xmUQ1iLSN4","5f6388bf9ae5ad07ba1a0173","6617fad957f7c6a12ea16e26","6622cea26530d65ac59f5412","image grid","p","","","","","Phylogenetic_Distractor_Nonthreat_target","2600","ongrid","p","8","Phylogenetic","true","practice"
"","null","html-keyboard-response","27","60511","0.0-9.0-2.4","xmUQ1iLSN4","5f6388bf9ae5ad07ba1a0173","6617fad957f7c6a12ea16e26","6622cea26530d65ac59f5412","
    <div id=""grid-container"">
        <!-- Grid items will be dynamically added here -->
    </div>    ","null","","","","","","","","","","","",""
"","null","html-keyboard-response","28","61738","0.0-9.0-3.4","xmUQ1iLSN4","5f6388bf9ae5ad07ba1a0173","6617fad957f7c6a12ea16e26","6622cea26530d65ac59f5412","feedback screen","null","","","","","","","","","","","",""
"","null","html-keyboard-response","29","62254","0.0-9.0-0.5","xmUQ1iLSN4","5f6388bf9ae5ad07ba1a0173","6617fad957f7c6a12ea16e26","6622cea26530d65ac59f5412","fixation cross","null","","","","","","","","","","","",""
"","1139","html-keyboard-response","30","63393","0.0-9.0-1.5","xmUQ1iLSN4","5f6388bf9ae5ad07ba1a0173","6617fad957f7c6a12ea16e26","6622cea26530d65ac59f5412","image grid","q","","","","","Phylogenetic_Distractor_Threat_target","2500","ongrid","q","6","Phylogenetic","true","practice"
"","null","html-keyboard-response","31","63545","0.0-9.0-2.5","xmUQ1iLSN4","5f6388bf9ae5ad07ba1a0173","6617fad957f7c6a12ea16e26","6622cea26530d65ac59f5412","
    <div id=""grid-container"">
        <!-- Grid items will be dynamically added here -->
    </div>    ","null","","","","","","","","","","","",""
"","null","html-keyboard-response","32","64769","0.0-9.0-3.5","xmUQ1iLSN4","5f6388bf9ae5ad07ba1a0173","6617fad957f7c6a12ea16e26","6622cea26530d65ac59f5412","feedback screen","null","","","","","","","","","","","",""
"","null","html-keyboard-response","33","65286","0.0-9.0-0.6","xmUQ1iLSN4","5f6388bf9ae5ad07ba1a0173","6617fad957f7c6a12ea16e26","6622cea26530d65ac59f5412","fixation cross","null","","","","","","","","","","","",""
"","1608","html-keyboard-response","34","66895","0.0-9.0-1.6","xmUQ1iLSN4","5f6388bf9ae5ad07ba1a0173","6617fad957f7c6a12ea16e26","6622cea26530d65ac59f5412","image grid","p","","","","","Ontogenetic_Distractor_Nonthreat_target","2400","ongrid","p","5","Phylogenetic","true","practice"
"","null","html-keyboard-response","35","67059","0.0-9.0-2.6","xmUQ1iLSN4","5f6388bf9ae5ad07ba1a0173","6617fad957f7c6a12ea16e26","6622cea26530d65ac59f5412","
    <div id=""grid-container"">
        <!-- Grid items will be dynamically added here -->
    </div>    ","null","","","","","","","","","","","",""
"","null","html-keyboard-response","36","68285","0.0-9.0-3.6","xmUQ1iLSN4","5f6388bf9ae5ad07ba1a0173","6617fad957f7c6a12ea16e26","6622cea26530d65ac59f5412","feedback screen","null","","","","","","","","","","","",""
"","null","html-keyboard-response","37","68801","0.0-9.0-0.7","xmUQ1iLSN4","5f6388bf9ae5ad07ba1a0173","6617fad957f7c6a12ea16e26","6622cea26530d65ac59f5412","fixation cross","null","","","","","","","","","","","",""
"","896","html-keyboard-response","38","69697","0.0-9.0-1.7","xmUQ1iLSN4","5f6388bf9ae5ad07ba1a0173","6617fad957f7c6a12ea16e26","6622cea26530d65ac59f5412","image grid","q","","","","","Ontogenetic_Distractor_Threat_target","2300","ongrid","q","6","Phylogenetic","true","practice"
"","null","html-keyboard-response","39","69858","0.0-9.0-2.7","xmUQ1iLSN4","5f6388bf9ae5ad07ba1a0173","6617fad957f7c6a12ea16e26","6622cea26530d65ac59f5412","
    <div id=""grid-container"">
        <!-- Grid items will be dynamically added here -->
    </div>    ","null","","","","","","","","","","","",""
"","null","html-keyboard-response","40","71086","0.0-9.0-3.7","xmUQ1iLSN4","5f6388bf9ae5ad07ba1a0173","6617fad957f7c6a12ea16e26","6622cea26530d65ac59f5412","feedback screen","null","","","","","","","","","","","",""
"","null","html-keyboard-response","41","71600","0.0-9.0-0.8","xmUQ1iLSN4","5f6388bf9ae5ad07ba1a0173","6617fad957f7c6a12ea16e26","6622cea26530d65ac59f5412","fixation cross","null","","","","","","","","","","","",""
"","1434","html-keyboard-response","42","73035","0.0-9.0-1.8","xmUQ1iLSN4","5f6388bf9ae5ad07ba1a0173","6617fad957f7c6a12ea16e26","6622cea26530d65ac59f5412","image grid","p","","","","","Phylogenetic_Distractor_Threat_target","2200","ongrid","q","2","Phylogenetic","false","practice"
"","null","html-keyboard-response","43","73191","0.0-9.0-2.8","xmUQ1iLSN4","5f6388bf9ae5ad07ba1a0173","6617fad957f7c6a12ea16e26","6622cea26530d65ac59f5412","
    <div id=""grid-container"">
        <!-- Grid items will be dynamically added here -->
    </div>    ","null","","","","","","","","","","","",""
"","null","html-keyboard-response","44","74418","0.0-9.0-3.8","xmUQ1iLSN4","5f6388bf9ae5ad07ba1a0173","6617fad957f7c6a12ea16e26","6622cea26530d65ac59f5412","feedback screen","null","","","","","","","","","","","",""
"","null","html-keyboard-response","45","74934","0.0-9.0-0.9","xmUQ1iLSN4","5f6388bf9ae5ad07ba1a0173","6617fad957f7c6a12ea16e26","6622cea26530d65ac59f5412","fixation cross","null","","","","","","","","","","","",""
"","1527","html-keyboard-response","46","76462","0.0-9.0-1.9","xmUQ1iLSN4","5f6388bf9ae5ad07ba1a0173","6617fad957f7c6a12ea16e26","6622cea26530d65ac59f5412","image grid","p","","","","","Ontogenetic_Distractor_Nonthreat_target","2100","ongrid","p","1","Phylogenetic","true","practice"
"","null","html-keyboard-response","47","76624","0.0-9.0-2.9","xmUQ1iLSN4","5f6388bf9ae5ad07ba1a0173","6617fad957f7c6a12ea16e26","6622cea26530d65ac59f5412","
    <div id=""grid-container"">
        <!-- Grid items will be dynamically added here -->
    </div>    ","null","","","","","","","","","","","",""
"","null","html-keyboard-response","48","77834","0.0-9.0-3.9","xmUQ1iLSN4","5f6388bf9ae5ad07ba1a0173","6617fad957f7c6a12ea16e26","6622cea26530d65ac59f5412","feedback screen","null","","","","","","","","","","","",""
"","null","html-keyboard-response","49","78348","0.0-9.0-0.10","xmUQ1iLSN4","5f6388bf9ae5ad07ba1a0173","6617fad957f7c6a12ea16e26","6622cea26530d65ac59f5412","fixation cross","null","","","","","","","","","","","",""
"","940","html-keyboard-response","50","79288","0.0-9.0-1.10","xmUQ1iLSN4","5f6388bf9ae5ad07ba1a0173","6617fad957f7c6a12ea16e26","6622cea26530d65ac59f5412","image grid","q","","","","","Ontogenetic_Distractor_Threat_target","2000","ongrid","q","8","Phylogenetic","true","practice"
"","null","html-keyboard-response","51","79439","0.0-9.0-2.10","xmUQ1iLSN4","5f6388bf9ae5ad07ba1a0173","6617fad957f7c6a12ea16e26","6622cea26530d65ac59f5412","
    <div id=""grid-container"">
        <!-- Grid items will be dynamically added here -->
    </div>    ","null","","","","","","","","","","","",""
"","null","html-keyboard-response","52","80667","0.0-9.0-3.10","xmUQ1iLSN4","5f6388bf9ae5ad07ba1a0173","6617fad957f7c6a12ea16e26","6622cea26530d65ac59f5412","feedback screen","null","","","","","","","","","","","",""
"","null","html-keyboard-response","53","81179","0.0-9.0-0.11","xmUQ1iLSN4","5f6388bf9ae5ad07ba1a0173","6617fad957f7c6a12ea16e26","6622cea26530d65ac59f5412","fixation cross","null","","","","","","","","","","","",""
"","1480","html-keyboard-response","54","82660","0.0-9.0-1.11","xmUQ1iLSN4","5f6388bf9ae5ad07ba1a0173","6617fad957f7c6a12ea16e26","6622cea26530d65ac59f5412","image grid","p","","","","","Phylogenetic_Distractor_notarget","1900","ongrid"," ","2","Phylogenetic","false","practice"
"","null","html-keyboard-response","55","82821","0.0-9.0-2.11","xmUQ1iLSN4","5f6388bf9ae5ad07ba1a0173","6617fad957f7c6a12ea16e26","6622cea26530d65ac59f5412","
    <div id=""grid-container"">
        <!-- Grid items will be dynamically added here -->
    </div>    ","null","","","","","","","","","","","",""
"","null","html-keyboard-response","56","84048","0.0-9.0-3.11","xmUQ1iLSN4","5f6388bf9ae5ad07ba1a0173","6617fad957f7c6a12ea16e26","6622cea26530d65ac59f5412","feedback screen","null","","","","","","","","","","","",""
"","null","html-keyboard-response","57","84562","0.0-9.0-0.12","xmUQ1iLSN4","5f6388bf9ae5ad07ba1a0173","6617fad957f7c6a12ea16e26","6622cea26530d65ac59f5412","fixation cross","null","","","","","","","","","","","",""
"","857","html-keyboard-response","58","85419","0.0-9.0-1.12","xmUQ1iLSN4","5f6388bf9ae5ad07ba1a0173","6617fad957f7c6a12ea16e26","6622cea26530d65ac59f5412","image grid","q","","","","","Phylogenetic_Distractor_Threat_target","1800","ongrid","q","5","Phylogenetic","true","practice"
"","null","html-keyboard-response","59","85572","0.0-9.0-2.12","xmUQ1iLSN4","5f6388bf9ae5ad07ba1a0173","6617fad957f7c6a12ea16e26","6622cea26530d65ac59f5412","
    <div id=""grid-container"">
        <!-- Grid items will be dynamically added here -->
    </div>    ","null","","","","","","","","","","","",""
"","null","html-keyboard-response","60","86785","0.0-9.0-3.12","xmUQ1iLSN4","5f6388bf9ae5ad07ba1a0173","6617fad957f7c6a12ea16e26","6622cea26530d65ac59f5412","feedback screen","null","","","","","","","","","","","",""
"","null","html-keyboard-response","61","87296","0.0-9.0-0.13","xmUQ1iLSN4","5f6388bf9ae5ad07ba1a0173","6617fad957f7c6a12ea16e26","6622cea26530d65ac59f5412","fixation cross","null","","","","","","","","","","","",""
"","1339","html-keyboard-response","62","88636","0.0-9.0-1.13","xmUQ1iLSN4","5f6388bf9ae5ad07ba1a0173","6617fad957f7c6a12ea16e26","6622cea26530d65ac59f5412","image grid","p","","","","","Ontogenetic_Distractor_Nonthreat_target","1700","ongrid","p","8","Phylogenetic","true","practice"
"","null","html-keyboard-response","63","88787","0.0-9.0-2.13","xmUQ1iLSN4","5f6388bf9ae5ad07ba1a0173","6617fad957f7c6a12ea16e26","6622cea26530d65ac59f5412","
    <div id=""grid-container"">
        <!-- Grid items will be dynamically added here -->
    </div>    ","null","","","","","","","","","","","",""
"","null","html-keyboard-response","64","90011","0.0-9.0-3.13","xmUQ1iLSN4","5f6388bf9ae5ad07ba1a0173","6617fad957f7c6a12ea16e26","6622cea26530d65ac59f5412","feedback screen","null","","","","","","","","","","","",""
"","null","html-keyboard-response","65","90529","0.0-9.0-0.14","xmUQ1iLSN4","5f6388bf9ae5ad07ba1a0173","6617fad957f7c6a12ea16e26","6622cea26530d65ac59f5412","fixation cross","null","","","","","","","","","","","",""
"","1053","html-keyboard-response","66","91583","0.0-9.0-1.14","xmUQ1iLSN4","5f6388bf9ae5ad07ba1a0173","6617fad957f7c6a12ea16e26","6622cea26530d65ac59f5412","image grid","q","","","","","Ontogenetic_Distractor_Threat_target","1600","ongrid","q","9","Phylogenetic","true","practice"
"","null","html-keyboard-response","67","91737","0.0-9.0-2.14","xmUQ1iLSN4","5f6388bf9ae5ad07ba1a0173","6617fad957f7c6a12ea16e26","6622cea26530d65ac59f5412","
    <div id=""grid-container"">
        <!-- Grid items will be dynamically added here -->
    </div>    ","null","","","","","","","","","","","",""
"","null","html-keyboard-response","68","92961","0.0-9.0-3.14","xmUQ1iLSN4","5f6388bf9ae5ad07ba1a0173","6617fad957f7c6a12ea16e26","6622cea26530d65ac59f5412","feedback screen","null","","","","","","","","","","","",""
"","null","html-keyboard-response","69","93478","0.0-9.0-0.15","xmUQ1iLSN4","5f6388bf9ae5ad07ba1a0173","6617fad957f7c6a12ea16e26","6622cea26530d65ac59f5412","fixation cross","null","","","","","","","","","","","",""
"","1019","html-keyboard-response","70","94497","0.0-9.0-1.15","xmUQ1iLSN4","5f6388bf9ae5ad07ba1a0173","6617fad957f7c6a12ea16e26","6622cea26530d65ac59f5412","image grid","p","","","","","Ontogenetic_Distractor_notarget","1500","ongrid"," ","9","Phylogenetic","false","practice"
"","null","html-keyboard-response","71","94653","0.0-9.0-2.15","xmUQ1iLSN4","5f6388bf9ae5ad07ba1a0173","6617fad957f7c6a12ea16e26","6622cea26530d65ac59f5412","
    <div id=""grid-container"">
        <!-- Grid items will be dynamically added here -->
    </div>    ","null","","","","","","","","","","","",""
"","null","html-keyboard-response","72","95878","0.0-9.0-3.15","xmUQ1iLSN4","5f6388bf9ae5ad07ba1a0173","6617fad957f7c6a12ea16e26","6622cea26530d65ac59f5412","feedback screen","null","","","","","","","","","","","",""
"","null","html-keyboard-response","73","96394","0.0-9.0-0.16","xmUQ1iLSN4","5f6388bf9ae5ad07ba1a0173","6617fad957f7c6a12ea16e26","6622cea26530d65ac59f5412","fixation cross","null","","","","","","","","","","","",""
"","1314","html-keyboard-response","74","97708","0.0-9.0-1.16","xmUQ1iLSN4","5f6388bf9ae5ad07ba1a0173","6617fad957f7c6a12ea16e26","6622cea26530d65ac59f5412","image grid","p","","","","","Ontogenetic_Distractor_Nonthreat_target","1400","ongrid","p","3","Phylogenetic","true","practice"
"","null","html-keyboard-response","75","97869","0.0-9.0-2.16","xmUQ1iLSN4","5f6388bf9ae5ad07ba1a0173","6617fad957f7c6a12ea16e26","6622cea26530d65ac59f5412","
    <div id=""grid-container"">
        <!-- Grid items will be dynamically added here -->
    </div>    ","null","","","","","","","","","","","",""
"","null","html-keyboard-response","76","99093","0.0-9.0-3.16","xmUQ1iLSN4","5f6388bf9ae5ad07ba1a0173","6617fad957f7c6a12ea16e26","6622cea26530d65ac59f5412","feedback screen","null","","","","","","","","","","","",""
"","null","html-keyboard-response","77","99599","0.0-9.0-0.17","xmUQ1iLSN4","5f6388bf9ae5ad07ba1a0173","6617fad957f7c6a12ea16e26","6622cea26530d65ac59f5412","fixation cross","null","","","","","","","","","","","",""
"","null","html-keyboard-response","78","100909","0.0-9.0-1.17","xmUQ1iLSN4","5f6388bf9ae5ad07ba1a0173","6617fad957f7c6a12ea16e26","6622cea26530d65ac59f5412","
        <div id=""grid-container"">
        <!-- Grid items will be dynamically added here -->
    </div>    ","null","","","","","","","","","","","",""
"","1899","html-keyboard-response","79","101509","0.0-9.0-2.17","xmUQ1iLSN4","5f6388bf9ae5ad07ba1a0173","6617fad957f7c6a12ea16e26","6622cea26530d65ac59f5412","mask grid","p","","","","","Phylogenetic_Distractor_Nonthreat_target","1300","onmask","p","3","Phylogenetic","true","practice"
"","null","html-keyboard-response","80","102742","0.0-9.0-3.17","xmUQ1iLSN4","5f6388bf9ae5ad07ba1a0173","6617fad957f7c6a12ea16e26","6622cea26530d65ac59f5412","feedback screen","null","","","","","","","","","","","",""
"","null","html-keyboard-response","81","103259","0.0-9.0-0.18","xmUQ1iLSN4","5f6388bf9ae5ad07ba1a0173","6617fad957f7c6a12ea16e26","6622cea26530d65ac59f5412","fixation cross","null","","","","","","","","","","","",""
"","747","html-keyboard-response","82","104007","0.0-9.0-1.18","xmUQ1iLSN4","5f6388bf9ae5ad07ba1a0173","6617fad957f7c6a12ea16e26","6622cea26530d65ac59f5412","image grid","p","","","","","Ontogenetic_Distractor_notarget","1200","ongrid"," ","2","Phylogenetic","false","practice"
"","null","html-keyboard-response","83","104167","0.0-9.0-2.18","xmUQ1iLSN4","5f6388bf9ae5ad07ba1a0173","6617fad957f7c6a12ea16e26","6622cea26530d65ac59f5412","
    <div id=""grid-container"">
        <!-- Grid items will be dynamically added here -->
    </div>    ","null","","","","","","","","","","","",""
"","null","html-keyboard-response","84","105393","0.0-9.0-3.18","xmUQ1iLSN4","5f6388bf9ae5ad07ba1a0173","6617fad957f7c6a12ea16e26","6622cea26530d65ac59f5412","feedback screen","null","","","","","","","","","","","",""
"","null","html-keyboard-response","85","105905","0.0-9.0-0.19","xmUQ1iLSN4","5f6388bf9ae5ad07ba1a0173","6617fad957f7c6a12ea16e26","6622cea26530d65ac59f5412","fixation cross","null","","","","","","","","","","","",""
"","905","html-keyboard-response","86","106811","0.0-9.0-1.19","xmUQ1iLSN4","5f6388bf9ae5ad07ba1a0173","6617fad957f7c6a12ea16e26","6622cea26530d65ac59f5412","image grid","q","","","","","Phylogenetic_Distractor_Threat_target","1100","ongrid","q","1","Phylogenetic","true","practice"
"","null","html-keyboard-response","87","106965","0.0-9.0-2.19","xmUQ1iLSN4","5f6388bf9ae5ad07ba1a0173","6617fad957f7c6a12ea16e26","6622cea26530d65ac59f5412","
    <div id=""grid-container"">
        <!-- Grid items will be dynamically added here -->
    </div>    ","null","","","","","","","","","","","",""
"","null","html-keyboard-response","88","108190","0.0-9.0-3.19","xmUQ1iLSN4","5f6388bf9ae5ad07ba1a0173","6617fad957f7c6a12ea16e26","6622cea26530d65ac59f5412","feedback screen","null","","","","","","","","","","","",""
"","8051","html-keyboard-response","89","116281","0.0-10.0","xmUQ1iLSN4","5f6388bf9ae5ad07ba1a0173","6617fad957f7c6a12ea16e26","6622cea26530d65ac59f5412","pre-experimental_briefing"," ","","","","","","","","","","","",""
"","null","html-keyboard-response","90","118837","0.0-11.0-0.0","xmUQ1iLSN4","5f6388bf9ae5ad07ba1a0173","6617fad957f7c6a12ea16e26","6622cea26530d65ac59f5412","fixation cross","null","","","","","","","","","","","",""
"","null","html-keyboard-response","91","119653","0.0-11.0-1.0","xmUQ1iLSN4","5f6388bf9ae5ad07ba1a0173","6617fad957f7c6a12ea16e26","6622cea26530d65ac59f5412","
        <div id=""grid-container"">
        <!-- Grid items will be dynamically added here -->
    </div>    ","null","","","","","","","","","","","",""
"","1399","html-keyboard-response","92","120252","0.0-11.0-2.0","xmUQ1iLSN4","5f6388bf9ae5ad07ba1a0173","6617fad957f7c6a12ea16e26","6622cea26530d65ac59f5412","mask grid","p","","","","","Phylogenetic_Distractor_Threat_target","800","onmask","q","3","Phylogenetic","false","experimental"
"","null","html-keyboard-response","93","120982","0.0-11.0-0.1","xmUQ1iLSN4","5f6388bf9ae5ad07ba1a0173","6617fad957f7c6a12ea16e26","6622cea26530d65ac59f5412","fixation cross","null","","","","","","","","","","","",""
"","null","html-keyboard-response","94","121796","0.0-11.0-1.1","xmUQ1iLSN4","5f6388bf9ae5ad07ba1a0173","6617fad957f7c6a12ea16e26","6622cea26530d65ac59f5412","
        <div id=""grid-container"">
        <!-- Grid items will be dynamically added here -->
    </div>    ","null","","","","","","","","","","","",""
"","1157","html-keyboard-response","95","122154","0.0-11.0-2.1","xmUQ1iLSN4","5f6388bf9ae5ad07ba1a0173","6617fad957f7c6a12ea16e26","6622cea26530d65ac59f5412","mask grid","p","","","","","Phylogenetic_Distractor_Nonthreat_target","800","onmask","p","8","Phylogenetic","true","experimental"
"","null","html-keyboard-response","96","122881","0.0-11.0-0.2","xmUQ1iLSN4","5f6388bf9ae5ad07ba1a0173","6617fad957f7c6a12ea16e26","6622cea26530d65ac59f5412","fixation cross","null","","","","","","","","","","","",""
"","null","html-keyboard-response","97","123698","0.0-11.0-1.2","xmUQ1iLSN4","5f6388bf9ae5ad07ba1a0173","6617fad957f7c6a12ea16e26","6622cea26530d65ac59f5412","
        <div id=""grid-container"">
        <!-- Grid items will be dynamically added here -->
    </div>    ","null","","","","","","","","","","","",""
"","817","html-keyboard-response","98","123716","0.0-11.0-2.2","xmUQ1iLSN4","5f6388bf9ae5ad07ba1a0173","6617fad957f7c6a12ea16e26","6622cea26530d65ac59f5412","mask grid","p","","","","","Phylogenetic_Distractor_Threat_target","800","onmask","q","9","Phylogenetic","false","experimental"
"","null","html-keyboard-response","99","124422","0.0-11.0-0.3","xmUQ1iLSN4","5f6388bf9ae5ad07ba1a0173","6617fad957f7c6a12ea16e26","6622cea26530d65ac59f5412","fixation cross","null","","","","","","","","","","","",""
"","675","html-keyboard-response","100","125097","0.0-11.0-1.3","xmUQ1iLSN4","5f6388bf9ae5ad07ba1a0173","6617fad957f7c6a12ea16e26","6622cea26530d65ac59f5412","image grid","p","","","","","Phylogenetic_Distractor_Nonthreat_target","800","ongrid","p","3","Phylogenetic","true","experimental"
"","null","html-keyboard-response","101","125256","0.0-11.0-2.3","xmUQ1iLSN4","5f6388bf9ae5ad07ba1a0173","6617fad957f7c6a12ea16e26","6622cea26530d65ac59f5412","
    <div id=""grid-container"">
        <!-- Grid items will be dynamically added here -->
    </div>    ","null","","","","","","","","","","","",""
"","null","html-keyboard-response","102","125986","0.0-11.0-0.4","xmUQ1iLSN4","5f6388bf9ae5ad07ba1a0173","6617fad957f7c6a12ea16e26","6622cea26530d65ac59f5412","fixation cross","null","","","","","","","","","","","",""
"","null","html-keyboard-response","103","126800","0.0-11.0-1.4","xmUQ1iLSN4","5f6388bf9ae5ad07ba1a0173","6617fad957f7c6a12ea16e26","6622cea26530d65ac59f5412","
        <div id=""grid-container"">
        <!-- Grid items will be dynamically added here -->
    </div>    ","null","","","","","","","","","","","",""
"","943","html-keyboard-response","104","126944","0.0-11.0-2.4","xmUQ1iLSN4","5f6388bf9ae5ad07ba1a0173","6617fad957f7c6a12ea16e26","6622cea26530d65ac59f5412","mask grid","q","","","","","Phylogenetic_Distractor_Threat_target","800","onmask","q","5","Phylogenetic","true","experimental"
"","null","html-keyboard-response","105","127664","0.0-11.0-0.5","xmUQ1iLSN4","5f6388bf9ae5ad07ba1a0173","6617fad957f7c6a12ea16e26","6622cea26530d65ac59f5412","fixation cross","null","","","","","","","","","","","",""
"","561","html-keyboard-response","106","128225","0.0-11.0-1.5","xmUQ1iLSN4","5f6388bf9ae5ad07ba1a0173","6617fad957f7c6a12ea16e26","6622cea26530d65ac59f5412","image grid","p","","","","","Phylogenetic_Distractor_Threat_target","800","ongrid","q","3","Phylogenetic","false","experimental"
"","null","html-keyboard-response","107","128389","0.0-11.0-2.5","xmUQ1iLSN4","5f6388bf9ae5ad07ba1a0173","6617fad957f7c6a12ea16e26","6622cea26530d65ac59f5412","
    <div id=""grid-container"">
        <!-- Grid items will be dynamically added here -->
    </div>    ","null","","","","","","","","","","","",""
"","null","html-keyboard-response","108","129114","0.0-11.0-0.6","xmUQ1iLSN4","5f6388bf9ae5ad07ba1a0173","6617fad957f7c6a12ea16e26","6622cea26530d65ac59f5412","fixation cross","null","","","","","","","","","","","",""
"","null","html-keyboard-response","109","129929","0.0-11.0-1.6","xmUQ1iLSN4","5f6388bf9ae5ad07ba1a0173","6617fad957f7c6a12ea16e26","6622cea26530d65ac59f5412","
        <div id=""grid-container"">
        <!-- Grid items will be dynamically added here -->
    </div>    ","null","","","","","","","","","","","",""
"","886","html-keyboard-response","110","130016","0.0-11.0-2.6","xmUQ1iLSN4","5f6388bf9ae5ad07ba1a0173","6617fad957f7c6a12ea16e26","6622cea26530d65ac59f5412","mask grid","p","","","","","Phylogenetic_Distractor_notarget","800","onmask"," ","9","Phylogenetic","false","experimental"
"","null","html-keyboard-response","111","130733","0.0-11.0-0.7","xmUQ1iLSN4","5f6388bf9ae5ad07ba1a0173","6617fad957f7c6a12ea16e26","6622cea26530d65ac59f5412","fixation cross","null","","","","","","","","","","","",""
"","683","html-keyboard-response","112","131417","0.0-11.0-1.7","xmUQ1iLSN4","5f6388bf9ae5ad07ba1a0173","6617fad957f7c6a12ea16e26","6622cea26530d65ac59f5412","image grid","q","","","","","Phylogenetic_Distractor_Threat_target","800","ongrid","q","3","Phylogenetic","true","experimental"
"","null","html-keyboard-response","113","131571","0.0-11.0-2.7","xmUQ1iLSN4","5f6388bf9ae5ad07ba1a0173","6617fad957f7c6a12ea16e26","6622cea26530d65ac59f5412","
    <div id=""grid-container"">
        <!-- Grid items will be dynamically added here -->
    </div>    ","null","","","","","","","","","","","",""
"","null","html-keyboard-response","114","132297","0.0-11.0-0.8","xmUQ1iLSN4","5f6388bf9ae5ad07ba1a0173","6617fad957f7c6a12ea16e26","6622cea26530d65ac59f5412","fixation cross","null","","","","","","","","","","","",""
"","null","html-keyboard-response","115","133112","0.0-11.0-1.8","xmUQ1iLSN4","5f6388bf9ae5ad07ba1a0173","6617fad957f7c6a12ea16e26","6622cea26530d65ac59f5412","
        <div id=""grid-container"">
        <!-- Grid items will be dynamically added here -->
    </div>    ","null","","","","","","","","","","","",""
"","901","html-keyboard-response","116","133213","0.0-11.0-2.8","xmUQ1iLSN4","5f6388bf9ae5ad07ba1a0173","6617fad957f7c6a12ea16e26","6622cea26530d65ac59f5412","mask grid","q","","","","","Phylogenetic_Distractor_Threat_target","800","onmask","q","8","Phylogenetic","true","experimental"
"","null","html-keyboard-response","117","133930","0.0-11.0-0.9","xmUQ1iLSN4","5f6388bf9ae5ad07ba1a0173","6617fad957f7c6a12ea16e26","6622cea26530d65ac59f5412","fixation cross","null","","","","","","","","","","","",""
"","769","html-keyboard-response","118","134699","0.0-11.0-1.9","xmUQ1iLSN4","5f6388bf9ae5ad07ba1a0173","6617fad957f7c6a12ea16e26","6622cea26530d65ac59f5412","image grid","p","","","","","Phylogenetic_Distractor_Nonthreat_target","800","ongrid","p","5","Phylogenetic","true","experimental"
"","null","html-keyboard-response","119","134854","0.0-11.0-2.9","xmUQ1iLSN4","5f6388bf9ae5ad07ba1a0173","6617fad957f7c6a12ea16e26","6622cea26530d65ac59f5412","
    <div id=""grid-container"">
        <!-- Grid items will be dynamically added here -->
    </div>    ","null","","","","","","","","","","","",""
"","null","html-keyboard-response","120","135580","0.0-11.0-0.10","xmUQ1iLSN4","5f6388bf9ae5ad07ba1a0173","6617fad957f7c6a12ea16e26","6622cea26530d65ac59f5412","fixation cross","null","","","","","","","","","","","",""
"","null","html-keyboard-response","121","136392","0.0-11.0-1.10","xmUQ1iLSN4","5f6388bf9ae5ad07ba1a0173","6617fad957f7c6a12ea16e26","6622cea26530d65ac59f5412","
        <div id=""grid-container"">
        <!-- Grid items will be dynamically added here -->
    </div>    ","null","","","","","","","","","","","",""
"","1376","html-keyboard-response","122","136969","0.0-11.0-2.10","xmUQ1iLSN4","5f6388bf9ae5ad07ba1a0173","6617fad957f7c6a12ea16e26","6622cea26530d65ac59f5412","mask grid","p","","","","","Phylogenetic_Distractor_Nonthreat_target","800","onmask","p","8","Phylogenetic","true","experimental"
"","null","html-keyboard-response","123","137694","0.0-11.0-0.11","xmUQ1iLSN4","5f6388bf9ae5ad07ba1a0173","6617fad957f7c6a12ea16e26","6622cea26530d65ac59f5412","fixation cross","null","","","","","","","","","","","",""
"","null","html-keyboard-response","124","138510","0.0-11.0-1.11","xmUQ1iLSN4","5f6388bf9ae5ad07ba1a0173","6617fad957f7c6a12ea16e26","6622cea26530d65ac59f5412","
        <div id=""grid-container"">
        <!-- Grid items will be dynamically added here -->
    </div>    ","null","","","","","","","","","","","",""
"","889","html-keyboard-response","125","138599","0.0-11.0-2.11","xmUQ1iLSN4","5f6388bf9ae5ad07ba1a0173","6617fad957f7c6a12ea16e26","6622cea26530d65ac59f5412","mask grid","p","","","","","Phylogenetic_Distractor_Nonthreat_target","800","onmask","p","9","Phylogenetic","true","experimental"
"","null","html-keyboard-response","126","139327","0.0-11.0-0.12","xmUQ1iLSN4","5f6388bf9ae5ad07ba1a0173","6617fad957f7c6a12ea16e26","6622cea26530d65ac59f5412","fixation cross","null","","","","","","","","","","","",""
"","648","html-keyboard-response","127","139976","0.0-11.0-1.12","xmUQ1iLSN4","5f6388bf9ae5ad07ba1a0173","6617fad957f7c6a12ea16e26","6622cea26530d65ac59f5412","image grid","p","","","","","Phylogenetic_Distractor_notarget","800","ongrid"," ","7","Phylogenetic","false","experimental"
"","null","html-keyboard-response","128","140136","0.0-11.0-2.12","xmUQ1iLSN4","5f6388bf9ae5ad07ba1a0173","6617fad957f7c6a12ea16e26","6622cea26530d65ac59f5412","
    <div id=""grid-container"">
        <!-- Grid items will be dynamically added here -->
    </div>    ","null","","","","","","","","","","","",""
"","null","html-keyboard-response","129","140859","0.0-11.0-0.13","xmUQ1iLSN4","5f6388bf9ae5ad07ba1a0173","6617fad957f7c6a12ea16e26","6622cea26530d65ac59f5412","fixation cross","null","","","","","","","","","","","",""
"","798","html-keyboard-response","130","141657","0.0-11.0-1.13","xmUQ1iLSN4","5f6388bf9ae5ad07ba1a0173","6617fad957f7c6a12ea16e26","6622cea26530d65ac59f5412","image grid","p","","","","","Phylogenetic_Distractor_Nonthreat_target","800","ongrid","p","1","Phylogenetic","true","experimental"
"","null","html-keyboard-response","131","141819","0.0-11.0-2.13","xmUQ1iLSN4","5f6388bf9ae5ad07ba1a0173","6617fad957f7c6a12ea16e26","6622cea26530d65ac59f5412","
    <div id=""grid-container"">
        <!-- Grid items will be dynamically added here -->
    </div>    ","null","","","","","","","","","","","",""
"","null","html-keyboard-response","132","142543","0.0-11.0-0.14","xmUQ1iLSN4","5f6388bf9ae5ad07ba1a0173","6617fad957f7c6a12ea16e26","6622cea26530d65ac59f5412","fixation cross","null","","","","","","","","","","","",""
"","709","html-keyboard-response","133","143253","0.0-11.0-1.14","xmUQ1iLSN4","5f6388bf9ae5ad07ba1a0173","6617fad957f7c6a12ea16e26","6622cea26530d65ac59f5412","image grid","p","","","","","Phylogenetic_Distractor_Threat_target","800","ongrid","q","3","Phylogenetic","false","experimental"
"","null","html-keyboard-response","134","143418","0.0-11.0-2.14","xmUQ1iLSN4","5f6388bf9ae5ad07ba1a0173","6617fad957f7c6a12ea16e26","6622cea26530d65ac59f5412","
    <div id=""grid-container"">
        <!-- Grid items will be dynamically added here -->
    </div>    ","null","","","","","","","","","","","",""
"","null","html-keyboard-response","135","144142","0.0-11.0-0.15","xmUQ1iLSN4","5f6388bf9ae5ad07ba1a0173","6617fad957f7c6a12ea16e26","6622cea26530d65ac59f5412","fixation cross","null","","","","","","","","","","","",""
"","576","html-keyboard-response","136","144719","0.0-11.0-1.15","xmUQ1iLSN4","5f6388bf9ae5ad07ba1a0173","6617fad957f7c6a12ea16e26","6622cea26530d65ac59f5412","image grid","q","","","","","Phylogenetic_Distractor_Threat_target","800","ongrid","q","2","Phylogenetic","true","experimental"
"","null","html-keyboard-response","137","144884","0.0-11.0-2.15","xmUQ1iLSN4","5f6388bf9ae5ad07ba1a0173","6617fad957f7c6a12ea16e26","6622cea26530d65ac59f5412","
    <div id=""grid-container"">
        <!-- Grid items will be dynamically added here -->
    </div>    ","null","","","","","","","","","","","",""
"","null","html-keyboard-response","138","145609","0.0-11.0-0.16","xmUQ1iLSN4","5f6388bf9ae5ad07ba1a0173","6617fad957f7c6a12ea16e26","6622cea26530d65ac59f5412","fixation cross","null","","","","","","","","","","","",""
"","492","html-keyboard-response","139","146101","0.0-11.0-1.16","xmUQ1iLSN4","5f6388bf9ae5ad07ba1a0173","6617fad957f7c6a12ea16e26","6622cea26530d65ac59f5412","image grid","q","","","","","Phylogenetic_Distractor_Threat_target","800","ongrid","q","2","Phylogenetic","true","experimental"
"","null","html-keyboard-response","140","146267","0.0-11.0-2.16","xmUQ1iLSN4","5f6388bf9ae5ad07ba1a0173","6617fad957f7c6a12ea16e26","6622cea26530d65ac59f5412","
    <div id=""grid-container"">
        <!-- Grid items will be dynamically added here -->
    </div>    ","null","","","","","","","","","","","",""
"","null","html-keyboard-response","141","146990","0.0-11.0-0.17","xmUQ1iLSN4","5f6388bf9ae5ad07ba1a0173","6617fad957f7c6a12ea16e26","6622cea26530d65ac59f5412","fixation cross","null","","","","","","","","","","","",""
"","766","html-keyboard-response","142","147756","0.0-11.0-1.17","xmUQ1iLSN4","5f6388bf9ae5ad07ba1a0173","6617fad957f7c6a12ea16e26","6622cea26530d65ac59f5412","image grid","p","","","","","Phylogenetic_Distractor_Nonthreat_target","800","ongrid","p","6","Phylogenetic","true","experimental"
"","null","html-keyboard-response","143","147916","0.0-11.0-2.17","xmUQ1iLSN4","5f6388bf9ae5ad07ba1a0173","6617fad957f7c6a12ea16e26","6622cea26530d65ac59f5412","
    <div id=""grid-container"">
        <!-- Grid items will be dynamically added here -->
    </div>    ","null","","","","","","","","","","","",""
"","null","html-keyboard-response","144","148643","0.0-11.0-0.18","xmUQ1iLSN4","5f6388bf9ae5ad07ba1a0173","6617fad957f7c6a12ea16e26","6622cea26530d65ac59f5412","fixation cross","null","","","","","","","","","","","",""
"","null","html-keyboard-response","145","149458","0.0-11.0-1.18","xmUQ1iLSN4","5f6388bf9ae5ad07ba1a0173","6617fad957f7c6a12ea16e26","6622cea26530d65ac59f5412","
        <div id=""grid-container"">
        <!-- Grid items will be dynamically added here -->
    </div>    ","null","","","","","","","","","","","",""
"","1302","html-keyboard-response","146","149961","0.0-11.0-2.18","xmUQ1iLSN4","5f6388bf9ae5ad07ba1a0173","6617fad957f7c6a12ea16e26","6622cea26530d65ac59f5412","mask grid","p","","","","","Phylogenetic_Distractor_Nonthreat_target","800","onmask","p","2","Phylogenetic","true","experimental"
"","null","html-keyboard-response","147","150690","0.0-11.0-0.19","xmUQ1iLSN4","5f6388bf9ae5ad07ba1a0173","6617fad957f7c6a12ea16e26","6622cea26530d65ac59f5412","fixation cross","null","","","","","","","","","","","",""
"","672","html-keyboard-response","148","151363","0.0-11.0-1.19","xmUQ1iLSN4","5f6388bf9ae5ad07ba1a0173","6617fad957f7c6a12ea16e26","6622cea26530d65ac59f5412","image grid","p","","","","","Phylogenetic_Distractor_Nonthreat_target","800","ongrid","p","1","Phylogenetic","true","experimental"
"","null","html-keyboard-response","149","151518","0.0-11.0-2.19","xmUQ1iLSN4","5f6388bf9ae5ad07ba1a0173","6617fad957f7c6a12ea16e26","6622cea26530d65ac59f5412","
    <div id=""grid-container"">
        <!-- Grid items will be dynamically added here -->
    </div>    ","null","","","","","","","","","","","",""
"","null","html-keyboard-response","150","152240","0.0-11.0-0.20","xmUQ1iLSN4","5f6388bf9ae5ad07ba1a0173","6617fad957f7c6a12ea16e26","6622cea26530d65ac59f5412","fixation cross","null","","","","","","","","","","","",""
"","658","html-keyboard-response","151","152899","0.0-11.0-1.20","xmUQ1iLSN4","5f6388bf9ae5ad07ba1a0173","6617fad957f7c6a12ea16e26","6622cea26530d65ac59f5412","image grid","p","","","","","Phylogenetic_Distractor_Nonthreat_target","800","ongrid","p","9","Phylogenetic","true","experimental"
"","null","html-keyboard-response","152","153065","0.0-11.0-2.20","xmUQ1iLSN4","5f6388bf9ae5ad07ba1a0173","6617fad957f7c6a12ea16e26","6622cea26530d65ac59f5412","
    <div id=""grid-container"">
        <!-- Grid items will be dynamically added here -->
    </div>    ","null","","","","","","","","","","","",""
"","null","html-keyboard-response","153","153789","0.0-11.0-0.21","xmUQ1iLSN4","5f6388bf9ae5ad07ba1a0173","6617fad957f7c6a12ea16e26","6622cea26530d65ac59f5412","fixation cross","null","","","","","","","","","","","",""
"","684","html-keyboard-response","154","154473","0.0-11.0-1.21","xmUQ1iLSN4","5f6388bf9ae5ad07ba1a0173","6617fad957f7c6a12ea16e26","6622cea26530d65ac59f5412","image grid","p","","","","","Phylogenetic_Distractor_Nonthreat_target","800","ongrid","p","2","Phylogenetic","true","experimental"
"","null","html-keyboard-response","155","154631","0.0-11.0-2.21","xmUQ1iLSN4","5f6388bf9ae5ad07ba1a0173","6617fad957f7c6a12ea16e26","6622cea26530d65ac59f5412","
    <div id=""grid-container"">
        <!-- Grid items will be dynamically added here -->
    </div>    ","null","","","","","","","","","","","",""
"","null","html-keyboard-response","156","155356","0.0-11.0-0.22","xmUQ1iLSN4","5f6388bf9ae5ad07ba1a0173","6617fad957f7c6a12ea16e26","6622cea26530d65ac59f5412","fixation cross","null","","","","","","","","","","","",""
"","729","html-keyboard-response","157","156086","0.0-11.0-1.22","xmUQ1iLSN4","5f6388bf9ae5ad07ba1a0173","6617fad957f7c6a12ea16e26","6622cea26530d65ac59f5412","image grid","p","","","","","Phylogenetic_Distractor_Nonthreat_target","800","ongrid","p","5","Phylogenetic","true","experimental"
"","null","html-keyboard-response","158","156248","0.0-11.0-2.22","xmUQ1iLSN4","5f6388bf9ae5ad07ba1a0173","6617fad957f7c6a12ea16e26","6622cea26530d65ac59f5412","
    <div id=""grid-container"">
        <!-- Grid items will be dynamically added here -->
    </div>    ","null","","","","","","","","","","","",""
"","null","html-keyboard-response","159","156972","0.0-11.0-0.23","xmUQ1iLSN4","5f6388bf9ae5ad07ba1a0173","6617fad957f7c6a12ea16e26","6622cea26530d65ac59f5412","fixation cross","null","","","","","","","","","","","",""
"","778","html-keyboard-response","160","157751","0.0-11.0-1.23","xmUQ1iLSN4","5f6388bf9ae5ad07ba1a0173","6617fad957f7c6a12ea16e26","6622cea26530d65ac59f5412","image grid","p","","","","","Phylogenetic_Distractor_Nonthreat_target","800","ongrid","p","8","Phylogenetic","true","experimental"
"","null","html-keyboard-response","161","157913","0.0-11.0-2.23","xmUQ1iLSN4","5f6388bf9ae5ad07ba1a0173","6617fad957f7c6a12ea16e26","6622cea26530d65ac59f5412","
    <div id=""grid-container"">
        <!-- Grid items will be dynamically added here -->
    </div>    ","null","","","","","","","","","","","",""
"","null","html-keyboard-response","162","158638","0.0-11.0-0.24","xmUQ1iLSN4","5f6388bf9ae5ad07ba1a0173","6617fad957f7c6a12ea16e26","6622cea26530d65ac59f5412","fixation cross","null","","","","","","","","","","","",""
"","535","html-keyboard-response","163","159173","0.0-11.0-1.24","xmUQ1iLSN4","5f6388bf9ae5ad07ba1a0173","6617fad957f7c6a12ea16e26","6622cea26530d65ac59f5412","image grid","q","","","","","Phylogenetic_Distractor_Threat_target","800","ongrid","q","2","Phylogenetic","true","experimental"
"","null","html-keyboard-response","164","159330","0.0-11.0-2.24","xmUQ1iLSN4","5f6388bf9ae5ad07ba1a0173","6617fad957f7c6a12ea16e26","6622cea26530d65ac59f5412","
    <div id=""grid-container"">
        <!-- Grid items will be dynamically added here -->
    </div>    ","null","","","","","","","","","","","",""
"","null","html-keyboard-response","165","160054","0.0-11.0-0.25","xmUQ1iLSN4","5f6388bf9ae5ad07ba1a0173","6617fad957f7c6a12ea16e26","6622cea26530d65ac59f5412","fixation cross","null","","","","","","","","","","","",""
"","723","html-keyboard-response","166","160777","0.0-11.0-1.25","xmUQ1iLSN4","5f6388bf9ae5ad07ba1a0173","6617fad957f7c6a12ea16e26","6622cea26530d65ac59f5412","image grid","p","","","","","Phylogenetic_Distractor_notarget","800","ongrid"," ","6","Phylogenetic","false","experimental"
"","null","html-keyboard-response","167","160929","0.0-11.0-2.25","xmUQ1iLSN4","5f6388bf9ae5ad07ba1a0173","6617fad957f7c6a12ea16e26","6622cea26530d65ac59f5412","
    <div id=""grid-container"">
        <!-- Grid items will be dynamically added here -->
    </div>    ","null","","","","","","","","","","","",""
"","null","html-keyboard-response","168","161654","0.0-11.0-0.26","xmUQ1iLSN4","5f6388bf9ae5ad07ba1a0173","6617fad957f7c6a12ea16e26","6622cea26530d65ac59f5412","fixation cross","null","","","","","","","","","","","",""
"","681","html-keyboard-response","169","162336","0.0-11.0-1.26","xmUQ1iLSN4","5f6388bf9ae5ad07ba1a0173","6617fad957f7c6a12ea16e26","6622cea26530d65ac59f5412","image grid","p","","","","","Phylogenetic_Distractor_Nonthreat_target","800","ongrid","p","5","Phylogenetic","true","experimental"
"","null","html-keyboard-response","170","162497","0.0-11.0-2.26","xmUQ1iLSN4","5f6388bf9ae5ad07ba1a0173","6617fad957f7c6a12ea16e26","6622cea26530d65ac59f5412","
    <div id=""grid-container"">
        <!-- Grid items will be dynamically added here -->
    </div>    ","null","","","","","","","","","","","",""
"","null","html-keyboard-response","171","163221","0.0-11.0-0.27","xmUQ1iLSN4","5f6388bf9ae5ad07ba1a0173","6617fad957f7c6a12ea16e26","6622cea26530d65ac59f5412","fixation cross","null","","","","","","","","","","","",""
"","709","html-keyboard-response","172","163931","0.0-11.0-1.27","xmUQ1iLSN4","5f6388bf9ae5ad07ba1a0173","6617fad957f7c6a12ea16e26","6622cea26530d65ac59f5412","image grid","p","","","","","Phylogenetic_Distractor_Nonthreat_target","800","ongrid","p","7","Phylogenetic","true","experimental"
"","null","html-keyboard-response","173","164094","0.0-11.0-2.27","xmUQ1iLSN4","5f6388bf9ae5ad07ba1a0173","6617fad957f7c6a12ea16e26","6622cea26530d65ac59f5412","
    <div id=""grid-container"">
        <!-- Grid items will be dynamically added here -->
    </div>    ","null","","","","","","","","","","","",""
"","null","html-keyboard-response","174","164820","0.0-11.0-0.28","xmUQ1iLSN4","5f6388bf9ae5ad07ba1a0173","6617fad957f7c6a12ea16e26","6622cea26530d65ac59f5412","fixation cross","null","","","","","","","","","","","",""
"","561","html-keyboard-response","175","165382","0.0-11.0-1.28","xmUQ1iLSN4","5f6388bf9ae5ad07ba1a0173","6617fad957f7c6a12ea16e26","6622cea26530d65ac59f5412","image grid","p","","","","","Phylogenetic_Distractor_Threat_target","800","ongrid","q","7","Phylogenetic","false","experimental"
"","null","html-keyboard-response","176","165545","0.0-11.0-2.28","xmUQ1iLSN4","5f6388bf9ae5ad07ba1a0173","6617fad957f7c6a12ea16e26","6622cea26530d65ac59f5412","
    <div id=""grid-container"">
        <!-- Grid items will be dynamically added here -->
    </div>    ","null","","","","","","","","","","","",""
"","null","html-keyboard-response","177","166270","0.0-11.0-0.29","xmUQ1iLSN4","5f6388bf9ae5ad07ba1a0173","6617fad957f7c6a12ea16e26","6622cea26530d65ac59f5412","fixation cross","null","","","","","","","","","","","",""
"","608","html-keyboard-response","178","166878","0.0-11.0-1.29","xmUQ1iLSN4","5f6388bf9ae5ad07ba1a0173","6617fad957f7c6a12ea16e26","6622cea26530d65ac59f5412","image grid","p","","","","","Phylogenetic_Distractor_Nonthreat_target","800","ongrid","p","2","Phylogenetic","true","experimental"
"","null","html-keyboard-response","179","167044","0.0-11.0-2.29","xmUQ1iLSN4","5f6388bf9ae5ad07ba1a0173","6617fad957f7c6a12ea16e26","6622cea26530d65ac59f5412","
    <div id=""grid-container"">
        <!-- Grid items will be dynamically added here -->
    </div>    ","null","","","","","","","","","","","",""
"","null","html-keyboard-response","180","167768","0.0-11.0-0.30","xmUQ1iLSN4","5f6388bf9ae5ad07ba1a0173","6617fad957f7c6a12ea16e26","6622cea26530d65ac59f5412","fixation cross","null","","","","","","","","","","","",""
"","536","html-keyboard-response","181","168304","0.0-11.0-1.30","xmUQ1iLSN4","5f6388bf9ae5ad07ba1a0173","6617fad957f7c6a12ea16e26","6622cea26530d65ac59f5412","image grid","q","","","","","Phylogenetic_Distractor_Threat_target","800","ongrid","q","4","Phylogenetic","true","experimental"
"","null","html-keyboard-response","182","168462","0.0-11.0-2.30","xmUQ1iLSN4","5f6388bf9ae5ad07ba1a0173","6617fad957f7c6a12ea16e26","6622cea26530d65ac59f5412","
    <div id=""grid-container"">
        <!-- Grid items will be dynamically added here -->
    </div>    ","null","","","","","","","","","","","",""
"","null","html-keyboard-response","183","169185","0.0-11.0-0.31","xmUQ1iLSN4","5f6388bf9ae5ad07ba1a0173","6617fad957f7c6a12ea16e26","6622cea26530d65ac59f5412","fixation cross","null","","","","","","","","","","","",""
"","596","html-keyboard-response","184","169781","0.0-11.0-1.31","xmUQ1iLSN4","5f6388bf9ae5ad07ba1a0173","6617fad957f7c6a12ea16e26","6622cea26530d65ac59f5412","image grid","q","","","","","Phylogenetic_Distractor_Threat_target","800","ongrid","q","8","Phylogenetic","true","experimental"
"","null","html-keyboard-response","185","169943","0.0-11.0-2.31","xmUQ1iLSN4","5f6388bf9ae5ad07ba1a0173","6617fad957f7c6a12ea16e26","6622cea26530d65ac59f5412","
    <div id=""grid-container"">
        <!-- Grid items will be dynamically added here -->
    </div>    ","null","","","","","","","","","","","",""
"","null","html-keyboard-response","186","170667","0.0-11.0-0.32","xmUQ1iLSN4","5f6388bf9ae5ad07ba1a0173","6617fad957f7c6a12ea16e26","6622cea26530d65ac59f5412","fixation cross","null","","","","","","","","","","","",""
"","595","html-keyboard-response","187","171263","0.0-11.0-1.32","xmUQ1iLSN4","5f6388bf9ae5ad07ba1a0173","6617fad957f7c6a12ea16e26","6622cea26530d65ac59f5412","image grid","q","","","","","Phylogenetic_Distractor_Threat_target","800","ongrid","q","7","Phylogenetic","true","experimental"
"","null","html-keyboard-response","188","171427","0.0-11.0-2.32","xmUQ1iLSN4","5f6388bf9ae5ad07ba1a0173","6617fad957f7c6a12ea16e26","6622cea26530d65ac59f5412","
    <div id=""grid-container"">
        <!-- Grid items will be dynamically added here -->
    </div>    ","null","","","","","","","","","","","",""
"","null","html-keyboard-response","189","172153","0.0-11.0-0.33","xmUQ1iLSN4","5f6388bf9ae5ad07ba1a0173","6617fad957f7c6a12ea16e26","6622cea26530d65ac59f5412","fixation cross","null","","","","","","","","","","","",""
"","724","html-keyboard-response","190","172878","0.0-11.0-1.33","xmUQ1iLSN4","5f6388bf9ae5ad07ba1a0173","6617fad957f7c6a12ea16e26","6622cea26530d65ac59f5412","image grid","q","","","","","Phylogenetic_Distractor_Threat_target","800","ongrid","q","2","Phylogenetic","true","experimental"
"","null","html-keyboard-response","191","173044","0.0-11.0-2.33","xmUQ1iLSN4","5f6388bf9ae5ad07ba1a0173","6617fad957f7c6a12ea16e26","6622cea26530d65ac59f5412","
    <div id=""grid-container"">
        <!-- Grid items will be dynamically added here -->
    </div>    ","null","","","","","","","","","","","",""
"","null","html-keyboard-response","192","173769","0.0-11.0-0.34","xmUQ1iLSN4","5f6388bf9ae5ad07ba1a0173","6617fad957f7c6a12ea16e26","6622cea26530d65ac59f5412","fixation cross","null","","","","","","","","","","","",""
"","695","html-keyboard-response","193","174464","0.0-11.0-1.34","xmUQ1iLSN4","5f6388bf9ae5ad07ba1a0173","6617fad957f7c6a12ea16e26","6622cea26530d65ac59f5412","image grid","p","","","","","Phylogenetic_Distractor_Nonthreat_target","800","ongrid","p","5","Phylogenetic","true","experimental"
"","null","html-keyboard-response","194","174627","0.0-11.0-2.34","xmUQ1iLSN4","5f6388bf9ae5ad07ba1a0173","6617fad957f7c6a12ea16e26","6622cea26530d65ac59f5412","
    <div id=""grid-container"">
        <!-- Grid items will be dynamically added here -->
    </div>    ","null","","","","","","","","","","","",""
"","null","html-keyboard-response","195","175336","0.0-11.0-0.35","xmUQ1iLSN4","5f6388bf9ae5ad07ba1a0173","6617fad957f7c6a12ea16e26","6622cea26530d65ac59f5412","fixation cross","null","","","","","","","","","","","",""
"","794","html-keyboard-response","196","176130","0.0-11.0-1.35","xmUQ1iLSN4","5f6388bf9ae5ad07ba1a0173","6617fad957f7c6a12ea16e26","6622cea26530d65ac59f5412","image grid","q","","","","","Phylogenetic_Distractor_Threat_target","800","ongrid","q","7","Phylogenetic","true","experimental"
"","null","html-keyboard-response","197","176292","0.0-11.0-2.35","xmUQ1iLSN4","5f6388bf9ae5ad07ba1a0173","6617fad957f7c6a12ea16e26","6622cea26530d65ac59f5412","
    <div id=""grid-container"">
        <!-- Grid items will be dynamically added here -->
    </div>    ","null","","","","","","","","","","","",""
"","null","html-keyboard-response","198","177017","0.0-11.0-0.36","xmUQ1iLSN4","5f6388bf9ae5ad07ba1a0173","6617fad957f7c6a12ea16e26","6622cea26530d65ac59f5412","fixation cross","null","","","","","","","","","","","",""
"","704","html-keyboard-response","199","177722","0.0-11.0-1.36","xmUQ1iLSN4","5f6388bf9ae5ad07ba1a0173","6617fad957f7c6a12ea16e26","6622cea26530d65ac59f5412","image grid","p","","","","","Phylogenetic_Distractor_Nonthreat_target","800","ongrid","p","3","Phylogenetic","true","experimental"
"","null","html-keyboard-response","200","177875","0.0-11.0-2.36","xmUQ1iLSN4","5f6388bf9ae5ad07ba1a0173","6617fad957f7c6a12ea16e26","6622cea26530d65ac59f5412","
    <div id=""grid-container"">
        <!-- Grid items will be dynamically added here -->
    </div>    ","null","","","","","","","","","","","",""
"","null","html-keyboard-response","201","178598","0.0-11.0-0.37","xmUQ1iLSN4","5f6388bf9ae5ad07ba1a0173","6617fad957f7c6a12ea16e26","6622cea26530d65ac59f5412","fixation cross","null","","","","","","","","","","","",""
"","669","html-keyboard-response","202","179267","0.0-11.0-1.37","xmUQ1iLSN4","5f6388bf9ae5ad07ba1a0173","6617fad957f7c6a12ea16e26","6622cea26530d65ac59f5412","image grid","q","","","","","Phylogenetic_Distractor_Threat_target","800","ongrid","q","4","Phylogenetic","true","experimental"
"","null","html-keyboard-response","203","179426","0.0-11.0-2.37","xmUQ1iLSN4","5f6388bf9ae5ad07ba1a0173","6617fad957f7c6a12ea16e26","6622cea26530d65ac59f5412","
    <div id=""grid-container"">
        <!-- Grid items will be dynamically added here -->
    </div>    ","null","","","","","","","","","","","",""
"","null","html-keyboard-response","204","180150","0.0-11.0-0.38","xmUQ1iLSN4","5f6388bf9ae5ad07ba1a0173","6617fad957f7c6a12ea16e26","6622cea26530d65ac59f5412","fixation cross","null","","","","","","","","","","","",""
"","null","html-keyboard-response","205","180964","0.0-11.0-1.38","xmUQ1iLSN4","5f6388bf9ae5ad07ba1a0173","6617fad957f7c6a12ea16e26","6622cea26530d65ac59f5412","
        <div id=""grid-container"">
        <!-- Grid items will be dynamically added here -->
    </div>    ","null","","","","","","","","","","","",""
"","859","html-keyboard-response","206","181024","0.0-11.0-2.38","xmUQ1iLSN4","5f6388bf9ae5ad07ba1a0173","6617fad957f7c6a12ea16e26","6622cea26530d65ac59f5412","mask grid","p","","","","","Phylogenetic_Distractor_notarget","800","onmask"," ","2","Phylogenetic","false","experimental"
"","null","html-keyboard-response","207","181736","0.0-11.0-0.39","xmUQ1iLSN4","5f6388bf9ae5ad07ba1a0173","6617fad957f7c6a12ea16e26","6622cea26530d65ac59f5412","fixation cross","null","","","","","","","","","","","",""
"","593","html-keyboard-response","208","182329","0.0-11.0-1.39","xmUQ1iLSN4","5f6388bf9ae5ad07ba1a0173","6617fad957f7c6a12ea16e26","6622cea26530d65ac59f5412","image grid","p","","","","","Phylogenetic_Distractor_Threat_target","800","ongrid","q","2","Phylogenetic","false","experimental"
"","null","html-keyboard-response","209","182490","0.0-11.0-2.39","xmUQ1iLSN4","5f6388bf9ae5ad07ba1a0173","6617fad957f7c6a12ea16e26","6622cea26530d65ac59f5412","
    <div id=""grid-container"">
        <!-- Grid items will be dynamically added here -->
    </div>    ","null","","","","","","","","","","","",""
"","3884","html-keyboard-response","210","186628","0.0-12.0","xmUQ1iLSN4","5f6388bf9ae5ad07ba1a0173","6617fad957f7c6a12ea16e26","6622cea26530d65ac59f5412","break screen"," ","","","","","","","","","","","",""
"","null","html-keyboard-response","211","189146","0.0-13.0-0.0","xmUQ1iLSN4","5f6388bf9ae5ad07ba1a0173","6617fad957f7c6a12ea16e26","6622cea26530d65ac59f5412","fixation cross","null","","","","","","","","","","","",""
"","1522","html-keyboard-response","212","190669","0.0-13.0-1.0","xmUQ1iLSN4","5f6388bf9ae5ad07ba1a0173","6617fad957f7c6a12ea16e26","6622cea26530d65ac59f5412","image grid","p","","","","","Ontogenetic_Distractor_Nonthreat_target","2500","ongrid","p","2","Ontogenetic","true","experimental"
"","null","html-keyboard-response","213","190822","0.0-13.0-2.0","xmUQ1iLSN4","5f6388bf9ae5ad07ba1a0173","6617fad957f7c6a12ea16e26","6622cea26530d65ac59f5412","
    <div id=""grid-container"">
        <!-- Grid items will be dynamically added here -->
    </div>    ","null","","","","","","","","","","","",""
"","null","html-keyboard-response","214","191546","0.0-13.0-0.1","xmUQ1iLSN4","5f6388bf9ae5ad07ba1a0173","6617fad957f7c6a12ea16e26","6622cea26530d65ac59f5412","fixation cross","null","","","","","","","","","","","",""
"","803","html-keyboard-response","215","192350","0.0-13.0-1.1","xmUQ1iLSN4","5f6388bf9ae5ad07ba1a0173","6617fad957f7c6a12ea16e26","6622cea26530d65ac59f5412","image grid","p","","","","","Ontogenetic_Distractor_notarget","2500","ongrid"," ","6","Ontogenetic","false","experimental"
"","null","html-keyboard-response","216","192503","0.0-13.0-2.1","xmUQ1iLSN4","5f6388bf9ae5ad07ba1a0173","6617fad957f7c6a12ea16e26","6622cea26530d65ac59f5412","
    <div id=""grid-container"">
        <!-- Grid items will be dynamically added here -->
    </div>    ","null","","","","","","","","","","","",""
"","null","html-keyboard-response","217","193229","0.0-13.0-0.2","xmUQ1iLSN4","5f6388bf9ae5ad07ba1a0173","6617fad957f7c6a12ea16e26","6622cea26530d65ac59f5412","fixation cross","null","","","","","","","","","","","",""
"","1026","html-keyboard-response","218","194256","0.0-13.0-1.2","xmUQ1iLSN4","5f6388bf9ae5ad07ba1a0173","6617fad957f7c6a12ea16e26","6622cea26530d65ac59f5412","image grid","p","","","","","Ontogenetic_Distractor_notarget","2500","ongrid"," ","6","Ontogenetic","false","experimental"
"","null","html-keyboard-response","219","194420","0.0-13.0-2.2","xmUQ1iLSN4","5f6388bf9ae5ad07ba1a0173","6617fad957f7c6a12ea16e26","6622cea26530d65ac59f5412","
    <div id=""grid-container"">
        <!-- Grid items will be dynamically added here -->
    </div>    ","null","","","","","","","","","","","",""
"","null","html-keyboard-response","220","195145","0.0-13.0-0.3","xmUQ1iLSN4","5f6388bf9ae5ad07ba1a0173","6617fad957f7c6a12ea16e26","6622cea26530d65ac59f5412","fixation cross","null","","","","","","","","","","","",""
"","1159","html-keyboard-response","221","196304","0.0-13.0-1.3","xmUQ1iLSN4","5f6388bf9ae5ad07ba1a0173","6617fad957f7c6a12ea16e26","6622cea26530d65ac59f5412","image grid","p","","","","","Ontogenetic_Distractor_Nonthreat_target","2500","ongrid","p","6","Ontogenetic","true","experimental"
"","null","html-keyboard-response","222","196469","0.0-13.0-2.3","xmUQ1iLSN4","5f6388bf9ae5ad07ba1a0173","6617fad957f7c6a12ea16e26","6622cea26530d65ac59f5412","
    <div id=""grid-container"">
        <!-- Grid items will be dynamically added here -->
    </div>    ","null","","","","","","","","","","","",""
"","null","html-keyboard-response","223","197195","0.0-13.0-0.4","xmUQ1iLSN4","5f6388bf9ae5ad07ba1a0173","6617fad957f7c6a12ea16e26","6622cea26530d65ac59f5412","fixation cross","null","","","","","","","","","","","",""
"","1104","html-keyboard-response","224","198300","0.0-13.0-1.4","xmUQ1iLSN4","5f6388bf9ae5ad07ba1a0173","6617fad957f7c6a12ea16e26","6622cea26530d65ac59f5412","image grid","q","","","","","Ontogenetic_Distractor_Threat_target","2500","ongrid","q","8","Ontogenetic","true","experimental"
"","null","html-keyboard-response","225","198452","0.0-13.0-2.4","xmUQ1iLSN4","5f6388bf9ae5ad07ba1a0173","6617fad957f7c6a12ea16e26","6622cea26530d65ac59f5412","
    <div id=""grid-container"">
        <!-- Grid items will be dynamically added here -->
    </div>    ","null","","","","","","","","","","","",""
"","null","html-keyboard-response","226","199177","0.0-13.0-0.5","xmUQ1iLSN4","5f6388bf9ae5ad07ba1a0173","6617fad957f7c6a12ea16e26","6622cea26530d65ac59f5412","fixation cross","null","","","","","","","","","","","",""
"","1128","html-keyboard-response","227","200305","0.0-13.0-1.5","xmUQ1iLSN4","5f6388bf9ae5ad07ba1a0173","6617fad957f7c6a12ea16e26","6622cea26530d65ac59f5412","image grid","p","","","","","Ontogenetic_Distractor_Nonthreat_target","2500","ongrid","p","7","Ontogenetic","true","experimental"
"","null","html-keyboard-response","228","200468","0.0-13.0-2.5","xmUQ1iLSN4","5f6388bf9ae5ad07ba1a0173","6617fad957f7c6a12ea16e26","6622cea26530d65ac59f5412","
    <div id=""grid-container"">
        <!-- Grid items will be dynamically added here -->
    </div>    ","null","","","","","","","","","","","",""
"","null","html-keyboard-response","229","201192","0.0-13.0-0.6","xmUQ1iLSN4","5f6388bf9ae5ad07ba1a0173","6617fad957f7c6a12ea16e26","6622cea26530d65ac59f5412","fixation cross","null","","","","","","","","","","","",""
"","994","html-keyboard-response","230","202186","0.0-13.0-1.6","xmUQ1iLSN4","5f6388bf9ae5ad07ba1a0173","6617fad957f7c6a12ea16e26","6622cea26530d65ac59f5412","image grid","p","","","","","Ontogenetic_Distractor_Nonthreat_target","2500","ongrid","p","9","Ontogenetic","true","experimental"
"","null","html-keyboard-response","231","202351","0.0-13.0-2.6","xmUQ1iLSN4","5f6388bf9ae5ad07ba1a0173","6617fad957f7c6a12ea16e26","6622cea26530d65ac59f5412","
    <div id=""grid-container"">
        <!-- Grid items will be dynamically added here -->
    </div>    ","null","","","","","","","","","","","",""
"","null","html-keyboard-response","232","203076","0.0-13.0-0.7","xmUQ1iLSN4","5f6388bf9ae5ad07ba1a0173","6617fad957f7c6a12ea16e26","6622cea26530d65ac59f5412","fixation cross","null","","","","","","","","","","","",""
"","925","html-keyboard-response","233","204001","0.0-13.0-1.7","xmUQ1iLSN4","5f6388bf9ae5ad07ba1a0173","6617fad957f7c6a12ea16e26","6622cea26530d65ac59f5412","image grid","p","","","","","Ontogenetic_Distractor_notarget","2500","ongrid"," ","6","Ontogenetic","false","experimental"
"","null","html-keyboard-response","234","204168","0.0-13.0-2.7","xmUQ1iLSN4","5f6388bf9ae5ad07ba1a0173","6617fad957f7c6a12ea16e26","6622cea26530d65ac59f5412","
    <div id=""grid-container"">
        <!-- Grid items will be dynamically added here -->
    </div>    ","null","","","","","","","","","","","",""
"","null","html-keyboard-response","235","204892","0.0-13.0-0.8","xmUQ1iLSN4","5f6388bf9ae5ad07ba1a0173","6617fad957f7c6a12ea16e26","6622cea26530d65ac59f5412","fixation cross","null","","","","","","","","","","","",""
"","635","html-keyboard-response","236","205527","0.0-13.0-1.8","xmUQ1iLSN4","5f6388bf9ae5ad07ba1a0173","6617fad957f7c6a12ea16e26","6622cea26530d65ac59f5412","image grid","q","","","","","Ontogenetic_Distractor_Threat_target","2500","ongrid","q","5","Ontogenetic","true","experimental"
"","null","html-keyboard-response","237","205683","0.0-13.0-2.8","xmUQ1iLSN4","5f6388bf9ae5ad07ba1a0173","6617fad957f7c6a12ea16e26","6622cea26530d65ac59f5412","
    <div id=""grid-container"">
        <!-- Grid items will be dynamically added here -->
    </div>    ","null","","","","","","","","","","","",""
"","null","html-keyboard-response","238","206395","0.0-13.0-0.9","xmUQ1iLSN4","5f6388bf9ae5ad07ba1a0173","6617fad957f7c6a12ea16e26","6622cea26530d65ac59f5412","fixation cross","null","","","","","","","","","","","",""
"","577","html-keyboard-response","239","206972","0.0-13.0-1.9","xmUQ1iLSN4","5f6388bf9ae5ad07ba1a0173","6617fad957f7c6a12ea16e26","6622cea26530d65ac59f5412","image grid","q","","","","","Ontogenetic_Distractor_Threat_target","2500","ongrid","q","5","Ontogenetic","true","experimental"
"","null","html-keyboard-response","240","207134","0.0-13.0-2.9","xmUQ1iLSN4","5f6388bf9ae5ad07ba1a0173","6617fad957f7c6a12ea16e26","6622cea26530d65ac59f5412","
    <div id=""grid-container"">
        <!-- Grid items will be dynamically added here -->
    </div>    ","null","","","","","","","","","","","",""
"","null","html-keyboard-response","241","207858","0.0-13.0-0.10","xmUQ1iLSN4","5f6388bf9ae5ad07ba1a0173","6617fad957f7c6a12ea16e26","6622cea26530d65ac59f5412","fixation cross","null","","","","","","","","","","","",""
"","1339","html-keyboard-response","242","209197","0.0-13.0-1.10","xmUQ1iLSN4","5f6388bf9ae5ad07ba1a0173","6617fad957f7c6a12ea16e26","6622cea26530d65ac59f5412","image grid","p","","","","","Ontogenetic_Distractor_Nonthreat_target","2500","ongrid","p","5","Ontogenetic","true","experimental"
"","null","html-keyboard-response","243","209364","0.0-13.0-2.10","xmUQ1iLSN4","5f6388bf9ae5ad07ba1a0173","6617fad957f7c6a12ea16e26","6622cea26530d65ac59f5412","
    <div id=""grid-container"">
        <!-- Grid items will be dynamically added here -->
    </div>    ","null","","","","","","","","","","","",""
"","null","html-keyboard-response","244","210092","0.0-13.0-0.11","xmUQ1iLSN4","5f6388bf9ae5ad07ba1a0173","6617fad957f7c6a12ea16e26","6622cea26530d65ac59f5412","fixation cross","null","","","","","","","","","","","",""
"","1095","html-keyboard-response","245","211187","0.0-13.0-1.11","xmUQ1iLSN4","5f6388bf9ae5ad07ba1a0173","6617fad957f7c6a12ea16e26","6622cea26530d65ac59f5412","image grid","p","","","","","Ontogenetic_Distractor_Nonthreat_target","2500","ongrid","p","4","Ontogenetic","true","experimental"
"","null","html-keyboard-response","246","211350","0.0-13.0-2.11","xmUQ1iLSN4","5f6388bf9ae5ad07ba1a0173","6617fad957f7c6a12ea16e26","6622cea26530d65ac59f5412","
    <div id=""grid-container"">
        <!-- Grid items will be dynamically added here -->
    </div>    ","null","","","","","","","","","","","",""
"","null","html-keyboard-response","247","212073","0.0-13.0-0.12","xmUQ1iLSN4","5f6388bf9ae5ad07ba1a0173","6617fad957f7c6a12ea16e26","6622cea26530d65ac59f5412","fixation cross","null","","","","","","","","","","","",""
"","783","html-keyboard-response","248","212857","0.0-13.0-1.12","xmUQ1iLSN4","5f6388bf9ae5ad07ba1a0173","6617fad957f7c6a12ea16e26","6622cea26530d65ac59f5412","image grid","q","","","","","Ontogenetic_Distractor_Threat_target","2500","ongrid","q","9","Ontogenetic","true","experimental"
"","null","html-keyboard-response","249","213016","0.0-13.0-2.12","xmUQ1iLSN4","5f6388bf9ae5ad07ba1a0173","6617fad957f7c6a12ea16e26","6622cea26530d65ac59f5412","
    <div id=""grid-container"">
        <!-- Grid items will be dynamically added here -->
    </div>    ","null","","","","","","","","","","","",""
"","null","html-keyboard-response","250","213739","0.0-13.0-0.13","xmUQ1iLSN4","5f6388bf9ae5ad07ba1a0173","6617fad957f7c6a12ea16e26","6622cea26530d65ac59f5412","fixation cross","null","","","","","","","","","","","",""
"","824","html-keyboard-response","251","214563","0.0-13.0-1.13","xmUQ1iLSN4","5f6388bf9ae5ad07ba1a0173","6617fad957f7c6a12ea16e26","6622cea26530d65ac59f5412","image grid","p","","","","","Ontogenetic_Distractor_Nonthreat_target","2500","ongrid","p","4","Ontogenetic","true","experimental"
"","null","html-keyboard-response","252","214729","0.0-13.0-2.13","xmUQ1iLSN4","5f6388bf9ae5ad07ba1a0173","6617fad957f7c6a12ea16e26","6622cea26530d65ac59f5412","
    <div id=""grid-container"">
        <!-- Grid items will be dynamically added here -->
    </div>    ","null","","","","","","","","","","","",""
"","null","html-keyboard-response","253","215457","0.0-13.0-0.14","xmUQ1iLSN4","5f6388bf9ae5ad07ba1a0173","6617fad957f7c6a12ea16e26","6622cea26530d65ac59f5412","fixation cross","null","","","","","","","","","","","",""
"","717","html-keyboard-response","254","216175","0.0-13.0-1.14","xmUQ1iLSN4","5f6388bf9ae5ad07ba1a0173","6617fad957f7c6a12ea16e26","6622cea26530d65ac59f5412","image grid","q","","","","","Ontogenetic_Distractor_Threat_target","2500","ongrid","q","7","Ontogenetic","true","experimental"
"","null","html-keyboard-response","255","216331","0.0-13.0-2.14","xmUQ1iLSN4","5f6388bf9ae5ad07ba1a0173","6617fad957f7c6a12ea16e26","6622cea26530d65ac59f5412","
    <div id=""grid-container"">
        <!-- Grid items will be dynamically added here -->
    </div>    ","null","","","","","","","","","","","",""
"","null","html-keyboard-response","256","217056","0.0-13.0-0.15","xmUQ1iLSN4","5f6388bf9ae5ad07ba1a0173","6617fad957f7c6a12ea16e26","6622cea26530d65ac59f5412","fixation cross","null","","","","","","","","","","","",""
"","728","html-keyboard-response","257","217785","0.0-13.0-1.15","xmUQ1iLSN4","5f6388bf9ae5ad07ba1a0173","6617fad957f7c6a12ea16e26","6622cea26530d65ac59f5412","image grid","p","","","","","Ontogenetic_Distractor_Threat_target","2500","ongrid","q","5","Ontogenetic","false","experimental"
"","null","html-keyboard-response","258","217948","0.0-13.0-2.15","xmUQ1iLSN4","5f6388bf9ae5ad07ba1a0173","6617fad957f7c6a12ea16e26","6622cea26530d65ac59f5412","
    <div id=""grid-container"">
        <!-- Grid items will be dynamically added here -->
    </div>    ","null","","","","","","","","","","","",""
"","null","html-keyboard-response","259","218673","0.0-13.0-0.16","xmUQ1iLSN4","5f6388bf9ae5ad07ba1a0173","6617fad957f7c6a12ea16e26","6622cea26530d65ac59f5412","fixation cross","null","","","","","","","","","","","",""
"","868","html-keyboard-response","260","219541","0.0-13.0-1.16","xmUQ1iLSN4","5f6388bf9ae5ad07ba1a0173","6617fad957f7c6a12ea16e26","6622cea26530d65ac59f5412","image grid","q","","","","","Ontogenetic_Distractor_Threat_target","2500","ongrid","q","8","Ontogenetic","true","experimental"
"","null","html-keyboard-response","261","219696","0.0-13.0-2.16","xmUQ1iLSN4","5f6388bf9ae5ad07ba1a0173","6617fad957f7c6a12ea16e26","6622cea26530d65ac59f5412","
    <div id=""grid-container"">
        <!-- Grid items will be dynamically added here -->
    </div>    ","null","","","","","","","","","","","",""
"","null","html-keyboard-response","262","220407","0.0-13.0-0.17","xmUQ1iLSN4","5f6388bf9ae5ad07ba1a0173","6617fad957f7c6a12ea16e26","6622cea26530d65ac59f5412","fixation cross","null","","","","","","","","","","","",""
"","824","html-keyboard-response","263","221232","0.0-13.0-1.17","xmUQ1iLSN4","5f6388bf9ae5ad07ba1a0173","6617fad957f7c6a12ea16e26","6622cea26530d65ac59f5412","image grid","q","","","","","Ontogenetic_Distractor_Threat_target","2500","ongrid","q","6","Ontogenetic","true","experimental"
"","null","html-keyboard-response","264","221396","0.0-13.0-2.17","xmUQ1iLSN4","5f6388bf9ae5ad07ba1a0173","6617fad957f7c6a12ea16e26","6622cea26530d65ac59f5412","
    <div id=""grid-container"">
        <!-- Grid items will be dynamically added here -->
    </div>    ","null","","","","","","","","","","","",""
"","null","html-keyboard-response","265","222121","0.0-13.0-0.18","xmUQ1iLSN4","5f6388bf9ae5ad07ba1a0173","6617fad957f7c6a12ea16e26","6622cea26530d65ac59f5412","fixation cross","null","","","","","","","","","","","",""
"","781","html-keyboard-response","266","222903","0.0-13.0-1.18","xmUQ1iLSN4","5f6388bf9ae5ad07ba1a0173","6617fad957f7c6a12ea16e26","6622cea26530d65ac59f5412","image grid","p","","","","","Ontogenetic_Distractor_Nonthreat_target","2500","ongrid","p","3","Ontogenetic","true","experimental"
"","null","html-keyboard-response","267","223063","0.0-13.0-2.18","xmUQ1iLSN4","5f6388bf9ae5ad07ba1a0173","6617fad957f7c6a12ea16e26","6622cea26530d65ac59f5412","
    <div id=""grid-container"">
        <!-- Grid items will be dynamically added here -->
    </div>    ","null","","","","","","","","","","","",""
"","null","html-keyboard-response","268","223787","0.0-13.0-0.19","xmUQ1iLSN4","5f6388bf9ae5ad07ba1a0173","6617fad957f7c6a12ea16e26","6622cea26530d65ac59f5412","fixation cross","null","","","","","","","","","","","",""
"","1342","html-keyboard-response","269","225130","0.0-13.0-1.19","xmUQ1iLSN4","5f6388bf9ae5ad07ba1a0173","6617fad957f7c6a12ea16e26","6622cea26530d65ac59f5412","image grid","p","","","","","Ontogenetic_Distractor_Nonthreat_target","2500","ongrid","p","2","Ontogenetic","true","experimental"
"","null","html-keyboard-response","270","225295","0.0-13.0-2.19","xmUQ1iLSN4","5f6388bf9ae5ad07ba1a0173","6617fad957f7c6a12ea16e26","6622cea26530d65ac59f5412","
    <div id=""grid-container"">
        <!-- Grid items will be dynamically added here -->
    </div>    ","null","","","","","","","","","","","",""
"","null","html-keyboard-response","271","226020","0.0-13.0-0.20","xmUQ1iLSN4","5f6388bf9ae5ad07ba1a0173","6617fad957f7c6a12ea16e26","6622cea26530d65ac59f5412","fixation cross","null","","","","","","","","","","","",""
"","1191","html-keyboard-response","272","227212","0.0-13.0-1.20","xmUQ1iLSN4","5f6388bf9ae5ad07ba1a0173","6617fad957f7c6a12ea16e26","6622cea26530d65ac59f5412","image grid","p","","","","","Ontogenetic_Distractor_Nonthreat_target","2500","ongrid","p","7","Ontogenetic","true","experimental"
"","null","html-keyboard-response","273","227377","0.0-13.0-2.20","xmUQ1iLSN4","5f6388bf9ae5ad07ba1a0173","6617fad957f7c6a12ea16e26","6622cea26530d65ac59f5412","
    <div id=""grid-container"">
        <!-- Grid items will be dynamically added here -->
    </div>    ","null","","","","","","","","","","","",""
"","null","html-keyboard-response","274","228103","0.0-13.0-0.21","xmUQ1iLSN4","5f6388bf9ae5ad07ba1a0173","6617fad957f7c6a12ea16e26","6622cea26530d65ac59f5412","fixation cross","null","","","","","","","","","","","",""
"","984","html-keyboard-response","275","229087","0.0-13.0-1.21","xmUQ1iLSN4","5f6388bf9ae5ad07ba1a0173","6617fad957f7c6a12ea16e26","6622cea26530d65ac59f5412","image grid","p","","","","","Ontogenetic_Distractor_Nonthreat_target","2500","ongrid","p","3","Ontogenetic","true","experimental"
"","null","html-keyboard-response","276","229243","0.0-13.0-2.21","xmUQ1iLSN4","5f6388bf9ae5ad07ba1a0173","6617fad957f7c6a12ea16e26","6622cea26530d65ac59f5412","
    <div id=""grid-container"">
        <!-- Grid items will be dynamically added here -->
    </div>    ","null","","","","","","","","","","","",""
"","null","html-keyboard-response","277","229967","0.0-13.0-0.22","xmUQ1iLSN4","5f6388bf9ae5ad07ba1a0173","6617fad957f7c6a12ea16e26","6622cea26530d65ac59f5412","fixation cross","null","","","","","","","","","","","",""
"","1170","html-keyboard-response","278","231139","0.0-13.0-1.22","xmUQ1iLSN4","5f6388bf9ae5ad07ba1a0173","6617fad957f7c6a12ea16e26","6622cea26530d65ac59f5412","image grid","p","","","","","Ontogenetic_Distractor_Nonthreat_target","2500","ongrid","p","3","Ontogenetic","true","experimental"
"","null","html-keyboard-response","279","231293","0.0-13.0-2.22","xmUQ1iLSN4","5f6388bf9ae5ad07ba1a0173","6617fad957f7c6a12ea16e26","6622cea26530d65ac59f5412","
    <div id=""grid-container"">
        <!-- Grid items will be dynamically added here -->
    </div>    ","null","","","","","","","","","","","",""
"","null","html-keyboard-response","280","232017","0.0-13.0-0.23","xmUQ1iLSN4","5f6388bf9ae5ad07ba1a0173","6617fad957f7c6a12ea16e26","6622cea26530d65ac59f5412","fixation cross","null","","","","","","","","","","","",""
"","1622","html-keyboard-response","281","233640","0.0-13.0-1.23","xmUQ1iLSN4","5f6388bf9ae5ad07ba1a0173","6617fad957f7c6a12ea16e26","6622cea26530d65ac59f5412","image grid","p","","","","","Ontogenetic_Distractor_Nonthreat_target","2500","ongrid","p","8","Ontogenetic","true","experimental"
"","null","html-keyboard-response","282","233792","0.0-13.0-2.23","xmUQ1iLSN4","5f6388bf9ae5ad07ba1a0173","6617fad957f7c6a12ea16e26","6622cea26530d65ac59f5412","
    <div id=""grid-container"">
        <!-- Grid items will be dynamically added here -->
    </div>    ","null","","","","","","","","","","","",""
"","null","html-keyboard-response","283","234517","0.0-13.0-0.24","xmUQ1iLSN4","5f6388bf9ae5ad07ba1a0173","6617fad957f7c6a12ea16e26","6622cea26530d65ac59f5412","fixation cross","null","","","","","","","","","","","",""
"","675","html-keyboard-response","284","235192","0.0-13.0-1.24","xmUQ1iLSN4","5f6388bf9ae5ad07ba1a0173","6617fad957f7c6a12ea16e26","6622cea26530d65ac59f5412","image grid","q","","","","","Ontogenetic_Distractor_Threat_target","2500","ongrid","q","2","Ontogenetic","true","experimental"
"","null","html-keyboard-response","285","235357","0.0-13.0-2.24","xmUQ1iLSN4","5f6388bf9ae5ad07ba1a0173","6617fad957f7c6a12ea16e26","6622cea26530d65ac59f5412","
    <div id=""grid-container"">
        <!-- Grid items will be dynamically added here -->
    </div>    ","null","","","","","","","","","","","",""
"","null","html-keyboard-response","286","236083","0.0-13.0-0.25","xmUQ1iLSN4","5f6388bf9ae5ad07ba1a0173","6617fad957f7c6a12ea16e26","6622cea26530d65ac59f5412","fixation cross","null","","","","","","","","","","","",""
"","703","html-keyboard-response","287","236787","0.0-13.0-1.25","xmUQ1iLSN4","5f6388bf9ae5ad07ba1a0173","6617fad957f7c6a12ea16e26","6622cea26530d65ac59f5412","image grid","q","","","","","Ontogenetic_Distractor_Threat_target","2500","ongrid","q","1","Ontogenetic","true","experimental"
"","null","html-keyboard-response","288","236942","0.0-13.0-2.25","xmUQ1iLSN4","5f6388bf9ae5ad07ba1a0173","6617fad957f7c6a12ea16e26","6622cea26530d65ac59f5412","
    <div id=""grid-container"">
        <!-- Grid items will be dynamically added here -->
    </div>    ","null","","","","","","","","","","","",""
"","null","html-keyboard-response","289","237666","0.0-13.0-0.26","xmUQ1iLSN4","5f6388bf9ae5ad07ba1a0173","6617fad957f7c6a12ea16e26","6622cea26530d65ac59f5412","fixation cross","null","","","","","","","","","","","",""
"","1319","html-keyboard-response","290","238986","0.0-13.0-1.26","xmUQ1iLSN4","5f6388bf9ae5ad07ba1a0173","6617fad957f7c6a12ea16e26","6622cea26530d65ac59f5412","image grid","p","","","","","Ontogenetic_Distractor_Nonthreat_target","2500","ongrid","p","2","Ontogenetic","true","experimental"
"","null","html-keyboard-response","291","239141","0.0-13.0-2.26","xmUQ1iLSN4","5f6388bf9ae5ad07ba1a0173","6617fad957f7c6a12ea16e26","6622cea26530d65ac59f5412","
    <div id=""grid-container"">
        <!-- Grid items will be dynamically added here -->
    </div>    ","null","","","","","","","","","","","",""
"","null","html-keyboard-response","292","239868","0.0-13.0-0.27","xmUQ1iLSN4","5f6388bf9ae5ad07ba1a0173","6617fad957f7c6a12ea16e26","6622cea26530d65ac59f5412","fixation cross","null","","","","","","","","","","","",""
"","795","html-keyboard-response","293","240664","0.0-13.0-1.27","xmUQ1iLSN4","5f6388bf9ae5ad07ba1a0173","6617fad957f7c6a12ea16e26","6622cea26530d65ac59f5412","image grid","q","","","","","Ontogenetic_Distractor_Threat_target","2500","ongrid","q","1","Ontogenetic","true","experimental"
"","null","html-keyboard-response","294","240823","0.0-13.0-2.27","xmUQ1iLSN4","5f6388bf9ae5ad07ba1a0173","6617fad957f7c6a12ea16e26","6622cea26530d65ac59f5412","
    <div id=""grid-container"">
        <!-- Grid items will be dynamically added here -->
    </div>    ","null","","","","","","","","","","","",""
"","null","html-keyboard-response","295","241547","0.0-13.0-0.28","xmUQ1iLSN4","5f6388bf9ae5ad07ba1a0173","6617fad957f7c6a12ea16e26","6622cea26530d65ac59f5412","fixation cross","null","","","","","","","","","","","",""
"","1055","html-keyboard-response","296","242603","0.0-13.0-1.28","xmUQ1iLSN4","5f6388bf9ae5ad07ba1a0173","6617fad957f7c6a12ea16e26","6622cea26530d65ac59f5412","image grid","p","","","","","Ontogenetic_Distractor_Nonthreat_target","2500","ongrid","p","9","Ontogenetic","true","experimental"
"","null","html-keyboard-response","297","242757","0.0-13.0-2.28","xmUQ1iLSN4","5f6388bf9ae5ad07ba1a0173","6617fad957f7c6a12ea16e26","6622cea26530d65ac59f5412","
    <div id=""grid-container"">
        <!-- Grid items will be dynamically added here -->
    </div>    ","null","","","","","","","","","","","",""
"","null","html-keyboard-response","298","243484","0.0-13.0-0.29","xmUQ1iLSN4","5f6388bf9ae5ad07ba1a0173","6617fad957f7c6a12ea16e26","6622cea26530d65ac59f5412","fixation cross","null","","","","","","","","","","","",""
"","1212","html-keyboard-response","299","244696","0.0-13.0-1.29","xmUQ1iLSN4","5f6388bf9ae5ad07ba1a0173","6617fad957f7c6a12ea16e26","6622cea26530d65ac59f5412","image grid","p","","","","","Ontogenetic_Distractor_Nonthreat_target","2500","ongrid","p","5","Ontogenetic","true","experimental"
"","null","html-keyboard-response","300","244856","0.0-13.0-2.29","xmUQ1iLSN4","5f6388bf9ae5ad07ba1a0173","6617fad957f7c6a12ea16e26","6622cea26530d65ac59f5412","
    <div id=""grid-container"">
        <!-- Grid items will be dynamically added here -->
    </div>    ","null","","","","","","","","","","","",""
"","null","html-keyboard-response","301","245580","0.0-13.0-0.30","xmUQ1iLSN4","5f6388bf9ae5ad07ba1a0173","6617fad957f7c6a12ea16e26","6622cea26530d65ac59f5412","fixation cross","null","","","","","","","","","","","",""
"","1181","html-keyboard-response","302","246761","0.0-13.0-1.30","xmUQ1iLSN4","5f6388bf9ae5ad07ba1a0173","6617fad957f7c6a12ea16e26","6622cea26530d65ac59f5412","image grid","p","","","","","Ontogenetic_Distractor_Nonthreat_target","2500","ongrid","p","4","Ontogenetic","true","experimental"
"","null","html-keyboard-response","303","246922","0.0-13.0-2.30","xmUQ1iLSN4","5f6388bf9ae5ad07ba1a0173","6617fad957f7c6a12ea16e26","6622cea26530d65ac59f5412","
    <div id=""grid-container"">
        <!-- Grid items will be dynamically added here -->
    </div>    ","null","","","","","","","","","","","",""
"","null","html-keyboard-response","304","247646","0.0-13.0-0.31","xmUQ1iLSN4","5f6388bf9ae5ad07ba1a0173","6617fad957f7c6a12ea16e26","6622cea26530d65ac59f5412","fixation cross","null","","","","","","","","","","","",""
"","872","html-keyboard-response","305","248518","0.0-13.0-1.31","xmUQ1iLSN4","5f6388bf9ae5ad07ba1a0173","6617fad957f7c6a12ea16e26","6622cea26530d65ac59f5412","image grid","q","","","","","Ontogenetic_Distractor_Threat_target","2500","ongrid","q","6","Ontogenetic","true","experimental"
"","null","html-keyboard-response","306","248671","0.0-13.0-2.31","xmUQ1iLSN4","5f6388bf9ae5ad07ba1a0173","6617fad957f7c6a12ea16e26","6622cea26530d65ac59f5412","
    <div id=""grid-container"">
        <!-- Grid items will be dynamically added here -->
    </div>    ","null","","","","","","","","","","","",""
"","null","html-keyboard-response","307","249397","0.0-13.0-0.32","xmUQ1iLSN4","5f6388bf9ae5ad07ba1a0173","6617fad957f7c6a12ea16e26","6622cea26530d65ac59f5412","fixation cross","null","","","","","","","","","","","",""
"","936","html-keyboard-response","308","250334","0.0-13.0-1.32","xmUQ1iLSN4","5f6388bf9ae5ad07ba1a0173","6617fad957f7c6a12ea16e26","6622cea26530d65ac59f5412","image grid","p","","","","","Ontogenetic_Distractor_notarget","2500","ongrid"," ","9","Ontogenetic","false","experimental"
"","null","html-keyboard-response","309","250489","0.0-13.0-2.32","xmUQ1iLSN4","5f6388bf9ae5ad07ba1a0173","6617fad957f7c6a12ea16e26","6622cea26530d65ac59f5412","
    <div id=""grid-container"">
        <!-- Grid items will be dynamically added here -->
    </div>    ","null","","","","","","","","","","","",""
"","null","html-keyboard-response","310","251213","0.0-13.0-0.33","xmUQ1iLSN4","5f6388bf9ae5ad07ba1a0173","6617fad957f7c6a12ea16e26","6622cea26530d65ac59f5412","fixation cross","null","","","","","","","","","","","",""
"","651","html-keyboard-response","311","251865","0.0-13.0-1.33","xmUQ1iLSN4","5f6388bf9ae5ad07ba1a0173","6617fad957f7c6a12ea16e26","6622cea26530d65ac59f5412","image grid","q","","","","","Ontogenetic_Distractor_Threat_target","2500","ongrid","q","6","Ontogenetic","true","experimental"
"","null","html-keyboard-response","312","252020","0.0-13.0-2.33","xmUQ1iLSN4","5f6388bf9ae5ad07ba1a0173","6617fad957f7c6a12ea16e26","6622cea26530d65ac59f5412","
    <div id=""grid-container"">
        <!-- Grid items will be dynamically added here -->
    </div>    ","null","","","","","","","","","","","",""
"","null","html-keyboard-response","313","252745","0.0-13.0-0.34","xmUQ1iLSN4","5f6388bf9ae5ad07ba1a0173","6617fad957f7c6a12ea16e26","6622cea26530d65ac59f5412","fixation cross","null","","","","","","","","","","","",""
"","679","html-keyboard-response","314","253425","0.0-13.0-1.34","xmUQ1iLSN4","5f6388bf9ae5ad07ba1a0173","6617fad957f7c6a12ea16e26","6622cea26530d65ac59f5412","image grid","q","","","","","Ontogenetic_Distractor_Threat_target","2500","ongrid","q","5","Ontogenetic","true","experimental"
"","null","html-keyboard-response","315","253587","0.0-13.0-2.34","xmUQ1iLSN4","5f6388bf9ae5ad07ba1a0173","6617fad957f7c6a12ea16e26","6622cea26530d65ac59f5412","
    <div id=""grid-container"">
        <!-- Grid items will be dynamically added here -->
    </div>    ","null","","","","","","","","","","","",""
"","null","html-keyboard-response","316","254312","0.0-13.0-0.35","xmUQ1iLSN4","5f6388bf9ae5ad07ba1a0173","6617fad957f7c6a12ea16e26","6622cea26530d65ac59f5412","fixation cross","null","","","","","","","","","","","",""
"","1034","html-keyboard-response","317","255346","0.0-13.0-1.35","xmUQ1iLSN4","5f6388bf9ae5ad07ba1a0173","6617fad957f7c6a12ea16e26","6622cea26530d65ac59f5412","image grid","q","","","","","Ontogenetic_Distractor_Threat_target","2500","ongrid","q","1","Ontogenetic","true","experimental"
"","null","html-keyboard-response","318","255504","0.0-13.0-2.35","xmUQ1iLSN4","5f6388bf9ae5ad07ba1a0173","6617fad957f7c6a12ea16e26","6622cea26530d65ac59f5412","
    <div id=""grid-container"">
        <!-- Grid items will be dynamically added here -->
    </div>    ","null","","","","","","","","","","","",""
"","null","html-keyboard-response","319","256225","0.0-13.0-0.36","xmUQ1iLSN4","5f6388bf9ae5ad07ba1a0173","6617fad957f7c6a12ea16e26","6622cea26530d65ac59f5412","fixation cross","null","","","","","","","","","","","",""
"","711","html-keyboard-response","320","256937","0.0-13.0-1.36","xmUQ1iLSN4","5f6388bf9ae5ad07ba1a0173","6617fad957f7c6a12ea16e26","6622cea26530d65ac59f5412","image grid","q","","","","","Ontogenetic_Distractor_Threat_target","2500","ongrid","q","5","Ontogenetic","true","experimental"
"","null","html-keyboard-response","321","257102","0.0-13.0-2.36","xmUQ1iLSN4","5f6388bf9ae5ad07ba1a0173","6617fad957f7c6a12ea16e26","6622cea26530d65ac59f5412","
    <div id=""grid-container"">
        <!-- Grid items will be dynamically added here -->
    </div>    ","null","","","","","","","","","","","",""
"","null","html-keyboard-response","322","257829","0.0-13.0-0.37","xmUQ1iLSN4","5f6388bf9ae5ad07ba1a0173","6617fad957f7c6a12ea16e26","6622cea26530d65ac59f5412","fixation cross","null","","","","","","","","","","","",""
"","1039","html-keyboard-response","323","258868","0.0-13.0-1.37","xmUQ1iLSN4","5f6388bf9ae5ad07ba1a0173","6617fad957f7c6a12ea16e26","6622cea26530d65ac59f5412","image grid","q","","","","","Ontogenetic_Distractor_Threat_target","2500","ongrid","q","2","Ontogenetic","true","experimental"
"","null","html-keyboard-response","324","259020","0.0-13.0-2.37","xmUQ1iLSN4","5f6388bf9ae5ad07ba1a0173","6617fad957f7c6a12ea16e26","6622cea26530d65ac59f5412","
    <div id=""grid-container"">
        <!-- Grid items will be dynamically added here -->
    </div>    ","null","","","","","","","","","","","",""
"","null","html-keyboard-response","325","259743","0.0-13.0-0.38","xmUQ1iLSN4","5f6388bf9ae5ad07ba1a0173","6617fad957f7c6a12ea16e26","6622cea26530d65ac59f5412","fixation cross","null","","","","","","","","","","","",""
"","2302","html-keyboard-response","326","262046","0.0-13.0-1.38","xmUQ1iLSN4","5f6388bf9ae5ad07ba1a0173","6617fad957f7c6a12ea16e26","6622cea26530d65ac59f5412","image grid","p","","","","","Ontogenetic_Distractor_Nonthreat_target","2500","ongrid","p","8","Ontogenetic","true","experimental"
"","null","html-keyboard-response","327","262201","0.0-13.0-2.38","xmUQ1iLSN4","5f6388bf9ae5ad07ba1a0173","6617fad957f7c6a12ea16e26","6622cea26530d65ac59f5412","
    <div id=""grid-container"">
        <!-- Grid items will be dynamically added here -->
    </div>    ","null","","","","","","","","","","","",""
"","null","html-keyboard-response","328","262926","0.0-13.0-0.39","xmUQ1iLSN4","5f6388bf9ae5ad07ba1a0173","6617fad957f7c6a12ea16e26","6622cea26530d65ac59f5412","fixation cross","null","","","","","","","","","","","",""
"","795","html-keyboard-response","329","263721","0.0-13.0-1.39","xmUQ1iLSN4","5f6388bf9ae5ad07ba1a0173","6617fad957f7c6a12ea16e26","6622cea26530d65ac59f5412","image grid","q","","","","","Ontogenetic_Distractor_Threat_target","2500","ongrid","q","1","Ontogenetic","true","experimental"
"","null","html-keyboard-response","330","263883","0.0-13.0-2.39","xmUQ1iLSN4","5f6388bf9ae5ad07ba1a0173","6617fad957f7c6a12ea16e26","6622cea26530d65ac59f5412","
    <div id=""grid-container"">
        <!-- Grid items will be dynamically added here -->
    </div>    ","null","","","","","","","","","","","",""
"","1171","html-keyboard-response","331","265267","0.0-14.0","xmUQ1iLSN4","5f6388bf9ae5ad07ba1a0173","6617fad957f7c6a12ea16e26","6622cea26530d65ac59f5412","break screen"," ","","","","","","","","","","","",""
"","null","html-keyboard-response","332","267791","0.0-15.0-0.0","xmUQ1iLSN4","5f6388bf9ae5ad07ba1a0173","6617fad957f7c6a12ea16e26","6622cea26530d65ac59f5412","fixation cross","null","","","","","","","","","","","",""
"","null","html-keyboard-response","333","268607","0.0-15.0-1.0","xmUQ1iLSN4","5f6388bf9ae5ad07ba1a0173","6617fad957f7c6a12ea16e26","6622cea26530d65ac59f5412","
        <div id=""grid-container"">
        <!-- Grid items will be dynamically added here -->
    </div>    ","null","","","","","","","","","","","",""
"","842","html-keyboard-response","334","268650","0.0-15.0-2.0","xmUQ1iLSN4","5f6388bf9ae5ad07ba1a0173","6617fad957f7c6a12ea16e26","6622cea26530d65ac59f5412","mask grid","p","","","","","Phylogenetic_Distractor_Nonthreat_target","800","onmask","p","1","Phylogenetic","true","experimental"
"","null","html-keyboard-response","335","269373","0.0-15.0-0.1","xmUQ1iLSN4","5f6388bf9ae5ad07ba1a0173","6617fad957f7c6a12ea16e26","6622cea26530d65ac59f5412","fixation cross","null","","","","","","","","","","","",""
"","606","html-keyboard-response","336","269979","0.0-15.0-1.1","xmUQ1iLSN4","5f6388bf9ae5ad07ba1a0173","6617fad957f7c6a12ea16e26","6622cea26530d65ac59f5412","image grid","p","","","","","Phylogenetic_Distractor_Nonthreat_target","800","ongrid","p","8","Phylogenetic","true","experimental"
"","null","html-keyboard-response","337","270132","0.0-15.0-2.1","xmUQ1iLSN4","5f6388bf9ae5ad07ba1a0173","6617fad957f7c6a12ea16e26","6622cea26530d65ac59f5412","
    <div id=""grid-container"">
        <!-- Grid items will be dynamically added here -->
    </div>    ","null","","","","","","","","","","","",""
"","null","html-keyboard-response","338","270857","0.0-15.0-0.2","xmUQ1iLSN4","5f6388bf9ae5ad07ba1a0173","6617fad957f7c6a12ea16e26","6622cea26530d65ac59f5412","fixation cross","null","","","","","","","","","","","",""
"","525","html-keyboard-response","339","271382","0.0-15.0-1.2","xmUQ1iLSN4","5f6388bf9ae5ad07ba1a0173","6617fad957f7c6a12ea16e26","6622cea26530d65ac59f5412","image grid","p","","","","","Phylogenetic_Distractor_notarget","800","ongrid"," ","9","Phylogenetic","false","experimental"
"","null","html-keyboard-response","340","271549","0.0-15.0-2.2","xmUQ1iLSN4","5f6388bf9ae5ad07ba1a0173","6617fad957f7c6a12ea16e26","6622cea26530d65ac59f5412","
    <div id=""grid-container"">
        <!-- Grid items will be dynamically added here -->
    </div>    ","null","","","","","","","","","","","",""
"","null","html-keyboard-response","341","272259","0.0-15.0-0.3","xmUQ1iLSN4","5f6388bf9ae5ad07ba1a0173","6617fad957f7c6a12ea16e26","6622cea26530d65ac59f5412","fixation cross","null","","","","","","","","","","","",""
"","504","html-keyboard-response","342","272763","0.0-15.0-1.3","xmUQ1iLSN4","5f6388bf9ae5ad07ba1a0173","6617fad957f7c6a12ea16e26","6622cea26530d65ac59f5412","image grid","p","","","","","Phylogenetic_Distractor_Threat_target","800","ongrid","q","9","Phylogenetic","false","experimental"
"","null","html-keyboard-response","343","272930","0.0-15.0-2.3","xmUQ1iLSN4","5f6388bf9ae5ad07ba1a0173","6617fad957f7c6a12ea16e26","6622cea26530d65ac59f5412","
    <div id=""grid-container"">
        <!-- Grid items will be dynamically added here -->
    </div>    ","null","","","","","","","","","","","",""
"","null","html-keyboard-response","344","273654","0.0-15.0-0.4","xmUQ1iLSN4","5f6388bf9ae5ad07ba1a0173","6617fad957f7c6a12ea16e26","6622cea26530d65ac59f5412","fixation cross","null","","","","","","","","","","","",""
"","608","html-keyboard-response","345","274263","0.0-15.0-1.4","xmUQ1iLSN4","5f6388bf9ae5ad07ba1a0173","6617fad957f7c6a12ea16e26","6622cea26530d65ac59f5412","image grid","p","","","","","Phylogenetic_Distractor_Threat_target","800","ongrid","q","6","Phylogenetic","false","experimental"
"","null","html-keyboard-response","346","274429","0.0-15.0-2.4","xmUQ1iLSN4","5f6388bf9ae5ad07ba1a0173","6617fad957f7c6a12ea16e26","6622cea26530d65ac59f5412","
    <div id=""grid-container"">
        <!-- Grid items will be dynamically added here -->
    </div>    ","null","","","","","","","","","","","",""
"","null","html-keyboard-response","347","275155","0.0-15.0-0.5","xmUQ1iLSN4","5f6388bf9ae5ad07ba1a0173","6617fad957f7c6a12ea16e26","6622cea26530d65ac59f5412","fixation cross","null","","","","","","","","","","","",""
"","725","html-keyboard-response","348","275881","0.0-15.0-1.5","xmUQ1iLSN4","5f6388bf9ae5ad07ba1a0173","6617fad957f7c6a12ea16e26","6622cea26530d65ac59f5412","image grid","p","","","","","Phylogenetic_Distractor_Nonthreat_target","800","ongrid","p","4","Phylogenetic","true","experimental"
"","null","html-keyboard-response","349","276048","0.0-15.0-2.5","xmUQ1iLSN4","5f6388bf9ae5ad07ba1a0173","6617fad957f7c6a12ea16e26","6622cea26530d65ac59f5412","
    <div id=""grid-container"">
        <!-- Grid items will be dynamically added here -->
    </div>    ","null","","","","","","","","","","","",""
"","null","html-keyboard-response","350","276773","0.0-15.0-0.6","xmUQ1iLSN4","5f6388bf9ae5ad07ba1a0173","6617fad957f7c6a12ea16e26","6622cea26530d65ac59f5412","fixation cross","null","","","","","","","","","","","",""
"","562","html-keyboard-response","351","277336","0.0-15.0-1.6","xmUQ1iLSN4","5f6388bf9ae5ad07ba1a0173","6617fad957f7c6a12ea16e26","6622cea26530d65ac59f5412","image grid","p","","","","","Phylogenetic_Distractor_Threat_target","800","ongrid","q","6","Phylogenetic","false","experimental"
"","null","html-keyboard-response","352","277496","0.0-15.0-2.6","xmUQ1iLSN4","5f6388bf9ae5ad07ba1a0173","6617fad957f7c6a12ea16e26","6622cea26530d65ac59f5412","
    <div id=""grid-container"">
        <!-- Grid items will be dynamically added here -->
    </div>    ","null","","","","","","","","","","","",""
"","null","html-keyboard-response","353","278222","0.0-15.0-0.7","xmUQ1iLSN4","5f6388bf9ae5ad07ba1a0173","6617fad957f7c6a12ea16e26","6622cea26530d65ac59f5412","fixation cross","null","","","","","","","","","","","",""
"","null","html-keyboard-response","354","279037","0.0-15.0-1.7","xmUQ1iLSN4","5f6388bf9ae5ad07ba1a0173","6617fad957f7c6a12ea16e26","6622cea26530d65ac59f5412","
        <div id=""grid-container"">
        <!-- Grid items will be dynamically added here -->
    </div>    ","null","","","","","","","","","","","",""
"","847","html-keyboard-response","355","279084","0.0-15.0-2.7","xmUQ1iLSN4","5f6388bf9ae5ad07ba1a0173","6617fad957f7c6a12ea16e26","6622cea26530d65ac59f5412","mask grid","q","","","","","Phylogenetic_Distractor_Threat_target","800","onmask","q","4","Phylogenetic","true","experimental"
"","null","html-keyboard-response","356","279802","0.0-15.0-0.8","xmUQ1iLSN4","5f6388bf9ae5ad07ba1a0173","6617fad957f7c6a12ea16e26","6622cea26530d65ac59f5412","fixation cross","null","","","","","","","","","","","",""
"","751","html-keyboard-response","357","280554","0.0-15.0-1.8","xmUQ1iLSN4","5f6388bf9ae5ad07ba1a0173","6617fad957f7c6a12ea16e26","6622cea26530d65ac59f5412","image grid","p","","","","","Phylogenetic_Distractor_Nonthreat_target","800","ongrid","p","4","Phylogenetic","true","experimental"
"","null","html-keyboard-response","358","280712","0.0-15.0-2.8","xmUQ1iLSN4","5f6388bf9ae5ad07ba1a0173","6617fad957f7c6a12ea16e26","6622cea26530d65ac59f5412","
    <div id=""grid-container"">
        <!-- Grid items will be dynamically added here -->
    </div>    ","null","","","","","","","","","","","",""
"","null","html-keyboard-response","359","281437","0.0-15.0-0.9","xmUQ1iLSN4","5f6388bf9ae5ad07ba1a0173","6617fad957f7c6a12ea16e26","6622cea26530d65ac59f5412","fixation cross","null","","","","","","","","","","","",""
"","607","html-keyboard-response","360","282045","0.0-15.0-1.9","xmUQ1iLSN4","5f6388bf9ae5ad07ba1a0173","6617fad957f7c6a12ea16e26","6622cea26530d65ac59f5412","image grid","q","","","","","Phylogenetic_Distractor_Nonthreat_target","800","ongrid","p","4","Phylogenetic","false","experimental"
"","null","html-keyboard-response","361","282211","0.0-15.0-2.9","xmUQ1iLSN4","5f6388bf9ae5ad07ba1a0173","6617fad957f7c6a12ea16e26","6622cea26530d65ac59f5412","
    <div id=""grid-container"">
        <!-- Grid items will be dynamically added here -->
    </div>    ","null","","","","","","","","","","","",""
"","null","html-keyboard-response","362","282937","0.0-15.0-0.10","xmUQ1iLSN4","5f6388bf9ae5ad07ba1a0173","6617fad957f7c6a12ea16e26","6622cea26530d65ac59f5412","fixation cross","null","","","","","","","","","","","",""
"","585","html-keyboard-response","363","283522","0.0-15.0-1.10","xmUQ1iLSN4","5f6388bf9ae5ad07ba1a0173","6617fad957f7c6a12ea16e26","6622cea26530d65ac59f5412","image grid","p","","","","","Phylogenetic_Distractor_Nonthreat_target","800","ongrid","p","9","Phylogenetic","true","experimental"
"","null","html-keyboard-response","364","283679","0.0-15.0-2.10","xmUQ1iLSN4","5f6388bf9ae5ad07ba1a0173","6617fad957f7c6a12ea16e26","6622cea26530d65ac59f5412","
    <div id=""grid-container"">
        <!-- Grid items will be dynamically added here -->
    </div>    ","null","","","","","","","","","","","",""
"","null","html-keyboard-response","365","284403","0.0-15.0-0.11","xmUQ1iLSN4","5f6388bf9ae5ad07ba1a0173","6617fad957f7c6a12ea16e26","6622cea26530d65ac59f5412","fixation cross","null","","","","","","","","","","","",""
"","794","html-keyboard-response","366","285197","0.0-15.0-1.11","xmUQ1iLSN4","5f6388bf9ae5ad07ba1a0173","6617fad957f7c6a12ea16e26","6622cea26530d65ac59f5412","image grid","q","","","","","Phylogenetic_Distractor_Threat_target","800","ongrid","q","4","Phylogenetic","true","experimental"
"","null","html-keyboard-response","367","285361","0.0-15.0-2.11","xmUQ1iLSN4","5f6388bf9ae5ad07ba1a0173","6617fad957f7c6a12ea16e26","6622cea26530d65ac59f5412","
    <div id=""grid-container"">
        <!-- Grid items will be dynamically added here -->
    </div>    ","null","","","","","","","","","","","",""
"","null","html-keyboard-response","368","286084","0.0-15.0-0.12","xmUQ1iLSN4","5f6388bf9ae5ad07ba1a0173","6617fad957f7c6a12ea16e26","6622cea26530d65ac59f5412","fixation cross","null","","","","","","","","","","","",""
"","null","html-keyboard-response","369","286885","0.0-15.0-1.12","xmUQ1iLSN4","5f6388bf9ae5ad07ba1a0173","6617fad957f7c6a12ea16e26","6622cea26530d65ac59f5412","
        <div id=""grid-container"">
        <!-- Grid items will be dynamically added here -->
    </div>    ","null","","","","","","","","","","","",""
"","986","html-keyboard-response","370","287072","0.0-15.0-2.12","xmUQ1iLSN4","5f6388bf9ae5ad07ba1a0173","6617fad957f7c6a12ea16e26","6622cea26530d65ac59f5412","mask grid","q","","","","","Phylogenetic_Distractor_Threat_target","800","onmask","q","9","Phylogenetic","true","experimental"
