"success","rt","trial_type","trial_index","time_elapsed","internal_node_id","unique_identifier","subject_id","study_id","session_id","stimulus","response","timeout","failed_images","failed_audio","failed_video","task","time_manipulation","respondedwhen","correctresponse","targetimagelocation","blocktype","correct","roundtype"
"true","4841","fullscreen","0","5839","0.0-0.0","tse1TClNOu","65962583a4a7e426d3583707","6617fad957f7c6a12ea16e26","6622d00f5b79381c6183f13d","","","","","","","","","","","","","",""
"","6140","html-keyboard-response","1","11977","0.0-1.0","tse1TClNOu","65962583a4a7e426d3583707","6617fad957f7c6a12ea16e26","6622d00f5b79381c6183f13d","instruction screen 0"," ","","","","","","","","","","","",""
"true","","preload","2","14188","0.0-2.0","tse1TClNOu","65962583a4a7e426d3583707","6617fad957f7c6a12ea16e26","6622d00f5b79381c6183f13d","","","false","[]","[]","[]","","","","","","","",""
"","6321","html-keyboard-response","3","20508","0.0-3.0","tse1TClNOu","65962583a4a7e426d3583707","6617fad957f7c6a12ea16e26","6622d00f5b79381c6183f13d","instruction screen 1"," ","","","","","","","","","","","",""
"","9062","html-keyboard-response","4","29573","0.0-4.0","tse1TClNOu","65962583a4a7e426d3583707","6617fad957f7c6a12ea16e26","6622d00f5b79381c6183f13d","instruction screen 2","q","","","","","","","","","","","",""
"","2730","html-keyboard-response","5","32307","0.0-5.0","tse1TClNOu","65962583a4a7e426d3583707","6617fad957f7c6a12ea16e26","6622d00f5b79381c6183f13d","instruction screen 3","p","","","","","","","","","","","",""
"","2921","html-keyboard-response","6","35232","0.0-6.0","tse1TClNOu","65962583a4a7e426d3583707","6617fad957f7c6a12ea16e26","6622d00f5b79381c6183f13d","instruction screen 4"," ","","","","","","","","","","","",""
"","3597","html-keyboard-response","7","38833","0.0-7.0","tse1TClNOu","65962583a4a7e426d3583707","6617fad957f7c6a12ea16e26","6622d00f5b79381c6183f13d","instruction screen 5"," ","","","","","","","","","","","",""
"","null","html-keyboard-response","8","39338","0.0-8.0","tse1TClNOu","65962583a4a7e426d3583707","6617fad957f7c6a12ea16e26","6622d00f5b79381c6183f13d","fixation cross","null","","","","","","","","","","","",""
"","null","html-keyboard-response","9","39841","0.0-9.0-0.0","tse1TClNOu","65962583a4a7e426d3583707","6617fad957f7c6a12ea16e26","6622d00f5b79381c6183f13d","fixation cross","null","","","","","","","","","","","",""
"","1050","html-keyboard-response","10","40893","0.0-9.0-1.0","tse1TClNOu","65962583a4a7e426d3583707","6617fad957f7c6a12ea16e26","6622d00f5b79381c6183f13d","image grid","q","","","","","Ontogenetic_Distractor_Threat_target","3000","ongrid","q","1","Ontogenetic","true","practice"
"","null","html-keyboard-response","11","41046","0.0-9.0-2.0","tse1TClNOu","65962583a4a7e426d3583707","6617fad957f7c6a12ea16e26","6622d00f5b79381c6183f13d","
    <div id=""grid-container"">
        <!-- Grid items will be dynamically added here -->
    </div>    ","null","","","","","","","","","","","",""
"","null","html-keyboard-response","12","42251","0.0-9.0-3.0","tse1TClNOu","65962583a4a7e426d3583707","6617fad957f7c6a12ea16e26","6622d00f5b79381c6183f13d","feedback screen","null","","","","","","","","","","","",""
"","null","html-keyboard-response","13","42758","0.0-9.0-0.1","tse1TClNOu","65962583a4a7e426d3583707","6617fad957f7c6a12ea16e26","6622d00f5b79381c6183f13d","fixation cross","null","","","","","","","","","","","",""
"","1769","html-keyboard-response","14","44529","0.0-9.0-1.1","tse1TClNOu","65962583a4a7e426d3583707","6617fad957f7c6a12ea16e26","6622d00f5b79381c6183f13d","image grid","p","","","","","Phylogenetic_Distractor_Nonthreat_target","2900","ongrid","p","6","Ontogenetic","true","practice"
"","null","html-keyboard-response","15","44681","0.0-9.0-2.1","tse1TClNOu","65962583a4a7e426d3583707","6617fad957f7c6a12ea16e26","6622d00f5b79381c6183f13d","
    <div id=""grid-container"">
        <!-- Grid items will be dynamically added here -->
    </div>    ","null","","","","","","","","","","","",""
"","null","html-keyboard-response","16","45886","0.0-9.0-3.1","tse1TClNOu","65962583a4a7e426d3583707","6617fad957f7c6a12ea16e26","6622d00f5b79381c6183f13d","feedback screen","null","","","","","","","","","","","",""
"","null","html-keyboard-response","17","46392","0.0-9.0-0.2","tse1TClNOu","65962583a4a7e426d3583707","6617fad957f7c6a12ea16e26","6622d00f5b79381c6183f13d","fixation cross","null","","","","","","","","","","","",""
"","1611","html-keyboard-response","18","48004","0.0-9.0-1.2","tse1TClNOu","65962583a4a7e426d3583707","6617fad957f7c6a12ea16e26","6622d00f5b79381c6183f13d","image grid","p","","","","","Ontogenetic_Distractor_Nonthreat_target","2800","ongrid","p","3","Ontogenetic","true","practice"
"","null","html-keyboard-response","19","48156","0.0-9.0-2.2","tse1TClNOu","65962583a4a7e426d3583707","6617fad957f7c6a12ea16e26","6622d00f5b79381c6183f13d","
    <div id=""grid-container"">
        <!-- Grid items will be dynamically added here -->
    </div>    ","null","","","","","","","","","","","",""
"","null","html-keyboard-response","20","49361","0.0-9.0-3.2","tse1TClNOu","65962583a4a7e426d3583707","6617fad957f7c6a12ea16e26","6622d00f5b79381c6183f13d","feedback screen","null","","","","","","","","","","","",""
"","null","html-keyboard-response","21","49868","0.0-9.0-0.3","tse1TClNOu","65962583a4a7e426d3583707","6617fad957f7c6a12ea16e26","6622d00f5b79381c6183f13d","fixation cross","null","","","","","","","","","","","",""
"","885","html-keyboard-response","22","50754","0.0-9.0-1.3","tse1TClNOu","65962583a4a7e426d3583707","6617fad957f7c6a12ea16e26","6622d00f5b79381c6183f13d","image grid","q","","","","","Ontogenetic_Distractor_Threat_target","2700","ongrid","q","3","Ontogenetic","true","practice"
"","null","html-keyboard-response","23","50906","0.0-9.0-2.3","tse1TClNOu","65962583a4a7e426d3583707","6617fad957f7c6a12ea16e26","6622d00f5b79381c6183f13d","
    <div id=""grid-container"">
        <!-- Grid items will be dynamically added here -->
    </div>    ","null","","","","","","","","","","","",""
"","null","html-keyboard-response","24","52111","0.0-9.0-3.3","tse1TClNOu","65962583a4a7e426d3583707","6617fad957f7c6a12ea16e26","6622d00f5b79381c6183f13d","feedback screen","null","","","","","","","","","","","",""
"","null","html-keyboard-response","25","52618","0.0-9.0-0.4","tse1TClNOu","65962583a4a7e426d3583707","6617fad957f7c6a12ea16e26","6622d00f5b79381c6183f13d","fixation cross","null","","","","","","","","","","","",""
"","1685","html-keyboard-response","26","54303","0.0-9.0-1.4","tse1TClNOu","65962583a4a7e426d3583707","6617fad957f7c6a12ea16e26","6622d00f5b79381c6183f13d","image grid"," ","","","","","Phylogenetic_Distractor_Threat_target","2600","ongrid","q","6","Ontogenetic","false","practice"
"","null","html-keyboard-response","27","54455","0.0-9.0-2.4","tse1TClNOu","65962583a4a7e426d3583707","6617fad957f7c6a12ea16e26","6622d00f5b79381c6183f13d","
    <div id=""grid-container"">
        <!-- Grid items will be dynamically added here -->
    </div>    ","null","","","","","","","","","","","",""
"","null","html-keyboard-response","28","55659","0.0-9.0-3.4","tse1TClNOu","65962583a4a7e426d3583707","6617fad957f7c6a12ea16e26","6622d00f5b79381c6183f13d","feedback screen","null","","","","","","","","","","","",""
"","null","html-keyboard-response","29","56166","0.0-9.0-0.5","tse1TClNOu","65962583a4a7e426d3583707","6617fad957f7c6a12ea16e26","6622d00f5b79381c6183f13d","fixation cross","null","","","","","","","","","","","",""
"","1415","html-keyboard-response","30","57581","0.0-9.0-1.5","tse1TClNOu","65962583a4a7e426d3583707","6617fad957f7c6a12ea16e26","6622d00f5b79381c6183f13d","image grid"," ","","","","","Phylogenetic_Distractor_notarget","2500","ongrid"," ","6","Ontogenetic","true","practice"
"","null","html-keyboard-response","31","57734","0.0-9.0-2.5","tse1TClNOu","65962583a4a7e426d3583707","6617fad957f7c6a12ea16e26","6622d00f5b79381c6183f13d","
    <div id=""grid-container"">
        <!-- Grid items will be dynamically added here -->
    </div>    ","null","","","","","","","","","","","",""
"","null","html-keyboard-response","32","58938","0.0-9.0-3.5","tse1TClNOu","65962583a4a7e426d3583707","6617fad957f7c6a12ea16e26","6622d00f5b79381c6183f13d","feedback screen","null","","","","","","","","","","","",""
"","null","html-keyboard-response","33","59444","0.0-9.0-0.6","tse1TClNOu","65962583a4a7e426d3583707","6617fad957f7c6a12ea16e26","6622d00f5b79381c6183f13d","fixation cross","null","","","","","","","","","","","",""
"","1295","html-keyboard-response","34","60740","0.0-9.0-1.6","tse1TClNOu","65962583a4a7e426d3583707","6617fad957f7c6a12ea16e26","6622d00f5b79381c6183f13d","image grid","p","","","","","Phylogenetic_Distractor_Threat_target","2400","ongrid","q","6","Ontogenetic","false","practice"
"","null","html-keyboard-response","35","60893","0.0-9.0-2.6","tse1TClNOu","65962583a4a7e426d3583707","6617fad957f7c6a12ea16e26","6622d00f5b79381c6183f13d","
    <div id=""grid-container"">
        <!-- Grid items will be dynamically added here -->
    </div>    ","null","","","","","","","","","","","",""
"","null","html-keyboard-response","36","62097","0.0-9.0-3.6","tse1TClNOu","65962583a4a7e426d3583707","6617fad957f7c6a12ea16e26","6622d00f5b79381c6183f13d","feedback screen","null","","","","","","","","","","","",""
"","null","html-keyboard-response","37","62603","0.0-9.0-0.7","tse1TClNOu","65962583a4a7e426d3583707","6617fad957f7c6a12ea16e26","6622d00f5b79381c6183f13d","fixation cross","null","","","","","","","","","","","",""
"","null","html-keyboard-response","38","64906","0.0-9.0-1.7","tse1TClNOu","65962583a4a7e426d3583707","6617fad957f7c6a12ea16e26","6622d00f5b79381c6183f13d","
        <div id=""grid-container"">
        <!-- Grid items will be dynamically added here -->
    </div>    ","null","","","","","","","","","","","",""
"","2818","html-keyboard-response","39","65424","0.0-9.0-2.7","tse1TClNOu","65962583a4a7e426d3583707","6617fad957f7c6a12ea16e26","6622d00f5b79381c6183f13d","mask grid","p","","","","","Phylogenetic_Distractor_Nonthreat_target","2300","onmask","p","5","Ontogenetic","true","practice"
"","null","html-keyboard-response","40","66630","0.0-9.0-3.7","tse1TClNOu","65962583a4a7e426d3583707","6617fad957f7c6a12ea16e26","6622d00f5b79381c6183f13d","feedback screen","null","","","","","","","","","","","",""
"","null","html-keyboard-response","41","67137","0.0-9.0-0.8","tse1TClNOu","65962583a4a7e426d3583707","6617fad957f7c6a12ea16e26","6622d00f5b79381c6183f13d","fixation cross","null","","","","","","","","","","","",""
"","1509","html-keyboard-response","42","68647","0.0-9.0-1.8","tse1TClNOu","65962583a4a7e426d3583707","6617fad957f7c6a12ea16e26","6622d00f5b79381c6183f13d","image grid"," ","","","","","Phylogenetic_Distractor_Nonthreat_target","2200","ongrid","p","3","Ontogenetic","false","practice"
"","null","html-keyboard-response","43","68799","0.0-9.0-2.8","tse1TClNOu","65962583a4a7e426d3583707","6617fad957f7c6a12ea16e26","6622d00f5b79381c6183f13d","
    <div id=""grid-container"">
        <!-- Grid items will be dynamically added here -->
    </div>    ","null","","","","","","","","","","","",""
"","null","html-keyboard-response","44","70003","0.0-9.0-3.8","tse1TClNOu","65962583a4a7e426d3583707","6617fad957f7c6a12ea16e26","6622d00f5b79381c6183f13d","feedback screen","null","","","","","","","","","","","",""
"","null","html-keyboard-response","45","70509","0.0-9.0-0.9","tse1TClNOu","65962583a4a7e426d3583707","6617fad957f7c6a12ea16e26","6622d00f5b79381c6183f13d","fixation cross","null","","","","","","","","","","","",""
"","1644","html-keyboard-response","46","72154","0.0-9.0-1.9","tse1TClNOu","65962583a4a7e426d3583707","6617fad957f7c6a12ea16e26","6622d00f5b79381c6183f13d","image grid"," ","","","","","Ontogenetic_Distractor_notarget","2100","ongrid"," ","5","Ontogenetic","true","practice"
"","null","html-keyboard-response","47","72307","0.0-9.0-2.9","tse1TClNOu","65962583a4a7e426d3583707","6617fad957f7c6a12ea16e26","6622d00f5b79381c6183f13d","
    <div id=""grid-container"">
        <!-- Grid items will be dynamically added here -->
    </div>    ","null","","","","","","","","","","","",""
"","null","html-keyboard-response","48","73512","0.0-9.0-3.9","tse1TClNOu","65962583a4a7e426d3583707","6617fad957f7c6a12ea16e26","6622d00f5b79381c6183f13d","feedback screen","null","","","","","","","","","","","",""
"","null","html-keyboard-response","49","74018","0.0-9.0-0.10","tse1TClNOu","65962583a4a7e426d3583707","6617fad957f7c6a12ea16e26","6622d00f5b79381c6183f13d","fixation cross","null","","","","","","","","","","","",""
"","1484","html-keyboard-response","50","75503","0.0-9.0-1.10","tse1TClNOu","65962583a4a7e426d3583707","6617fad957f7c6a12ea16e26","6622d00f5b79381c6183f13d","image grid","p","","","","","Phylogenetic_Distractor_Threat_target","2000","ongrid","q","5","Ontogenetic","false","practice"
"","null","html-keyboard-response","51","75655","0.0-9.0-2.10","tse1TClNOu","65962583a4a7e426d3583707","6617fad957f7c6a12ea16e26","6622d00f5b79381c6183f13d","
    <div id=""grid-container"">
        <!-- Grid items will be dynamically added here -->
    </div>    ","null","","","","","","","","","","","",""
"","null","html-keyboard-response","52","76859","0.0-9.0-3.10","tse1TClNOu","65962583a4a7e426d3583707","6617fad957f7c6a12ea16e26","6622d00f5b79381c6183f13d","feedback screen","null","","","","","","","","","","","",""
"","null","html-keyboard-response","53","77365","0.0-9.0-0.11","tse1TClNOu","65962583a4a7e426d3583707","6617fad957f7c6a12ea16e26","6622d00f5b79381c6183f13d","fixation cross","null","","","","","","","","","","","",""
"","945","html-keyboard-response","54","78311","0.0-9.0-1.11","tse1TClNOu","65962583a4a7e426d3583707","6617fad957f7c6a12ea16e26","6622d00f5b79381c6183f13d","image grid","p","","","","","Phylogenetic_Distractor_Threat_target","1900","ongrid","q","3","Ontogenetic","false","practice"
"","null","html-keyboard-response","55","78464","0.0-9.0-2.11","tse1TClNOu","65962583a4a7e426d3583707","6617fad957f7c6a12ea16e26","6622d00f5b79381c6183f13d","
    <div id=""grid-container"">
        <!-- Grid items will be dynamically added here -->
    </div>    ","null","","","","","","","","","","","",""
"","null","html-keyboard-response","56","79669","0.0-9.0-3.11","tse1TClNOu","65962583a4a7e426d3583707","6617fad957f7c6a12ea16e26","6622d00f5b79381c6183f13d","feedback screen","null","","","","","","","","","","","",""
"","null","html-keyboard-response","57","80174","0.0-9.0-0.12","tse1TClNOu","65962583a4a7e426d3583707","6617fad957f7c6a12ea16e26","6622d00f5b79381c6183f13d","fixation cross","null","","","","","","","","","","","",""
"","1025","html-keyboard-response","58","81200","0.0-9.0-1.12","tse1TClNOu","65962583a4a7e426d3583707","6617fad957f7c6a12ea16e26","6622d00f5b79381c6183f13d","image grid","q","","","","","Ontogenetic_Distractor_Threat_target","1800","ongrid","q","9","Ontogenetic","true","practice"
"","null","html-keyboard-response","59","81351","0.0-9.0-2.12","tse1TClNOu","65962583a4a7e426d3583707","6617fad957f7c6a12ea16e26","6622d00f5b79381c6183f13d","
    <div id=""grid-container"">
        <!-- Grid items will be dynamically added here -->
    </div>    ","null","","","","","","","","","","","",""
"","null","html-keyboard-response","60","82556","0.0-9.0-3.12","tse1TClNOu","65962583a4a7e426d3583707","6617fad957f7c6a12ea16e26","6622d00f5b79381c6183f13d","feedback screen","null","","","","","","","","","","","",""
"","null","html-keyboard-response","61","83062","0.0-9.0-0.13","tse1TClNOu","65962583a4a7e426d3583707","6617fad957f7c6a12ea16e26","6622d00f5b79381c6183f13d","fixation cross","null","","","","","","","","","","","",""
"","1026","html-keyboard-response","62","84089","0.0-9.0-1.13","tse1TClNOu","65962583a4a7e426d3583707","6617fad957f7c6a12ea16e26","6622d00f5b79381c6183f13d","image grid","p","","","","","Ontogenetic_Distractor_Nonthreat_target","1700","ongrid","p","1","Ontogenetic","true","practice"
"","null","html-keyboard-response","63","84242","0.0-9.0-2.13","tse1TClNOu","65962583a4a7e426d3583707","6617fad957f7c6a12ea16e26","6622d00f5b79381c6183f13d","
    <div id=""grid-container"">
        <!-- Grid items will be dynamically added here -->
    </div>    ","null","","","","","","","","","","","",""
"","null","html-keyboard-response","64","85447","0.0-9.0-3.13","tse1TClNOu","65962583a4a7e426d3583707","6617fad957f7c6a12ea16e26","6622d00f5b79381c6183f13d","feedback screen","null","","","","","","","","","","","",""
"","null","html-keyboard-response","65","85954","0.0-9.0-0.14","tse1TClNOu","65962583a4a7e426d3583707","6617fad957f7c6a12ea16e26","6622d00f5b79381c6183f13d","fixation cross","null","","","","","","","","","","","",""
"","941","html-keyboard-response","66","86895","0.0-9.0-1.14","tse1TClNOu","65962583a4a7e426d3583707","6617fad957f7c6a12ea16e26","6622d00f5b79381c6183f13d","image grid","p","","","","","Ontogenetic_Distractor_Nonthreat_target","1600","ongrid","p","3","Ontogenetic","true","practice"
"","null","html-keyboard-response","67","87048","0.0-9.0-2.14","tse1TClNOu","65962583a4a7e426d3583707","6617fad957f7c6a12ea16e26","6622d00f5b79381c6183f13d","
    <div id=""grid-container"">
        <!-- Grid items will be dynamically added here -->
    </div>    ","null","","","","","","","","","","","",""
"","null","html-keyboard-response","68","88253","0.0-9.0-3.14","tse1TClNOu","65962583a4a7e426d3583707","6617fad957f7c6a12ea16e26","6622d00f5b79381c6183f13d","feedback screen","null","","","","","","","","","","","",""
"","null","html-keyboard-response","69","88760","0.0-9.0-0.15","tse1TClNOu","65962583a4a7e426d3583707","6617fad957f7c6a12ea16e26","6622d00f5b79381c6183f13d","fixation cross","null","","","","","","","","","","","",""
"","1214","html-keyboard-response","70","89975","0.0-9.0-1.15","tse1TClNOu","65962583a4a7e426d3583707","6617fad957f7c6a12ea16e26","6622d00f5b79381c6183f13d","image grid","p","","","","","Ontogenetic_Distractor_Nonthreat_target","1500","ongrid","p","1","Ontogenetic","true","practice"
"","null","html-keyboard-response","71","90128","0.0-9.0-2.15","tse1TClNOu","65962583a4a7e426d3583707","6617fad957f7c6a12ea16e26","6622d00f5b79381c6183f13d","
    <div id=""grid-container"">
        <!-- Grid items will be dynamically added here -->
    </div>    ","null","","","","","","","","","","","",""
"","null","html-keyboard-response","72","91332","0.0-9.0-3.15","tse1TClNOu","65962583a4a7e426d3583707","6617fad957f7c6a12ea16e26","6622d00f5b79381c6183f13d","feedback screen","null","","","","","","","","","","","",""
"","null","html-keyboard-response","73","91839","0.0-9.0-0.16","tse1TClNOu","65962583a4a7e426d3583707","6617fad957f7c6a12ea16e26","6622d00f5b79381c6183f13d","fixation cross","null","","","","","","","","","","","",""
"","1053","html-keyboard-response","74","92893","0.0-9.0-1.16","tse1TClNOu","65962583a4a7e426d3583707","6617fad957f7c6a12ea16e26","6622d00f5b79381c6183f13d","image grid"," ","","","","","Phylogenetic_Distractor_notarget","1400","ongrid"," ","7","Ontogenetic","true","practice"
"","null","html-keyboard-response","75","93046","0.0-9.0-2.16","tse1TClNOu","65962583a4a7e426d3583707","6617fad957f7c6a12ea16e26","6622d00f5b79381c6183f13d","
    <div id=""grid-container"">
        <!-- Grid items will be dynamically added here -->
    </div>    ","null","","","","","","","","","","","",""
"","null","html-keyboard-response","76","94251","0.0-9.0-3.16","tse1TClNOu","65962583a4a7e426d3583707","6617fad957f7c6a12ea16e26","6622d00f5b79381c6183f13d","feedback screen","null","","","","","","","","","","","",""
"","null","html-keyboard-response","77","94757","0.0-9.0-0.17","tse1TClNOu","65962583a4a7e426d3583707","6617fad957f7c6a12ea16e26","6622d00f5b79381c6183f13d","fixation cross","null","","","","","","","","","","","",""
"","null","html-keyboard-response","78","96059","0.0-9.0-1.17","tse1TClNOu","65962583a4a7e426d3583707","6617fad957f7c6a12ea16e26","6622d00f5b79381c6183f13d","
        <div id=""grid-container"">
        <!-- Grid items will be dynamically added here -->
    </div>    ","null","","","","","","","","","","","",""
"","1890","html-keyboard-response","79","96651","0.0-9.0-2.17","tse1TClNOu","65962583a4a7e426d3583707","6617fad957f7c6a12ea16e26","6622d00f5b79381c6183f13d","mask grid"," ","","","","","Ontogenetic_Distractor_notarget","1300","onmask"," ","9","Ontogenetic","true","practice"
"","null","html-keyboard-response","80","97855","0.0-9.0-3.17","tse1TClNOu","65962583a4a7e426d3583707","6617fad957f7c6a12ea16e26","6622d00f5b79381c6183f13d","feedback screen","null","","","","","","","","","","","",""
"","null","html-keyboard-response","81","98361","0.0-9.0-0.18","tse1TClNOu","65962583a4a7e426d3583707","6617fad957f7c6a12ea16e26","6622d00f5b79381c6183f13d","fixation cross","null","","","","","","","","","","","",""
"","null","html-keyboard-response","82","99564","0.0-9.0-1.18","tse1TClNOu","65962583a4a7e426d3583707","6617fad957f7c6a12ea16e26","6622d00f5b79381c6183f13d","
        <div id=""grid-container"">
        <!-- Grid items will be dynamically added here -->
    </div>    ","null","","","","","","","","","","","",""
"","1703","html-keyboard-response","83","100067","0.0-9.0-2.18","tse1TClNOu","65962583a4a7e426d3583707","6617fad957f7c6a12ea16e26","6622d00f5b79381c6183f13d","mask grid","q","","","","","Ontogenetic_Distractor_Threat_target","1200","onmask","q","3","Ontogenetic","true","practice"
"","null","html-keyboard-response","84","101272","0.0-9.0-3.18","tse1TClNOu","65962583a4a7e426d3583707","6617fad957f7c6a12ea16e26","6622d00f5b79381c6183f13d","feedback screen","null","","","","","","","","","","","",""
"","null","html-keyboard-response","85","101778","0.0-9.0-0.19","tse1TClNOu","65962583a4a7e426d3583707","6617fad957f7c6a12ea16e26","6622d00f5b79381c6183f13d","fixation cross","null","","","","","","","","","","","",""
"","null","html-keyboard-response","86","102881","0.0-9.0-1.19","tse1TClNOu","65962583a4a7e426d3583707","6617fad957f7c6a12ea16e26","6622d00f5b79381c6183f13d","
        <div id=""grid-container"">
        <!-- Grid items will be dynamically added here -->
    </div>    ","null","","","","","","","","","","","",""
"","1448","html-keyboard-response","87","103230","0.0-9.0-2.19","tse1TClNOu","65962583a4a7e426d3583707","6617fad957f7c6a12ea16e26","6622d00f5b79381c6183f13d","mask grid","p","","","","","Phylogenetic_Distractor_Nonthreat_target","1100","onmask","p","5","Ontogenetic","true","practice"
"","null","html-keyboard-response","88","104435","0.0-9.0-3.19","tse1TClNOu","65962583a4a7e426d3583707","6617fad957f7c6a12ea16e26","6622d00f5b79381c6183f13d","feedback screen","null","","","","","","","","","","","",""
"","8977","html-keyboard-response","89","113452","0.0-10.0","tse1TClNOu","65962583a4a7e426d3583707","6617fad957f7c6a12ea16e26","6622d00f5b79381c6183f13d","pre-experimental_briefing"," ","","","","","","","","","","","",""
"","null","html-keyboard-response","90","115990","0.0-11.0-0.0","tse1TClNOu","65962583a4a7e426d3583707","6617fad957f7c6a12ea16e26","6622d00f5b79381c6183f13d","fixation cross","null","","","","","","","","","","","",""
"","null","html-keyboard-response","91","116793","0.0-11.0-1.0","tse1TClNOu","65962583a4a7e426d3583707","6617fad957f7c6a12ea16e26","6622d00f5b79381c6183f13d","
        <div id=""grid-container"">
        <!-- Grid items will be dynamically added here -->
    </div>    ","null","","","","","","","","","","","",""
"","1466","html-keyboard-response","92","117459","0.0-11.0-2.0","tse1TClNOu","65962583a4a7e426d3583707","6617fad957f7c6a12ea16e26","6622d00f5b79381c6183f13d","mask grid","p","","","","","Ontogenetic_Distractor_Nonthreat_target","800","onmask","p","8","Ontogenetic","true","experimental"
"","null","html-keyboard-response","93","118164","0.0-11.0-0.1","tse1TClNOu","65962583a4a7e426d3583707","6617fad957f7c6a12ea16e26","6622d00f5b79381c6183f13d","fixation cross","null","","","","","","","","","","","",""
"","null","html-keyboard-response","94","118966","0.0-11.0-1.1","tse1TClNOu","65962583a4a7e426d3583707","6617fad957f7c6a12ea16e26","6622d00f5b79381c6183f13d","
        <div id=""grid-container"">
        <!-- Grid items will be dynamically added here -->
    </div>    ","null","","","","","","","","","","","",""
"","1132","html-keyboard-response","95","119298","0.0-11.0-2.1","tse1TClNOu","65962583a4a7e426d3583707","6617fad957f7c6a12ea16e26","6622d00f5b79381c6183f13d","mask grid","q","","","","","Ontogenetic_Distractor_Threat_target","800","onmask","q","9","Ontogenetic","true","experimental"
"","null","html-keyboard-response","96","120002","0.0-11.0-0.2","tse1TClNOu","65962583a4a7e426d3583707","6617fad957f7c6a12ea16e26","6622d00f5b79381c6183f13d","fixation cross","null","","","","","","","","","","","",""
"","751","html-keyboard-response","97","120754","0.0-11.0-1.2","tse1TClNOu","65962583a4a7e426d3583707","6617fad957f7c6a12ea16e26","6622d00f5b79381c6183f13d","image grid","q","","","","","Ontogenetic_Distractor_Threat_target","800","ongrid","q","7","Ontogenetic","true","experimental"
"","null","html-keyboard-response","98","120907","0.0-11.0-2.2","tse1TClNOu","65962583a4a7e426d3583707","6617fad957f7c6a12ea16e26","6622d00f5b79381c6183f13d","
    <div id=""grid-container"">
        <!-- Grid items will be dynamically added here -->
    </div>    ","null","","","","","","","","","","","",""
"","null","html-keyboard-response","99","121611","0.0-11.0-0.3","tse1TClNOu","65962583a4a7e426d3583707","6617fad957f7c6a12ea16e26","6622d00f5b79381c6183f13d","fixation cross","null","","","","","","","","","","","",""
"","null","html-keyboard-response","100","122413","0.0-11.0-1.3","tse1TClNOu","65962583a4a7e426d3583707","6617fad957f7c6a12ea16e26","6622d00f5b79381c6183f13d","
        <div id=""grid-container"">
        <!-- Grid items will be dynamically added here -->
    </div>    ","null","","","","","","","","","","","",""
"","1173","html-keyboard-response","101","122788","0.0-11.0-2.3","tse1TClNOu","65962583a4a7e426d3583707","6617fad957f7c6a12ea16e26","6622d00f5b79381c6183f13d","mask grid","p","","","","","Ontogenetic_Distractor_Nonthreat_target","800","onmask","p","9","Ontogenetic","true","experimental"
"","null","html-keyboard-response","102","123492","0.0-11.0-0.4","tse1TClNOu","65962583a4a7e426d3583707","6617fad957f7c6a12ea16e26","6622d00f5b79381c6183f13d","fixation cross","null","","","","","","","","","","","",""
"","null","html-keyboard-response","103","124293","0.0-11.0-1.4","tse1TClNOu","65962583a4a7e426d3583707","6617fad957f7c6a12ea16e26","6622d00f5b79381c6183f13d","
        <div id=""grid-container"">
        <!-- Grid items will be dynamically added here -->
    </div>    ","null","","","","","","","","","","","",""
"","1256","html-keyboard-response","104","124750","0.0-11.0-2.4","tse1TClNOu","65962583a4a7e426d3583707","6617fad957f7c6a12ea16e26","6622d00f5b79381c6183f13d","mask grid","q","","","","","Ontogenetic_Distractor_Threat_target","800","onmask","q","1","Ontogenetic","true","experimental"
"","null","html-keyboard-response","105","125452","0.0-11.0-0.5","tse1TClNOu","65962583a4a7e426d3583707","6617fad957f7c6a12ea16e26","6622d00f5b79381c6183f13d","fixation cross","null","","","","","","","","","","","",""
"","null","html-keyboard-response","106","126255","0.0-11.0-1.5","tse1TClNOu","65962583a4a7e426d3583707","6617fad957f7c6a12ea16e26","6622d00f5b79381c6183f13d","
        <div id=""grid-container"">
        <!-- Grid items will be dynamically added here -->
    </div>    ","null","","","","","","","","","","","",""
"","1030","html-keyboard-response","107","126485","0.0-11.0-2.5","tse1TClNOu","65962583a4a7e426d3583707","6617fad957f7c6a12ea16e26","6622d00f5b79381c6183f13d","mask grid","p","","","","","Ontogenetic_Distractor_notarget","800","onmask"," ","7","Ontogenetic","false","experimental"
"","null","html-keyboard-response","108","127188","0.0-11.0-0.6","tse1TClNOu","65962583a4a7e426d3583707","6617fad957f7c6a12ea16e26","6622d00f5b79381c6183f13d","fixation cross","null","","","","","","","","","","","",""
"","null","html-keyboard-response","109","127991","0.0-11.0-1.6","tse1TClNOu","65962583a4a7e426d3583707","6617fad957f7c6a12ea16e26","6622d00f5b79381c6183f13d","
        <div id=""grid-container"">
        <!-- Grid items will be dynamically added here -->
    </div>    ","null","","","","","","","","","","","",""
"","1338","html-keyboard-response","110","128530","0.0-11.0-2.6","tse1TClNOu","65962583a4a7e426d3583707","6617fad957f7c6a12ea16e26","6622d00f5b79381c6183f13d","mask grid"," ","","","","","Ontogenetic_Distractor_Nonthreat_target","800","onmask","p","5","Ontogenetic","false","experimental"
"","null","html-keyboard-response","111","129234","0.0-11.0-0.7","tse1TClNOu","65962583a4a7e426d3583707","6617fad957f7c6a12ea16e26","6622d00f5b79381c6183f13d","fixation cross","null","","","","","","","","","","","",""
"","null","html-keyboard-response","112","130036","0.0-11.0-1.7","tse1TClNOu","65962583a4a7e426d3583707","6617fad957f7c6a12ea16e26","6622d00f5b79381c6183f13d","
        <div id=""grid-container"">
        <!-- Grid items will be dynamically added here -->
    </div>    ","null","","","","","","","","","","","",""
"","1262","html-keyboard-response","113","130498","0.0-11.0-2.7","tse1TClNOu","65962583a4a7e426d3583707","6617fad957f7c6a12ea16e26","6622d00f5b79381c6183f13d","mask grid","p","","","","","Ontogenetic_Distractor_Nonthreat_target","800","onmask","p","7","Ontogenetic","true","experimental"
"","null","html-keyboard-response","114","131203","0.0-11.0-0.8","tse1TClNOu","65962583a4a7e426d3583707","6617fad957f7c6a12ea16e26","6622d00f5b79381c6183f13d","fixation cross","null","","","","","","","","","","","",""
"","680","html-keyboard-response","115","131884","0.0-11.0-1.8","tse1TClNOu","65962583a4a7e426d3583707","6617fad957f7c6a12ea16e26","6622d00f5b79381c6183f13d","image grid","q","","","","","Ontogenetic_Distractor_Threat_target","800","ongrid","q","1","Ontogenetic","true","experimental"
"","null","html-keyboard-response","116","132036","0.0-11.0-2.8","tse1TClNOu","65962583a4a7e426d3583707","6617fad957f7c6a12ea16e26","6622d00f5b79381c6183f13d","
    <div id=""grid-container"">
        <!-- Grid items will be dynamically added here -->
    </div>    ","null","","","","","","","","","","","",""
"","null","html-keyboard-response","117","132740","0.0-11.0-0.9","tse1TClNOu","65962583a4a7e426d3583707","6617fad957f7c6a12ea16e26","6622d00f5b79381c6183f13d","fixation cross","null","","","","","","","","","","","",""
"","null","html-keyboard-response","118","133542","0.0-11.0-1.9","tse1TClNOu","65962583a4a7e426d3583707","6617fad957f7c6a12ea16e26","6622d00f5b79381c6183f13d","
        <div id=""grid-container"">
        <!-- Grid items will be dynamically added here -->
    </div>    ","null","","","","","","","","","","","",""
"","1362","html-keyboard-response","119","134105","0.0-11.0-2.9","tse1TClNOu","65962583a4a7e426d3583707","6617fad957f7c6a12ea16e26","6622d00f5b79381c6183f13d","mask grid"," ","","","","","Ontogenetic_Distractor_Nonthreat_target","800","onmask","p","1","Ontogenetic","false","experimental"
"","null","html-keyboard-response","120","134810","0.0-11.0-0.10","tse1TClNOu","65962583a4a7e426d3583707","6617fad957f7c6a12ea16e26","6622d00f5b79381c6183f13d","fixation cross","null","","","","","","","","","","","",""
"","null","html-keyboard-response","121","135612","0.0-11.0-1.10","tse1TClNOu","65962583a4a7e426d3583707","6617fad957f7c6a12ea16e26","6622d00f5b79381c6183f13d","
        <div id=""grid-container"">
        <!-- Grid items will be dynamically added here -->
    </div>    ","null","","","","","","","","","","","",""
"","1207","html-keyboard-response","122","136020","0.0-11.0-2.10","tse1TClNOu","65962583a4a7e426d3583707","6617fad957f7c6a12ea16e26","6622d00f5b79381c6183f13d","mask grid","p","","","","","Ontogenetic_Distractor_Nonthreat_target","800","onmask","p","4","Ontogenetic","true","experimental"
"","null","html-keyboard-response","123","136723","0.0-11.0-0.11","tse1TClNOu","65962583a4a7e426d3583707","6617fad957f7c6a12ea16e26","6622d00f5b79381c6183f13d","fixation cross","null","","","","","","","","","","","",""
"","null","html-keyboard-response","124","137526","0.0-11.0-1.11","tse1TClNOu","65962583a4a7e426d3583707","6617fad957f7c6a12ea16e26","6622d00f5b79381c6183f13d","
        <div id=""grid-container"">
        <!-- Grid items will be dynamically added here -->
    </div>    ","null","","","","","","","","","","","",""
"","1020","html-keyboard-response","125","137747","0.0-11.0-2.11","tse1TClNOu","65962583a4a7e426d3583707","6617fad957f7c6a12ea16e26","6622d00f5b79381c6183f13d","mask grid","p","","","","","Ontogenetic_Distractor_Threat_target","800","onmask","q","2","Ontogenetic","false","experimental"
"","null","html-keyboard-response","126","138451","0.0-11.0-0.12","tse1TClNOu","65962583a4a7e426d3583707","6617fad957f7c6a12ea16e26","6622d00f5b79381c6183f13d","fixation cross","null","","","","","","","","","","","",""
"","null","html-keyboard-response","127","139254","0.0-11.0-1.12","tse1TClNOu","65962583a4a7e426d3583707","6617fad957f7c6a12ea16e26","6622d00f5b79381c6183f13d","
        <div id=""grid-container"">
        <!-- Grid items will be dynamically added here -->
    </div>    ","null","","","","","","","","","","","",""
"","907","html-keyboard-response","128","139362","0.0-11.0-2.12","tse1TClNOu","65962583a4a7e426d3583707","6617fad957f7c6a12ea16e26","6622d00f5b79381c6183f13d","mask grid","q","","","","","Ontogenetic_Distractor_Threat_target","800","onmask","q","7","Ontogenetic","true","experimental"
"","null","html-keyboard-response","129","140066","0.0-11.0-0.13","tse1TClNOu","65962583a4a7e426d3583707","6617fad957f7c6a12ea16e26","6622d00f5b79381c6183f13d","fixation cross","null","","","","","","","","","","","",""
"","634","html-keyboard-response","130","140701","0.0-11.0-1.13","tse1TClNOu","65962583a4a7e426d3583707","6617fad957f7c6a12ea16e26","6622d00f5b79381c6183f13d","image grid","q","","","","","Ontogenetic_Distractor_Threat_target","800","ongrid","q","4","Ontogenetic","true","experimental"
"","null","html-keyboard-response","131","140853","0.0-11.0-2.13","tse1TClNOu","65962583a4a7e426d3583707","6617fad957f7c6a12ea16e26","6622d00f5b79381c6183f13d","
    <div id=""grid-container"">
        <!-- Grid items will be dynamically added here -->
    </div>    ","null","","","","","","","","","","","",""
"","null","html-keyboard-response","132","141558","0.0-11.0-0.14","tse1TClNOu","65962583a4a7e426d3583707","6617fad957f7c6a12ea16e26","6622d00f5b79381c6183f13d","fixation cross","null","","","","","","","","","","","",""
"","null","html-keyboard-response","133","142360","0.0-11.0-1.14","tse1TClNOu","65962583a4a7e426d3583707","6617fad957f7c6a12ea16e26","6622d00f5b79381c6183f13d","
        <div id=""grid-container"">
        <!-- Grid items will be dynamically added here -->
    </div>    ","null","","","","","","","","","","","",""
"","867","html-keyboard-response","134","142428","0.0-11.0-2.14","tse1TClNOu","65962583a4a7e426d3583707","6617fad957f7c6a12ea16e26","6622d00f5b79381c6183f13d","mask grid","q","","","","","Ontogenetic_Distractor_Threat_target","800","onmask","q","9","Ontogenetic","true","experimental"
"","null","html-keyboard-response","135","143131","0.0-11.0-0.15","tse1TClNOu","65962583a4a7e426d3583707","6617fad957f7c6a12ea16e26","6622d00f5b79381c6183f13d","fixation cross","null","","","","","","","","","","","",""
"","null","html-keyboard-response","136","143934","0.0-11.0-1.15","tse1TClNOu","65962583a4a7e426d3583707","6617fad957f7c6a12ea16e26","6622d00f5b79381c6183f13d","
        <div id=""grid-container"">
        <!-- Grid items will be dynamically added here -->
    </div>    ","null","","","","","","","","","","","",""
"","1265","html-keyboard-response","137","144400","0.0-11.0-2.15","tse1TClNOu","65962583a4a7e426d3583707","6617fad957f7c6a12ea16e26","6622d00f5b79381c6183f13d","mask grid","p","","","","","Ontogenetic_Distractor_notarget","800","onmask"," ","2","Ontogenetic","false","experimental"
"","null","html-keyboard-response","138","145104","0.0-11.0-0.16","tse1TClNOu","65962583a4a7e426d3583707","6617fad957f7c6a12ea16e26","6622d00f5b79381c6183f13d","fixation cross","null","","","","","","","","","","","",""
"","null","html-keyboard-response","139","145906","0.0-11.0-1.16","tse1TClNOu","65962583a4a7e426d3583707","6617fad957f7c6a12ea16e26","6622d00f5b79381c6183f13d","
        <div id=""grid-container"">
        <!-- Grid items will be dynamically added here -->
    </div>    ","null","","","","","","","","","","","",""
"","1105","html-keyboard-response","140","146213","0.0-11.0-2.16","tse1TClNOu","65962583a4a7e426d3583707","6617fad957f7c6a12ea16e26","6622d00f5b79381c6183f13d","mask grid","p","","","","","Ontogenetic_Distractor_Nonthreat_target","800","onmask","p","3","Ontogenetic","true","experimental"
"","null","html-keyboard-response","141","146917","0.0-11.0-0.17","tse1TClNOu","65962583a4a7e426d3583707","6617fad957f7c6a12ea16e26","6622d00f5b79381c6183f13d","fixation cross","null","","","","","","","","","","","",""
"","null","html-keyboard-response","142","147719","0.0-11.0-1.17","tse1TClNOu","65962583a4a7e426d3583707","6617fad957f7c6a12ea16e26","6622d00f5b79381c6183f13d","
        <div id=""grid-container"">
        <!-- Grid items will be dynamically added here -->
    </div>    ","null","","","","","","","","","","","",""
"","1055","html-keyboard-response","143","147974","0.0-11.0-2.17","tse1TClNOu","65962583a4a7e426d3583707","6617fad957f7c6a12ea16e26","6622d00f5b79381c6183f13d","mask grid","p","","","","","Ontogenetic_Distractor_Nonthreat_target","800","onmask","p","8","Ontogenetic","true","experimental"
"","null","html-keyboard-response","144","148679","0.0-11.0-0.18","tse1TClNOu","65962583a4a7e426d3583707","6617fad957f7c6a12ea16e26","6622d00f5b79381c6183f13d","fixation cross","null","","","","","","","","","","","",""
"","null","html-keyboard-response","145","149481","0.0-11.0-1.18","tse1TClNOu","65962583a4a7e426d3583707","6617fad957f7c6a12ea16e26","6622d00f5b79381c6183f13d","
        <div id=""grid-container"">
        <!-- Grid items will be dynamically added here -->
    </div>    ","null","","","","","","","","","","","",""
"","1371","html-keyboard-response","146","150053","0.0-11.0-2.18","tse1TClNOu","65962583a4a7e426d3583707","6617fad957f7c6a12ea16e26","6622d00f5b79381c6183f13d","mask grid","q","","","","","Ontogenetic_Distractor_Nonthreat_target","800","onmask","p","3","Ontogenetic","false","experimental"
"","null","html-keyboard-response","147","150757","0.0-11.0-0.19","tse1TClNOu","65962583a4a7e426d3583707","6617fad957f7c6a12ea16e26","6622d00f5b79381c6183f13d","fixation cross","null","","","","","","","","","","","",""
"","null","html-keyboard-response","148","151560","0.0-11.0-1.19","tse1TClNOu","65962583a4a7e426d3583707","6617fad957f7c6a12ea16e26","6622d00f5b79381c6183f13d","
        <div id=""grid-container"">
        <!-- Grid items will be dynamically added here -->
    </div>    ","null","","","","","","","","","","","",""
"","1193","html-keyboard-response","149","151953","0.0-11.0-2.19","tse1TClNOu","65962583a4a7e426d3583707","6617fad957f7c6a12ea16e26","6622d00f5b79381c6183f13d","mask grid","p","","","","","Ontogenetic_Distractor_Nonthreat_target","800","onmask","p","8","Ontogenetic","true","experimental"
"","null","html-keyboard-response","150","152657","0.0-11.0-0.20","tse1TClNOu","65962583a4a7e426d3583707","6617fad957f7c6a12ea16e26","6622d00f5b79381c6183f13d","fixation cross","null","","","","","","","","","","","",""
"","null","html-keyboard-response","151","153460","0.0-11.0-1.20","tse1TClNOu","65962583a4a7e426d3583707","6617fad957f7c6a12ea16e26","6622d00f5b79381c6183f13d","
        <div id=""grid-container"">
        <!-- Grid items will be dynamically added here -->
    </div>    ","null","","","","","","","","","","","",""
"","1237","html-keyboard-response","152","153897","0.0-11.0-2.20","tse1TClNOu","65962583a4a7e426d3583707","6617fad957f7c6a12ea16e26","6622d00f5b79381c6183f13d","mask grid","p","","","","","Ontogenetic_Distractor_Nonthreat_target","800","onmask","p","1","Ontogenetic","true","experimental"
"","null","html-keyboard-response","153","154602","0.0-11.0-0.21","tse1TClNOu","65962583a4a7e426d3583707","6617fad957f7c6a12ea16e26","6622d00f5b79381c6183f13d","fixation cross","null","","","","","","","","","","","",""
"","null","html-keyboard-response","154","155404","0.0-11.0-1.21","tse1TClNOu","65962583a4a7e426d3583707","6617fad957f7c6a12ea16e26","6622d00f5b79381c6183f13d","
        <div id=""grid-container"">
        <!-- Grid items will be dynamically added here -->
    </div>    ","null","","","","","","","","","","","",""
"","1088","html-keyboard-response","155","155693","0.0-11.0-2.21","tse1TClNOu","65962583a4a7e426d3583707","6617fad957f7c6a12ea16e26","6622d00f5b79381c6183f13d","mask grid","q","","","","","Ontogenetic_Distractor_Threat_target","800","onmask","q","9","Ontogenetic","true","experimental"
"","null","html-keyboard-response","156","156396","0.0-11.0-0.22","tse1TClNOu","65962583a4a7e426d3583707","6617fad957f7c6a12ea16e26","6622d00f5b79381c6183f13d","fixation cross","null","","","","","","","","","","","",""
"","731","html-keyboard-response","157","157128","0.0-11.0-1.22","tse1TClNOu","65962583a4a7e426d3583707","6617fad957f7c6a12ea16e26","6622d00f5b79381c6183f13d","image grid","q","","","","","Ontogenetic_Distractor_Threat_target","800","ongrid","q","7","Ontogenetic","true","experimental"
"","null","html-keyboard-response","158","157281","0.0-11.0-2.22","tse1TClNOu","65962583a4a7e426d3583707","6617fad957f7c6a12ea16e26","6622d00f5b79381c6183f13d","
    <div id=""grid-container"">
        <!-- Grid items will be dynamically added here -->
    </div>    ","null","","","","","","","","","","","",""
"","null","html-keyboard-response","159","157984","0.0-11.0-0.23","tse1TClNOu","65962583a4a7e426d3583707","6617fad957f7c6a12ea16e26","6622d00f5b79381c6183f13d","fixation cross","null","","","","","","","","","","","",""
"","721","html-keyboard-response","160","158706","0.0-11.0-1.23","tse1TClNOu","65962583a4a7e426d3583707","6617fad957f7c6a12ea16e26","6622d00f5b79381c6183f13d","image grid","q","","","","","Ontogenetic_Distractor_Threat_target","800","ongrid","q","7","Ontogenetic","true","experimental"
"","null","html-keyboard-response","161","158859","0.0-11.0-2.23","tse1TClNOu","65962583a4a7e426d3583707","6617fad957f7c6a12ea16e26","6622d00f5b79381c6183f13d","
    <div id=""grid-container"">
        <!-- Grid items will be dynamically added here -->
    </div>    ","null","","","","","","","","","","","",""
"","null","html-keyboard-response","162","159563","0.0-11.0-0.24","tse1TClNOu","65962583a4a7e426d3583707","6617fad957f7c6a12ea16e26","6622d00f5b79381c6183f13d","fixation cross","null","","","","","","","","","","","",""
"","null","html-keyboard-response","163","160366","0.0-11.0-1.24","tse1TClNOu","65962583a4a7e426d3583707","6617fad957f7c6a12ea16e26","6622d00f5b79381c6183f13d","
        <div id=""grid-container"">
        <!-- Grid items will be dynamically added here -->
    </div>    ","null","","","","","","","","","","","",""
"","938","html-keyboard-response","164","160505","0.0-11.0-2.24","tse1TClNOu","65962583a4a7e426d3583707","6617fad957f7c6a12ea16e26","6622d00f5b79381c6183f13d","mask grid","p","","","","","Ontogenetic_Distractor_notarget","800","onmask"," ","6","Ontogenetic","false","experimental"
"","null","html-keyboard-response","165","161209","0.0-11.0-0.25","tse1TClNOu","65962583a4a7e426d3583707","6617fad957f7c6a12ea16e26","6622d00f5b79381c6183f13d","fixation cross","null","","","","","","","","","","","",""
"","null","html-keyboard-response","166","162011","0.0-11.0-1.25","tse1TClNOu","65962583a4a7e426d3583707","6617fad957f7c6a12ea16e26","6622d00f5b79381c6183f13d","
        <div id=""grid-container"">
        <!-- Grid items will be dynamically added here -->
    </div>    ","null","","","","","","","","","","","",""
"","1102","html-keyboard-response","167","162314","0.0-11.0-2.25","tse1TClNOu","65962583a4a7e426d3583707","6617fad957f7c6a12ea16e26","6622d00f5b79381c6183f13d","mask grid","p","","","","","Ontogenetic_Distractor_notarget","800","onmask"," ","9","Ontogenetic","false","experimental"
"","null","html-keyboard-response","168","163019","0.0-11.0-0.26","tse1TClNOu","65962583a4a7e426d3583707","6617fad957f7c6a12ea16e26","6622d00f5b79381c6183f13d","fixation cross","null","","","","","","","","","","","",""
"","null","html-keyboard-response","169","163821","0.0-11.0-1.26","tse1TClNOu","65962583a4a7e426d3583707","6617fad957f7c6a12ea16e26","6622d00f5b79381c6183f13d","
        <div id=""grid-container"">
        <!-- Grid items will be dynamically added here -->
    </div>    ","null","","","","","","","","","","","",""
"","1202","html-keyboard-response","170","164224","0.0-11.0-2.26","tse1TClNOu","65962583a4a7e426d3583707","6617fad957f7c6a12ea16e26","6622d00f5b79381c6183f13d","mask grid","p","","","","","Ontogenetic_Distractor_Nonthreat_target","800","onmask","p","6","Ontogenetic","true","experimental"
"","null","html-keyboard-response","171","164928","0.0-11.0-0.27","tse1TClNOu","65962583a4a7e426d3583707","6617fad957f7c6a12ea16e26","6622d00f5b79381c6183f13d","fixation cross","null","","","","","","","","","","","",""
"","789","html-keyboard-response","172","165718","0.0-11.0-1.27","tse1TClNOu","65962583a4a7e426d3583707","6617fad957f7c6a12ea16e26","6622d00f5b79381c6183f13d","image grid","q","","","","","Ontogenetic_Distractor_Threat_target","800","ongrid","q","6","Ontogenetic","true","experimental"
"","null","html-keyboard-response","173","165870","0.0-11.0-2.27","tse1TClNOu","65962583a4a7e426d3583707","6617fad957f7c6a12ea16e26","6622d00f5b79381c6183f13d","
    <div id=""grid-container"">
        <!-- Grid items will be dynamically added here -->
    </div>    ","null","","","","","","","","","","","",""
"","null","html-keyboard-response","174","166574","0.0-11.0-0.28","tse1TClNOu","65962583a4a7e426d3583707","6617fad957f7c6a12ea16e26","6622d00f5b79381c6183f13d","fixation cross","null","","","","","","","","","","","",""
"","null","html-keyboard-response","175","167376","0.0-11.0-1.28","tse1TClNOu","65962583a4a7e426d3583707","6617fad957f7c6a12ea16e26","6622d00f5b79381c6183f13d","
        <div id=""grid-container"">
        <!-- Grid items will be dynamically added here -->
    </div>    ","null","","","","","","","","","","","",""
"","1564","html-keyboard-response","176","168141","0.0-11.0-2.28","tse1TClNOu","65962583a4a7e426d3583707","6617fad957f7c6a12ea16e26","6622d00f5b79381c6183f13d","mask grid","q","","","","","Ontogenetic_Distractor_Nonthreat_target","800","onmask","p","9","Ontogenetic","false","experimental"
"","null","html-keyboard-response","177","168845","0.0-11.0-0.29","tse1TClNOu","65962583a4a7e426d3583707","6617fad957f7c6a12ea16e26","6622d00f5b79381c6183f13d","fixation cross","null","","","","","","","","","","","",""
"","null","html-keyboard-response","178","169648","0.0-11.0-1.29","tse1TClNOu","65962583a4a7e426d3583707","6617fad957f7c6a12ea16e26","6622d00f5b79381c6183f13d","
        <div id=""grid-container"">
        <!-- Grid items will be dynamically added here -->
    </div>    ","null","","","","","","","","","","","",""
"","1378","html-keyboard-response","179","170226","0.0-11.0-2.29","tse1TClNOu","65962583a4a7e426d3583707","6617fad957f7c6a12ea16e26","6622d00f5b79381c6183f13d","mask grid","p","","","","","Ontogenetic_Distractor_Nonthreat_target","800","onmask","p","5","Ontogenetic","true","experimental"
"","null","html-keyboard-response","180","170931","0.0-11.0-0.30","tse1TClNOu","65962583a4a7e426d3583707","6617fad957f7c6a12ea16e26","6622d00f5b79381c6183f13d","fixation cross","null","","","","","","","","","","","",""
"","null","html-keyboard-response","181","171733","0.0-11.0-1.30","tse1TClNOu","65962583a4a7e426d3583707","6617fad957f7c6a12ea16e26","6622d00f5b79381c6183f13d","
        <div id=""grid-container"">
        <!-- Grid items will be dynamically added here -->
    </div>    ","null","","","","","","","","","","","",""
"","973","html-keyboard-response","182","171907","0.0-11.0-2.30","tse1TClNOu","65962583a4a7e426d3583707","6617fad957f7c6a12ea16e26","6622d00f5b79381c6183f13d","mask grid","q","","","","","Ontogenetic_Distractor_Threat_target","800","onmask","q","8","Ontogenetic","true","experimental"
"","null","html-keyboard-response","183","172612","0.0-11.0-0.31","tse1TClNOu","65962583a4a7e426d3583707","6617fad957f7c6a12ea16e26","6622d00f5b79381c6183f13d","fixation cross","null","","","","","","","","","","","",""
"","null","html-keyboard-response","184","173414","0.0-11.0-1.31","tse1TClNOu","65962583a4a7e426d3583707","6617fad957f7c6a12ea16e26","6622d00f5b79381c6183f13d","
        <div id=""grid-container"">
        <!-- Grid items will be dynamically added here -->
    </div>    ","null","","","","","","","","","","","",""
"","1689","html-keyboard-response","185","174303","0.0-11.0-2.31","tse1TClNOu","65962583a4a7e426d3583707","6617fad957f7c6a12ea16e26","6622d00f5b79381c6183f13d","mask grid","p","","","","","Ontogenetic_Distractor_Nonthreat_target","800","onmask","p","5","Ontogenetic","true","experimental"
"","null","html-keyboard-response","186","175007","0.0-11.0-0.32","tse1TClNOu","65962583a4a7e426d3583707","6617fad957f7c6a12ea16e26","6622d00f5b79381c6183f13d","fixation cross","null","","","","","","","","","","","",""
"","null","html-keyboard-response","187","175810","0.0-11.0-1.32","tse1TClNOu","65962583a4a7e426d3583707","6617fad957f7c6a12ea16e26","6622d00f5b79381c6183f13d","
        <div id=""grid-container"">
        <!-- Grid items will be dynamically added here -->
    </div>    ","null","","","","","","","","","","","",""
"","1534","html-keyboard-response","188","176545","0.0-11.0-2.32","tse1TClNOu","65962583a4a7e426d3583707","6617fad957f7c6a12ea16e26","6622d00f5b79381c6183f13d","mask grid","p","","","","","Ontogenetic_Distractor_Nonthreat_target","800","onmask","p","3","Ontogenetic","true","experimental"
"","null","html-keyboard-response","189","177249","0.0-11.0-0.33","tse1TClNOu","65962583a4a7e426d3583707","6617fad957f7c6a12ea16e26","6622d00f5b79381c6183f13d","fixation cross","null","","","","","","","","","","","",""
"","null","html-keyboard-response","190","178052","0.0-11.0-1.33","tse1TClNOu","65962583a4a7e426d3583707","6617fad957f7c6a12ea16e26","6622d00f5b79381c6183f13d","
        <div id=""grid-container"">
        <!-- Grid items will be dynamically added here -->
    </div>    ","null","","","","","","","","","","","",""
"","883","html-keyboard-response","191","178136","0.0-11.0-2.33","tse1TClNOu","65962583a4a7e426d3583707","6617fad957f7c6a12ea16e26","6622d00f5b79381c6183f13d","mask grid","q","","","","","Ontogenetic_Distractor_Threat_target","800","onmask","q","9","Ontogenetic","true","experimental"
"","null","html-keyboard-response","192","178839","0.0-11.0-0.34","tse1TClNOu","65962583a4a7e426d3583707","6617fad957f7c6a12ea16e26","6622d00f5b79381c6183f13d","fixation cross","null","","","","","","","","","","","",""
"","null","html-keyboard-response","193","179642","0.0-11.0-1.34","tse1TClNOu","65962583a4a7e426d3583707","6617fad957f7c6a12ea16e26","6622d00f5b79381c6183f13d","
        <div id=""grid-container"">
        <!-- Grid items will be dynamically added here -->
    </div>    ","null","","","","","","","","","","","",""
"","1520","html-keyboard-response","194","180362","0.0-11.0-2.34","tse1TClNOu","65962583a4a7e426d3583707","6617fad957f7c6a12ea16e26","6622d00f5b79381c6183f13d","mask grid","p","","","","","Ontogenetic_Distractor_Nonthreat_target","800","onmask","p","8","Ontogenetic","true","experimental"
"","null","html-keyboard-response","195","181067","0.0-11.0-0.35","tse1TClNOu","65962583a4a7e426d3583707","6617fad957f7c6a12ea16e26","6622d00f5b79381c6183f13d","fixation cross","null","","","","","","","","","","","",""
"","null","html-keyboard-response","196","181870","0.0-11.0-1.35","tse1TClNOu","65962583a4a7e426d3583707","6617fad957f7c6a12ea16e26","6622d00f5b79381c6183f13d","
        <div id=""grid-container"">
        <!-- Grid items will be dynamically added here -->
    </div>    ","null","","","","","","","","","","","",""
"","852","html-keyboard-response","197","181922","0.0-11.0-2.35","tse1TClNOu","65962583a4a7e426d3583707","6617fad957f7c6a12ea16e26","6622d00f5b79381c6183f13d","mask grid","q","","","","","Ontogenetic_Distractor_Threat_target","800","onmask","q","7","Ontogenetic","true","experimental"
"","null","html-keyboard-response","198","182626","0.0-11.0-0.36","tse1TClNOu","65962583a4a7e426d3583707","6617fad957f7c6a12ea16e26","6622d00f5b79381c6183f13d","fixation cross","null","","","","","","","","","","","",""
"","654","html-keyboard-response","199","183280","0.0-11.0-1.36","tse1TClNOu","65962583a4a7e426d3583707","6617fad957f7c6a12ea16e26","6622d00f5b79381c6183f13d","image grid","q","","","","","Ontogenetic_Distractor_Threat_target","800","ongrid","q","7","Ontogenetic","true","experimental"
"","null","html-keyboard-response","200","183433","0.0-11.0-2.36","tse1TClNOu","65962583a4a7e426d3583707","6617fad957f7c6a12ea16e26","6622d00f5b79381c6183f13d","
    <div id=""grid-container"">
        <!-- Grid items will be dynamically added here -->
    </div>    ","null","","","","","","","","","","","",""
"","null","html-keyboard-response","201","184137","0.0-11.0-0.37","tse1TClNOu","65962583a4a7e426d3583707","6617fad957f7c6a12ea16e26","6622d00f5b79381c6183f13d","fixation cross","null","","","","","","","","","","","",""
"","null","html-keyboard-response","202","184940","0.0-11.0-1.37","tse1TClNOu","65962583a4a7e426d3583707","6617fad957f7c6a12ea16e26","6622d00f5b79381c6183f13d","
        <div id=""grid-container"">
        <!-- Grid items will be dynamically added here -->
    </div>    ","null","","","","","","","","","","","",""
"","826","html-keyboard-response","203","184966","0.0-11.0-2.37","tse1TClNOu","65962583a4a7e426d3583707","6617fad957f7c6a12ea16e26","6622d00f5b79381c6183f13d","mask grid","q","","","","","Ontogenetic_Distractor_Threat_target","800","onmask","q","9","Ontogenetic","true","experimental"
"","null","html-keyboard-response","204","185669","0.0-11.0-0.38","tse1TClNOu","65962583a4a7e426d3583707","6617fad957f7c6a12ea16e26","6622d00f5b79381c6183f13d","fixation cross","null","","","","","","","","","","","",""
"","null","html-keyboard-response","205","186471","0.0-11.0-1.38","tse1TClNOu","65962583a4a7e426d3583707","6617fad957f7c6a12ea16e26","6622d00f5b79381c6183f13d","
        <div id=""grid-container"">
        <!-- Grid items will be dynamically added here -->
    </div>    ","null","","","","","","","","","","","",""
"","935","html-keyboard-response","206","186607","0.0-11.0-2.38","tse1TClNOu","65962583a4a7e426d3583707","6617fad957f7c6a12ea16e26","6622d00f5b79381c6183f13d","mask grid","p","","","","","Ontogenetic_Distractor_Nonthreat_target","800","onmask","p","7","Ontogenetic","true","experimental"
"","null","html-keyboard-response","207","187311","0.0-11.0-0.39","tse1TClNOu","65962583a4a7e426d3583707","6617fad957f7c6a12ea16e26","6622d00f5b79381c6183f13d","fixation cross","null","","","","","","","","","","","",""
"","742","html-keyboard-response","208","188054","0.0-11.0-1.39","tse1TClNOu","65962583a4a7e426d3583707","6617fad957f7c6a12ea16e26","6622d00f5b79381c6183f13d","image grid","q","","","","","Ontogenetic_Distractor_Threat_target","800","ongrid","q","8","Ontogenetic","true","experimental"
"","null","html-keyboard-response","209","188207","0.0-11.0-2.39","tse1TClNOu","65962583a4a7e426d3583707","6617fad957f7c6a12ea16e26","6622d00f5b79381c6183f13d","
    <div id=""grid-container"">
        <!-- Grid items will be dynamically added here -->
    </div>    ","null","","","","","","","","","","","",""
"","1443","html-keyboard-response","210","189890","0.0-12.0","tse1TClNOu","65962583a4a7e426d3583707","6617fad957f7c6a12ea16e26","6622d00f5b79381c6183f13d","break screen"," ","","","","","","","","","","","",""
"","null","html-keyboard-response","211","192394","0.0-13.0-0.0","tse1TClNOu","65962583a4a7e426d3583707","6617fad957f7c6a12ea16e26","6622d00f5b79381c6183f13d","fixation cross","null","","","","","","","","","","","",""
"","1470","html-keyboard-response","212","193865","0.0-13.0-1.0","tse1TClNOu","65962583a4a7e426d3583707","6617fad957f7c6a12ea16e26","6622d00f5b79381c6183f13d","image grid","q","","","","","Phylogenetic_Distractor_Threat_target","2500","ongrid","q","9","Phylogenetic","true","experimental"
"","null","html-keyboard-response","213","194018","0.0-13.0-2.0","tse1TClNOu","65962583a4a7e426d3583707","6617fad957f7c6a12ea16e26","6622d00f5b79381c6183f13d","
    <div id=""grid-container"">
        <!-- Grid items will be dynamically added here -->
    </div>    ","null","","","","","","","","","","","",""
"","null","html-keyboard-response","214","194722","0.0-13.0-0.1","tse1TClNOu","65962583a4a7e426d3583707","6617fad957f7c6a12ea16e26","6622d00f5b79381c6183f13d","fixation cross","null","","","","","","","","","","","",""
"","1208","html-keyboard-response","215","195931","0.0-13.0-1.1","tse1TClNOu","65962583a4a7e426d3583707","6617fad957f7c6a12ea16e26","6622d00f5b79381c6183f13d","image grid","p","","","","","Phylogenetic_Distractor_Nonthreat_target","2500","ongrid","p","2","Phylogenetic","true","experimental"
"","null","html-keyboard-response","216","196083","0.0-13.0-2.1","tse1TClNOu","65962583a4a7e426d3583707","6617fad957f7c6a12ea16e26","6622d00f5b79381c6183f13d","
    <div id=""grid-container"">
        <!-- Grid items will be dynamically added here -->
    </div>    ","null","","","","","","","","","","","",""
"","null","html-keyboard-response","217","196787","0.0-13.0-0.2","tse1TClNOu","65962583a4a7e426d3583707","6617fad957f7c6a12ea16e26","6622d00f5b79381c6183f13d","fixation cross","null","","","","","","","","","","","",""
"","1070","html-keyboard-response","218","197857","0.0-13.0-1.2","tse1TClNOu","65962583a4a7e426d3583707","6617fad957f7c6a12ea16e26","6622d00f5b79381c6183f13d","image grid","p","","","","","Phylogenetic_Distractor_Nonthreat_target","2500","ongrid","p","2","Phylogenetic","true","experimental"
"","null","html-keyboard-response","219","198009","0.0-13.0-2.2","tse1TClNOu","65962583a4a7e426d3583707","6617fad957f7c6a12ea16e26","6622d00f5b79381c6183f13d","
    <div id=""grid-container"">
        <!-- Grid items will be dynamically added here -->
    </div>    ","null","","","","","","","","","","","",""
"","null","html-keyboard-response","220","198713","0.0-13.0-0.3","tse1TClNOu","65962583a4a7e426d3583707","6617fad957f7c6a12ea16e26","6622d00f5b79381c6183f13d","fixation cross","null","","","","","","","","","","","",""
"","1120","html-keyboard-response","221","199834","0.0-13.0-1.3","tse1TClNOu","65962583a4a7e426d3583707","6617fad957f7c6a12ea16e26","6622d00f5b79381c6183f13d","image grid","q","","","","","Phylogenetic_Distractor_Threat_target","2500","ongrid","q","6","Phylogenetic","true","experimental"
"","null","html-keyboard-response","222","199987","0.0-13.0-2.3","tse1TClNOu","65962583a4a7e426d3583707","6617fad957f7c6a12ea16e26","6622d00f5b79381c6183f13d","
    <div id=""grid-container"">
        <!-- Grid items will be dynamically added here -->
    </div>    ","null","","","","","","","","","","","",""
"","null","html-keyboard-response","223","200691","0.0-13.0-0.4","tse1TClNOu","65962583a4a7e426d3583707","6617fad957f7c6a12ea16e26","6622d00f5b79381c6183f13d","fixation cross","null","","","","","","","","","","","",""
"","735","html-keyboard-response","224","201426","0.0-13.0-1.4","tse1TClNOu","65962583a4a7e426d3583707","6617fad957f7c6a12ea16e26","6622d00f5b79381c6183f13d","image grid","q","","","","","Phylogenetic_Distractor_Threat_target","2500","ongrid","q","1","Phylogenetic","true","experimental"
"","null","html-keyboard-response","225","201579","0.0-13.0-2.4","tse1TClNOu","65962583a4a7e426d3583707","6617fad957f7c6a12ea16e26","6622d00f5b79381c6183f13d","
    <div id=""grid-container"">
        <!-- Grid items will be dynamically added here -->
    </div>    ","null","","","","","","","","","","","",""
"","null","html-keyboard-response","226","202282","0.0-13.0-0.5","tse1TClNOu","65962583a4a7e426d3583707","6617fad957f7c6a12ea16e26","6622d00f5b79381c6183f13d","fixation cross","null","","","","","","","","","","","",""
"","1476","html-keyboard-response","227","203759","0.0-13.0-1.5","tse1TClNOu","65962583a4a7e426d3583707","6617fad957f7c6a12ea16e26","6622d00f5b79381c6183f13d","image grid","p","","","","","Phylogenetic_Distractor_Nonthreat_target","2500","ongrid","p","6","Phylogenetic","true","experimental"
"","null","html-keyboard-response","228","203912","0.0-13.0-2.5","tse1TClNOu","65962583a4a7e426d3583707","6617fad957f7c6a12ea16e26","6622d00f5b79381c6183f13d","
    <div id=""grid-container"">
        <!-- Grid items will be dynamically added here -->
    </div>    ","null","","","","","","","","","","","",""
"","null","html-keyboard-response","229","204615","0.0-13.0-0.6","tse1TClNOu","65962583a4a7e426d3583707","6617fad957f7c6a12ea16e26","6622d00f5b79381c6183f13d","fixation cross","null","","","","","","","","","","","",""
"","null","html-keyboard-response","230","207117","0.0-13.0-1.6","tse1TClNOu","65962583a4a7e426d3583707","6617fad957f7c6a12ea16e26","6622d00f5b79381c6183f13d","
        <div id=""grid-container"">
        <!-- Grid items will be dynamically added here -->
    </div>    ","null","","","","","","","","","","","",""
"","2511","html-keyboard-response","231","207128","0.0-13.0-2.6","tse1TClNOu","65962583a4a7e426d3583707","6617fad957f7c6a12ea16e26","6622d00f5b79381c6183f13d","mask grid","p","","","","","Phylogenetic_Distractor_Nonthreat_target","2500","onmask","p","3","Phylogenetic","true","experimental"
"","null","html-keyboard-response","232","207833","0.0-13.0-0.7","tse1TClNOu","65962583a4a7e426d3583707","6617fad957f7c6a12ea16e26","6622d00f5b79381c6183f13d","fixation cross","null","","","","","","","","","","","",""
"","996","html-keyboard-response","233","208829","0.0-13.0-1.7","tse1TClNOu","65962583a4a7e426d3583707","6617fad957f7c6a12ea16e26","6622d00f5b79381c6183f13d","image grid","p","","","","","Phylogenetic_Distractor_Nonthreat_target","2500","ongrid","p","9","Phylogenetic","true","experimental"
"","null","html-keyboard-response","234","208981","0.0-13.0-2.7","tse1TClNOu","65962583a4a7e426d3583707","6617fad957f7c6a12ea16e26","6622d00f5b79381c6183f13d","
    <div id=""grid-container"">
        <!-- Grid items will be dynamically added here -->
    </div>    ","null","","","","","","","","","","","",""
"","null","html-keyboard-response","235","209685","0.0-13.0-0.8","tse1TClNOu","65962583a4a7e426d3583707","6617fad957f7c6a12ea16e26","6622d00f5b79381c6183f13d","fixation cross","null","","","","","","","","","","","",""
"","1285","html-keyboard-response","236","210971","0.0-13.0-1.8","tse1TClNOu","65962583a4a7e426d3583707","6617fad957f7c6a12ea16e26","6622d00f5b79381c6183f13d","image grid","p","","","","","Phylogenetic_Distractor_Nonthreat_target","2500","ongrid","p","6","Phylogenetic","true","experimental"
"","null","html-keyboard-response","237","211124","0.0-13.0-2.8","tse1TClNOu","65962583a4a7e426d3583707","6617fad957f7c6a12ea16e26","6622d00f5b79381c6183f13d","
    <div id=""grid-container"">
        <!-- Grid items will be dynamically added here -->
    </div>    ","null","","","","","","","","","","","",""
"","null","html-keyboard-response","238","211827","0.0-13.0-0.9","tse1TClNOu","65962583a4a7e426d3583707","6617fad957f7c6a12ea16e26","6622d00f5b79381c6183f13d","fixation cross","null","","","","","","","","","","","",""
"","1275","html-keyboard-response","239","213103","0.0-13.0-1.9","tse1TClNOu","65962583a4a7e426d3583707","6617fad957f7c6a12ea16e26","6622d00f5b79381c6183f13d","image grid","p","","","","","Phylogenetic_Distractor_Nonthreat_target","2500","ongrid","p","7","Phylogenetic","true","experimental"
"","null","html-keyboard-response","240","213256","0.0-13.0-2.9","tse1TClNOu","65962583a4a7e426d3583707","6617fad957f7c6a12ea16e26","6622d00f5b79381c6183f13d","
    <div id=""grid-container"">
        <!-- Grid items will be dynamically added here -->
    </div>    ","null","","","","","","","","","","","",""
"","null","html-keyboard-response","241","213960","0.0-13.0-0.10","tse1TClNOu","65962583a4a7e426d3583707","6617fad957f7c6a12ea16e26","6622d00f5b79381c6183f13d","fixation cross","null","","","","","","","","","","","",""
"","1198","html-keyboard-response","242","215159","0.0-13.0-1.10","tse1TClNOu","65962583a4a7e426d3583707","6617fad957f7c6a12ea16e26","6622d00f5b79381c6183f13d","image grid","p","","","","","Phylogenetic_Distractor_Nonthreat_target","2500","ongrid","p","5","Phylogenetic","true","experimental"
"","null","html-keyboard-response","243","215311","0.0-13.0-2.10","tse1TClNOu","65962583a4a7e426d3583707","6617fad957f7c6a12ea16e26","6622d00f5b79381c6183f13d","
    <div id=""grid-container"">
        <!-- Grid items will be dynamically added here -->
    </div>    ","null","","","","","","","","","","","",""
"","null","html-keyboard-response","244","216013","0.0-13.0-0.11","tse1TClNOu","65962583a4a7e426d3583707","6617fad957f7c6a12ea16e26","6622d00f5b79381c6183f13d","fixation cross","null","","","","","","","","","","","",""
"","760","html-keyboard-response","245","216774","0.0-13.0-1.11","tse1TClNOu","65962583a4a7e426d3583707","6617fad957f7c6a12ea16e26","6622d00f5b79381c6183f13d","image grid","q","","","","","Phylogenetic_Distractor_Threat_target","2500","ongrid","q","5","Phylogenetic","true","experimental"
"","null","html-keyboard-response","246","216926","0.0-13.0-2.11","tse1TClNOu","65962583a4a7e426d3583707","6617fad957f7c6a12ea16e26","6622d00f5b79381c6183f13d","
    <div id=""grid-container"">
        <!-- Grid items will be dynamically added here -->
    </div>    ","null","","","","","","","","","","","",""
"","null","html-keyboard-response","247","217630","0.0-13.0-0.12","tse1TClNOu","65962583a4a7e426d3583707","6617fad957f7c6a12ea16e26","6622d00f5b79381c6183f13d","fixation cross","null","","","","","","","","","","","",""
"","684","html-keyboard-response","248","218315","0.0-13.0-1.12","tse1TClNOu","65962583a4a7e426d3583707","6617fad957f7c6a12ea16e26","6622d00f5b79381c6183f13d","image grid","q","","","","","Phylogenetic_Distractor_Threat_target","2500","ongrid","q","9","Phylogenetic","true","experimental"
"","null","html-keyboard-response","249","218467","0.0-13.0-2.12","tse1TClNOu","65962583a4a7e426d3583707","6617fad957f7c6a12ea16e26","6622d00f5b79381c6183f13d","
    <div id=""grid-container"">
        <!-- Grid items will be dynamically added here -->
    </div>    ","null","","","","","","","","","","","",""
"","null","html-keyboard-response","250","219171","0.0-13.0-0.13","tse1TClNOu","65962583a4a7e426d3583707","6617fad957f7c6a12ea16e26","6622d00f5b79381c6183f13d","fixation cross","null","","","","","","","","","","","",""
"","620","html-keyboard-response","251","219792","0.0-13.0-1.13","tse1TClNOu","65962583a4a7e426d3583707","6617fad957f7c6a12ea16e26","6622d00f5b79381c6183f13d","image grid","q","","","","","Phylogenetic_Distractor_Threat_target","2500","ongrid","q","7","Phylogenetic","true","experimental"
"","null","html-keyboard-response","252","219945","0.0-13.0-2.13","tse1TClNOu","65962583a4a7e426d3583707","6617fad957f7c6a12ea16e26","6622d00f5b79381c6183f13d","
    <div id=""grid-container"">
        <!-- Grid items will be dynamically added here -->
    </div>    ","null","","","","","","","","","","","",""
"","null","html-keyboard-response","253","220650","0.0-13.0-0.14","tse1TClNOu","65962583a4a7e426d3583707","6617fad957f7c6a12ea16e26","6622d00f5b79381c6183f13d","fixation cross","null","","","","","","","","","","","",""
"","538","html-keyboard-response","254","221188","0.0-13.0-1.14","tse1TClNOu","65962583a4a7e426d3583707","6617fad957f7c6a12ea16e26","6622d00f5b79381c6183f13d","image grid","q","","","","","Phylogenetic_Distractor_Threat_target","2500","ongrid","q","6","Phylogenetic","true","experimental"
"","null","html-keyboard-response","255","221341","0.0-13.0-2.14","tse1TClNOu","65962583a4a7e426d3583707","6617fad957f7c6a12ea16e26","6622d00f5b79381c6183f13d","
    <div id=""grid-container"">
        <!-- Grid items will be dynamically added here -->
    </div>    ","null","","","","","","","","","","","",""
"","null","html-keyboard-response","256","222046","0.0-13.0-0.15","tse1TClNOu","65962583a4a7e426d3583707","6617fad957f7c6a12ea16e26","6622d00f5b79381c6183f13d","fixation cross","null","","","","","","","","","","","",""
"","1206","html-keyboard-response","257","223253","0.0-13.0-1.15","tse1TClNOu","65962583a4a7e426d3583707","6617fad957f7c6a12ea16e26","6622d00f5b79381c6183f13d","image grid","p","","","","","Phylogenetic_Distractor_Nonthreat_target","2500","ongrid","p","8","Phylogenetic","true","experimental"
"","null","html-keyboard-response","258","223405","0.0-13.0-2.15","tse1TClNOu","65962583a4a7e426d3583707","6617fad957f7c6a12ea16e26","6622d00f5b79381c6183f13d","
    <div id=""grid-container"">
        <!-- Grid items will be dynamically added here -->
    </div>    ","null","","","","","","","","","","","",""
"","null","html-keyboard-response","259","224109","0.0-13.0-0.16","tse1TClNOu","65962583a4a7e426d3583707","6617fad957f7c6a12ea16e26","6622d00f5b79381c6183f13d","fixation cross","null","","","","","","","","","","","",""
"","906","html-keyboard-response","260","225016","0.0-13.0-1.16","tse1TClNOu","65962583a4a7e426d3583707","6617fad957f7c6a12ea16e26","6622d00f5b79381c6183f13d","image grid","q","","","","","Phylogenetic_Distractor_Threat_target","2500","ongrid","q","6","Phylogenetic","true","experimental"
"","null","html-keyboard-response","261","225169","0.0-13.0-2.16","tse1TClNOu","65962583a4a7e426d3583707","6617fad957f7c6a12ea16e26","6622d00f5b79381c6183f13d","
    <div id=""grid-container"">
        <!-- Grid items will be dynamically added here -->
    </div>    ","null","","","","","","","","","","","",""
"","null","html-keyboard-response","262","225872","0.0-13.0-0.17","tse1TClNOu","65962583a4a7e426d3583707","6617fad957f7c6a12ea16e26","6622d00f5b79381c6183f13d","fixation cross","null","","","","","","","","","","","",""
"","1554","html-keyboard-response","263","227426","0.0-13.0-1.17","tse1TClNOu","65962583a4a7e426d3583707","6617fad957f7c6a12ea16e26","6622d00f5b79381c6183f13d","image grid"," ","","","","","Phylogenetic_Distractor_notarget","2500","ongrid"," ","7","Phylogenetic","true","experimental"
"","null","html-keyboard-response","264","227579","0.0-13.0-2.17","tse1TClNOu","65962583a4a7e426d3583707","6617fad957f7c6a12ea16e26","6622d00f5b79381c6183f13d","
    <div id=""grid-container"">
        <!-- Grid items will be dynamically added here -->
    </div>    ","null","","","","","","","","","","","",""
"","null","html-keyboard-response","265","228284","0.0-13.0-0.18","tse1TClNOu","65962583a4a7e426d3583707","6617fad957f7c6a12ea16e26","6622d00f5b79381c6183f13d","fixation cross","null","","","","","","","","","","","",""
"","1593","html-keyboard-response","266","229878","0.0-13.0-1.18","tse1TClNOu","65962583a4a7e426d3583707","6617fad957f7c6a12ea16e26","6622d00f5b79381c6183f13d","image grid","q","","","","","Phylogenetic_Distractor_Threat_target","2500","ongrid","q","6","Phylogenetic","true","experimental"
"","null","html-keyboard-response","267","230032","0.0-13.0-2.18","tse1TClNOu","65962583a4a7e426d3583707","6617fad957f7c6a12ea16e26","6622d00f5b79381c6183f13d","
    <div id=""grid-container"">
        <!-- Grid items will be dynamically added here -->
    </div>    ","null","","","","","","","","","","","",""
"","null","html-keyboard-response","268","230735","0.0-13.0-0.19","tse1TClNOu","65962583a4a7e426d3583707","6617fad957f7c6a12ea16e26","6622d00f5b79381c6183f13d","fixation cross","null","","","","","","","","","","","",""
"","1043","html-keyboard-response","269","231779","0.0-13.0-1.19","tse1TClNOu","65962583a4a7e426d3583707","6617fad957f7c6a12ea16e26","6622d00f5b79381c6183f13d","image grid","p","","","","","Phylogenetic_Distractor_Nonthreat_target","2500","ongrid","p","3","Phylogenetic","true","experimental"
"","null","html-keyboard-response","270","231931","0.0-13.0-2.19","tse1TClNOu","65962583a4a7e426d3583707","6617fad957f7c6a12ea16e26","6622d00f5b79381c6183f13d","
    <div id=""grid-container"">
        <!-- Grid items will be dynamically added here -->
    </div>    ","null","","","","","","","","","","","",""
"","null","html-keyboard-response","271","232634","0.0-13.0-0.20","tse1TClNOu","65962583a4a7e426d3583707","6617fad957f7c6a12ea16e26","6622d00f5b79381c6183f13d","fixation cross","null","","","","","","","","","","","",""
"","955","html-keyboard-response","272","233589","0.0-13.0-1.20","tse1TClNOu","65962583a4a7e426d3583707","6617fad957f7c6a12ea16e26","6622d00f5b79381c6183f13d","image grid","q","","","","","Phylogenetic_Distractor_Threat_target","2500","ongrid","q","3","Phylogenetic","true","experimental"
"","null","html-keyboard-response","273","233743","0.0-13.0-2.20","tse1TClNOu","65962583a4a7e426d3583707","6617fad957f7c6a12ea16e26","6622d00f5b79381c6183f13d","
    <div id=""grid-container"">
        <!-- Grid items will be dynamically added here -->
    </div>    ","null","","","","","","","","","","","",""
"","null","html-keyboard-response","274","234447","0.0-13.0-0.21","tse1TClNOu","65962583a4a7e426d3583707","6617fad957f7c6a12ea16e26","6622d00f5b79381c6183f13d","fixation cross","null","","","","","","","","","","","",""
"","1966","html-keyboard-response","275","236414","0.0-13.0-1.21","tse1TClNOu","65962583a4a7e426d3583707","6617fad957f7c6a12ea16e26","6622d00f5b79381c6183f13d","image grid"," ","","","","","Phylogenetic_Distractor_notarget","2500","ongrid"," ","1","Phylogenetic","true","experimental"
"","null","html-keyboard-response","276","236567","0.0-13.0-2.21","tse1TClNOu","65962583a4a7e426d3583707","6617fad957f7c6a12ea16e26","6622d00f5b79381c6183f13d","
    <div id=""grid-container"">
        <!-- Grid items will be dynamically added here -->
    </div>    ","null","","","","","","","","","","","",""
"","null","html-keyboard-response","277","237271","0.0-13.0-0.22","tse1TClNOu","65962583a4a7e426d3583707","6617fad957f7c6a12ea16e26","6622d00f5b79381c6183f13d","fixation cross","null","","","","","","","","","","","",""
"","1640","html-keyboard-response","278","238911","0.0-13.0-1.22","tse1TClNOu","65962583a4a7e426d3583707","6617fad957f7c6a12ea16e26","6622d00f5b79381c6183f13d","image grid","p","","","","","Phylogenetic_Distractor_Nonthreat_target","2500","ongrid","p","7","Phylogenetic","true","experimental"
"","null","html-keyboard-response","279","239063","0.0-13.0-2.22","tse1TClNOu","65962583a4a7e426d3583707","6617fad957f7c6a12ea16e26","6622d00f5b79381c6183f13d","
    <div id=""grid-container"">
        <!-- Grid items will be dynamically added here -->
    </div>    ","null","","","","","","","","","","","",""
"","null","html-keyboard-response","280","239767","0.0-13.0-0.23","tse1TClNOu","65962583a4a7e426d3583707","6617fad957f7c6a12ea16e26","6622d00f5b79381c6183f13d","fixation cross","null","","","","","","","","","","","",""
"","1235","html-keyboard-response","281","241003","0.0-13.0-1.23","tse1TClNOu","65962583a4a7e426d3583707","6617fad957f7c6a12ea16e26","6622d00f5b79381c6183f13d","image grid","q","","","","","Phylogenetic_Distractor_Threat_target","2500","ongrid","q","9","Phylogenetic","true","experimental"
"","null","html-keyboard-response","282","241156","0.0-13.0-2.23","tse1TClNOu","65962583a4a7e426d3583707","6617fad957f7c6a12ea16e26","6622d00f5b79381c6183f13d","
    <div id=""grid-container"">
        <!-- Grid items will be dynamically added here -->
    </div>    ","null","","","","","","","","","","","",""
"","null","html-keyboard-response","283","241860","0.0-13.0-0.24","tse1TClNOu","65962583a4a7e426d3583707","6617fad957f7c6a12ea16e26","6622d00f5b79381c6183f13d","fixation cross","null","","","","","","","","","","","",""
"","986","html-keyboard-response","284","242847","0.0-13.0-1.24","tse1TClNOu","65962583a4a7e426d3583707","6617fad957f7c6a12ea16e26","6622d00f5b79381c6183f13d","image grid","p","","","","","Phylogenetic_Distractor_Nonthreat_target","2500","ongrid","p","9","Phylogenetic","true","experimental"
"","null","html-keyboard-response","285","243000","0.0-13.0-2.24","tse1TClNOu","65962583a4a7e426d3583707","6617fad957f7c6a12ea16e26","6622d00f5b79381c6183f13d","
    <div id=""grid-container"">
        <!-- Grid items will be dynamically added here -->
    </div>    ","null","","","","","","","","","","","",""
"","null","html-keyboard-response","286","243704","0.0-13.0-0.25","tse1TClNOu","65962583a4a7e426d3583707","6617fad957f7c6a12ea16e26","6622d00f5b79381c6183f13d","fixation cross","null","","","","","","","","","","","",""
"","636","html-keyboard-response","287","244340","0.0-13.0-1.25","tse1TClNOu","65962583a4a7e426d3583707","6617fad957f7c6a12ea16e26","6622d00f5b79381c6183f13d","image grid","q","","","","","Phylogenetic_Distractor_Threat_target","2500","ongrid","q","6","Phylogenetic","true","experimental"
"","null","html-keyboard-response","288","244494","0.0-13.0-2.25","tse1TClNOu","65962583a4a7e426d3583707","6617fad957f7c6a12ea16e26","6622d00f5b79381c6183f13d","
    <div id=""grid-container"">
        <!-- Grid items will be dynamically added here -->
    </div>    ","null","","","","","","","","","","","",""
"","null","html-keyboard-response","289","245198","0.0-13.0-0.26","tse1TClNOu","65962583a4a7e426d3583707","6617fad957f7c6a12ea16e26","6622d00f5b79381c6183f13d","fixation cross","null","","","","","","","","","","","",""
"","1866","html-keyboard-response","290","247065","0.0-13.0-1.26","tse1TClNOu","65962583a4a7e426d3583707","6617fad957f7c6a12ea16e26","6622d00f5b79381c6183f13d","image grid"," ","","","","","Phylogenetic_Distractor_notarget","2500","ongrid"," ","9","Phylogenetic","true","experimental"
"","null","html-keyboard-response","291","247218","0.0-13.0-2.26","tse1TClNOu","65962583a4a7e426d3583707","6617fad957f7c6a12ea16e26","6622d00f5b79381c6183f13d","
    <div id=""grid-container"">
        <!-- Grid items will be dynamically added here -->
    </div>    ","null","","","","","","","","","","","",""
"","null","html-keyboard-response","292","247922","0.0-13.0-0.27","tse1TClNOu","65962583a4a7e426d3583707","6617fad957f7c6a12ea16e26","6622d00f5b79381c6183f13d","fixation cross","null","","","","","","","","","","","",""
"","1335","html-keyboard-response","293","249257","0.0-13.0-1.27","tse1TClNOu","65962583a4a7e426d3583707","6617fad957f7c6a12ea16e26","6622d00f5b79381c6183f13d","image grid","p","","","","","Phylogenetic_Distractor_Nonthreat_target","2500","ongrid","p","8","Phylogenetic","true","experimental"
"","null","html-keyboard-response","294","249409","0.0-13.0-2.27","tse1TClNOu","65962583a4a7e426d3583707","6617fad957f7c6a12ea16e26","6622d00f5b79381c6183f13d","
    <div id=""grid-container"">
        <!-- Grid items will be dynamically added here -->
    </div>    ","null","","","","","","","","","","","",""
"","null","html-keyboard-response","295","250113","0.0-13.0-0.28","tse1TClNOu","65962583a4a7e426d3583707","6617fad957f7c6a12ea16e26","6622d00f5b79381c6183f13d","fixation cross","null","","","","","","","","","","","",""
"","627","html-keyboard-response","296","250741","0.0-13.0-1.28","tse1TClNOu","65962583a4a7e426d3583707","6617fad957f7c6a12ea16e26","6622d00f5b79381c6183f13d","image grid","q","","","","","Phylogenetic_Distractor_Threat_target","2500","ongrid","q","2","Phylogenetic","true","experimental"
"","null","html-keyboard-response","297","250894","0.0-13.0-2.28","tse1TClNOu","65962583a4a7e426d3583707","6617fad957f7c6a12ea16e26","6622d00f5b79381c6183f13d","
    <div id=""grid-container"">
        <!-- Grid items will be dynamically added here -->
    </div>    ","null","","","","","","","","","","","",""
"","null","html-keyboard-response","298","251598","0.0-13.0-0.29","tse1TClNOu","65962583a4a7e426d3583707","6617fad957f7c6a12ea16e26","6622d00f5b79381c6183f13d","fixation cross","null","","","","","","","","","","","",""
"","1525","html-keyboard-response","299","253124","0.0-13.0-1.29","tse1TClNOu","65962583a4a7e426d3583707","6617fad957f7c6a12ea16e26","6622d00f5b79381c6183f13d","image grid","p","","","","","Phylogenetic_Distractor_Nonthreat_target","2500","ongrid","p","8","Phylogenetic","true","experimental"
"","null","html-keyboard-response","300","253277","0.0-13.0-2.29","tse1TClNOu","65962583a4a7e426d3583707","6617fad957f7c6a12ea16e26","6622d00f5b79381c6183f13d","
    <div id=""grid-container"">
        <!-- Grid items will be dynamically added here -->
    </div>    ","null","","","","","","","","","","","",""
"","null","html-keyboard-response","301","253981","0.0-13.0-0.30","tse1TClNOu","65962583a4a7e426d3583707","6617fad957f7c6a12ea16e26","6622d00f5b79381c6183f13d","fixation cross","null","","","","","","","","","","","",""
"","1320","html-keyboard-response","302","255301","0.0-13.0-1.30","tse1TClNOu","65962583a4a7e426d3583707","6617fad957f7c6a12ea16e26","6622d00f5b79381c6183f13d","image grid","p","","","","","Phylogenetic_Distractor_Nonthreat_target","2500","ongrid","p","8","Phylogenetic","true","experimental"
"","null","html-keyboard-response","303","255454","0.0-13.0-2.30","tse1TClNOu","65962583a4a7e426d3583707","6617fad957f7c6a12ea16e26","6622d00f5b79381c6183f13d","
    <div id=""grid-container"">
        <!-- Grid items will be dynamically added here -->
    </div>    ","null","","","","","","","","","","","",""
"","null","html-keyboard-response","304","256157","0.0-13.0-0.31","tse1TClNOu","65962583a4a7e426d3583707","6617fad957f7c6a12ea16e26","6622d00f5b79381c6183f13d","fixation cross","null","","","","","","","","","","","",""
"","931","html-keyboard-response","305","257089","0.0-13.0-1.31","tse1TClNOu","65962583a4a7e426d3583707","6617fad957f7c6a12ea16e26","6622d00f5b79381c6183f13d","image grid","p","","","","","Phylogenetic_Distractor_Nonthreat_target","2500","ongrid","p","1","Phylogenetic","true","experimental"
"","null","html-keyboard-response","306","257242","0.0-13.0-2.31","tse1TClNOu","65962583a4a7e426d3583707","6617fad957f7c6a12ea16e26","6622d00f5b79381c6183f13d","
    <div id=""grid-container"">
        <!-- Grid items will be dynamically added here -->
    </div>    ","null","","","","","","","","","","","",""
"","null","html-keyboard-response","307","257947","0.0-13.0-0.32","tse1TClNOu","65962583a4a7e426d3583707","6617fad957f7c6a12ea16e26","6622d00f5b79381c6183f13d","fixation cross","null","","","","","","","","","","","",""
"","958","html-keyboard-response","308","258906","0.0-13.0-1.32","tse1TClNOu","65962583a4a7e426d3583707","6617fad957f7c6a12ea16e26","6622d00f5b79381c6183f13d","image grid","q","","","","","Phylogenetic_Distractor_Threat_target","2500","ongrid","q","6","Phylogenetic","true","experimental"
"","null","html-keyboard-response","309","259059","0.0-13.0-2.32","tse1TClNOu","65962583a4a7e426d3583707","6617fad957f7c6a12ea16e26","6622d00f5b79381c6183f13d","
    <div id=""grid-container"">
        <!-- Grid items will be dynamically added here -->
    </div>    ","null","","","","","","","","","","","",""
"","null","html-keyboard-response","310","259762","0.0-13.0-0.33","tse1TClNOu","65962583a4a7e426d3583707","6617fad957f7c6a12ea16e26","6622d00f5b79381c6183f13d","fixation cross","null","","","","","","","","","","","",""
"","1837","html-keyboard-response","311","261600","0.0-13.0-1.33","tse1TClNOu","65962583a4a7e426d3583707","6617fad957f7c6a12ea16e26","6622d00f5b79381c6183f13d","image grid","q","","","","","Phylogenetic_Distractor_Threat_target","2500","ongrid","q","8","Phylogenetic","true","experimental"
"","null","html-keyboard-response","312","261753","0.0-13.0-2.33","tse1TClNOu","65962583a4a7e426d3583707","6617fad957f7c6a12ea16e26","6622d00f5b79381c6183f13d","
    <div id=""grid-container"">
        <!-- Grid items will be dynamically added here -->
    </div>    ","null","","","","","","","","","","","",""
"","null","html-keyboard-response","313","262457","0.0-13.0-0.34","tse1TClNOu","65962583a4a7e426d3583707","6617fad957f7c6a12ea16e26","6622d00f5b79381c6183f13d","fixation cross","null","","","","","","","","","","","",""
"","1433","html-keyboard-response","314","263891","0.0-13.0-1.34","tse1TClNOu","65962583a4a7e426d3583707","6617fad957f7c6a12ea16e26","6622d00f5b79381c6183f13d","image grid"," ","","","","","Phylogenetic_Distractor_notarget","2500","ongrid"," ","7","Phylogenetic","true","experimental"
"","null","html-keyboard-response","315","264044","0.0-13.0-2.34","tse1TClNOu","65962583a4a7e426d3583707","6617fad957f7c6a12ea16e26","6622d00f5b79381c6183f13d","
    <div id=""grid-container"">
        <!-- Grid items will be dynamically added here -->
    </div>    ","null","","","","","","","","","","","",""
"","null","html-keyboard-response","316","264748","0.0-13.0-0.35","tse1TClNOu","65962583a4a7e426d3583707","6617fad957f7c6a12ea16e26","6622d00f5b79381c6183f13d","fixation cross","null","","","","","","","","","","","",""
"","801","html-keyboard-response","317","265550","0.0-13.0-1.35","tse1TClNOu","65962583a4a7e426d3583707","6617fad957f7c6a12ea16e26","6622d00f5b79381c6183f13d","image grid","q","","","","","Phylogenetic_Distractor_Threat_target","2500","ongrid","q","9","Phylogenetic","true","experimental"
"","null","html-keyboard-response","318","265703","0.0-13.0-2.35","tse1TClNOu","65962583a4a7e426d3583707","6617fad957f7c6a12ea16e26","6622d00f5b79381c6183f13d","
    <div id=""grid-container"">
        <!-- Grid items will be dynamically added here -->
    </div>    ","null","","","","","","","","","","","",""
"","null","html-keyboard-response","319","266407","0.0-13.0-0.36","tse1TClNOu","65962583a4a7e426d3583707","6617fad957f7c6a12ea16e26","6622d00f5b79381c6183f13d","fixation cross","null","","","","","","","","","","","",""
"","543","html-keyboard-response","320","266951","0.0-13.0-1.36","tse1TClNOu","65962583a4a7e426d3583707","6617fad957f7c6a12ea16e26","6622d00f5b79381c6183f13d","image grid","q","","","","","Phylogenetic_Distractor_Threat_target","2500","ongrid","q","5","Phylogenetic","true","experimental"
"","null","html-keyboard-response","321","267105","0.0-13.0-2.36","tse1TClNOu","65962583a4a7e426d3583707","6617fad957f7c6a12ea16e26","6622d00f5b79381c6183f13d","
    <div id=""grid-container"">
        <!-- Grid items will be dynamically added here -->
    </div>    ","null","","","","","","","","","","","",""
"","null","html-keyboard-response","322","267809","0.0-13.0-0.37","tse1TClNOu","65962583a4a7e426d3583707","6617fad957f7c6a12ea16e26","6622d00f5b79381c6183f13d","fixation cross","null","","","","","","","","","","","",""
"","735","html-keyboard-response","323","268544","0.0-13.0-1.37","tse1TClNOu","65962583a4a7e426d3583707","6617fad957f7c6a12ea16e26","6622d00f5b79381c6183f13d","image grid","p","","","","","Phylogenetic_Distractor_Nonthreat_target","2500","ongrid","p","5","Phylogenetic","true","experimental"
"","null","html-keyboard-response","324","268697","0.0-13.0-2.37","tse1TClNOu","65962583a4a7e426d3583707","6617fad957f7c6a12ea16e26","6622d00f5b79381c6183f13d","
    <div id=""grid-container"">
        <!-- Grid items will be dynamically added here -->
    </div>    ","null","","","","","","","","","","","",""
"","null","html-keyboard-response","325","269401","0.0-13.0-0.38","tse1TClNOu","65962583a4a7e426d3583707","6617fad957f7c6a12ea16e26","6622d00f5b79381c6183f13d","fixation cross","null","","","","","","","","","","","",""
"","1077","html-keyboard-response","326","270479","0.0-13.0-1.38","tse1TClNOu","65962583a4a7e426d3583707","6617fad957f7c6a12ea16e26","6622d00f5b79381c6183f13d","image grid","p","","","","","Phylogenetic_Distractor_Nonthreat_target","2500","ongrid","p","8","Phylogenetic","true","experimental"
"","null","html-keyboard-response","327","270633","0.0-13.0-2.38","tse1TClNOu","65962583a4a7e426d3583707","6617fad957f7c6a12ea16e26","6622d00f5b79381c6183f13d","
    <div id=""grid-container"">
        <!-- Grid items will be dynamically added here -->
    </div>    ","null","","","","","","","","","","","",""
"","null","html-keyboard-response","328","271336","0.0-13.0-0.39","tse1TClNOu","65962583a4a7e426d3583707","6617fad957f7c6a12ea16e26","6622d00f5b79381c6183f13d","fixation cross","null","","","","","","","","","","","",""
"","566","html-keyboard-response","329","271903","0.0-13.0-1.39","tse1TClNOu","65962583a4a7e426d3583707","6617fad957f7c6a12ea16e26","6622d00f5b79381c6183f13d","image grid","q","","","","","Phylogenetic_Distractor_Threat_target","2500","ongrid","q","4","Phylogenetic","true","experimental"
"","null","html-keyboard-response","330","272057","0.0-13.0-2.39","tse1TClNOu","65962583a4a7e426d3583707","6617fad957f7c6a12ea16e26","6622d00f5b79381c6183f13d","
    <div id=""grid-container"">
        <!-- Grid items will be dynamically added here -->
    </div>    ","null","","","","","","","","","","","",""
"","1684","html-keyboard-response","331","273943","0.0-14.0","tse1TClNOu","65962583a4a7e426d3583707","6617fad957f7c6a12ea16e26","6622d00f5b79381c6183f13d","break screen"," ","","","","","","","","","","","",""
"","null","html-keyboard-response","332","276447","0.0-15.0-0.0","tse1TClNOu","65962583a4a7e426d3583707","6617fad957f7c6a12ea16e26","6622d00f5b79381c6183f13d","fixation cross","null","","","","","","","","","","","",""
"","740","html-keyboard-response","333","277187","0.0-15.0-1.0","tse1TClNOu","65962583a4a7e426d3583707","6617fad957f7c6a12ea16e26","6622d00f5b79381c6183f13d","image grid","q","","","","","Phylogenetic_Distractor_Threat_target","2500","ongrid","q","1","Phylogenetic","true","experimental"
"","null","html-keyboard-response","334","277340","0.0-15.0-2.0","tse1TClNOu","65962583a4a7e426d3583707","6617fad957f7c6a12ea16e26","6622d00f5b79381c6183f13d","
    <div id=""grid-container"">
        <!-- Grid items will be dynamically added here -->
    </div>    ","null","","","","","","","","","","","",""
"","null","html-keyboard-response","335","278044","0.0-15.0-0.1","tse1TClNOu","65962583a4a7e426d3583707","6617fad957f7c6a12ea16e26","6622d00f5b79381c6183f13d","fixation cross","null","","","","","","","","","","","",""
"","946","html-keyboard-response","336","278990","0.0-15.0-1.1","tse1TClNOu","65962583a4a7e426d3583707","6617fad957f7c6a12ea16e26","6622d00f5b79381c6183f13d","image grid","p","","","","","Phylogenetic_Distractor_Nonthreat_target","2500","ongrid","p","6","Phylogenetic","true","experimental"
"","null","html-keyboard-response","337","279144","0.0-15.0-2.1","tse1TClNOu","65962583a4a7e426d3583707","6617fad957f7c6a12ea16e26","6622d00f5b79381c6183f13d","
    <div id=""grid-container"">
        <!-- Grid items will be dynamically added here -->
    </div>    ","null","","","","","","","","","","","",""
"","null","html-keyboard-response","338","279848","0.0-15.0-0.2","tse1TClNOu","65962583a4a7e426d3583707","6617fad957f7c6a12ea16e26","6622d00f5b79381c6183f13d","fixation cross","null","","","","","","","","","","","",""
"","1248","html-keyboard-response","339","281096","0.0-15.0-1.2","tse1TClNOu","65962583a4a7e426d3583707","6617fad957f7c6a12ea16e26","6622d00f5b79381c6183f13d","image grid","p","","","","","Phylogenetic_Distractor_Nonthreat_target","2500","ongrid","p","5","Phylogenetic","true","experimental"
"","null","html-keyboard-response","340","281250","0.0-15.0-2.2","tse1TClNOu","65962583a4a7e426d3583707","6617fad957f7c6a12ea16e26","6622d00f5b79381c6183f13d","
    <div id=""grid-container"">
        <!-- Grid items will be dynamically added here -->
    </div>    ","null","","","","","","","","","","","",""
"","null","html-keyboard-response","341","281954","0.0-15.0-0.3","tse1TClNOu","65962583a4a7e426d3583707","6617fad957f7c6a12ea16e26","6622d00f5b79381c6183f13d","fixation cross","null","","","","","","","","","","","",""
"","1147","html-keyboard-response","342","283101","0.0-15.0-1.3","tse1TClNOu","65962583a4a7e426d3583707","6617fad957f7c6a12ea16e26","6622d00f5b79381c6183f13d","image grid","q","","","","","Phylogenetic_Distractor_Threat_target","2500","ongrid","q","8","Phylogenetic","true","experimental"
"","null","html-keyboard-response","343","283255","0.0-15.0-2.3","tse1TClNOu","65962583a4a7e426d3583707","6617fad957f7c6a12ea16e26","6622d00f5b79381c6183f13d","
    <div id=""grid-container"">
        <!-- Grid items will be dynamically added here -->
    </div>    ","null","","","","","","","","","","","",""
"","null","html-keyboard-response","344","283959","0.0-15.0-0.4","tse1TClNOu","65962583a4a7e426d3583707","6617fad957f7c6a12ea16e26","6622d00f5b79381c6183f13d","fixation cross","null","","","","","","","","","","","",""
"","994","html-keyboard-response","345","284953","0.0-15.0-1.4","tse1TClNOu","65962583a4a7e426d3583707","6617fad957f7c6a12ea16e26","6622d00f5b79381c6183f13d","image grid","q","","","","","Phylogenetic_Distractor_Threat_target","2500","ongrid","q","9","Phylogenetic","true","experimental"
"","null","html-keyboard-response","346","285106","0.0-15.0-2.4","tse1TClNOu","65962583a4a7e426d3583707","6617fad957f7c6a12ea16e26","6622d00f5b79381c6183f13d","
    <div id=""grid-container"">
        <!-- Grid items will be dynamically added here -->
    </div>    ","null","","","","","","","","","","","",""
"","null","html-keyboard-response","347","285810","0.0-15.0-0.5","tse1TClNOu","65962583a4a7e426d3583707","6617fad957f7c6a12ea16e26","6622d00f5b79381c6183f13d","fixation cross","null","","","","","","","","","","","",""
"","999","html-keyboard-response","348","286810","0.0-15.0-1.5","tse1TClNOu","65962583a4a7e426d3583707","6617fad957f7c6a12ea16e26","6622d00f5b79381c6183f13d","image grid","p","","","","","Phylogenetic_Distractor_Nonthreat_target","2500","ongrid","p","8","Phylogenetic","true","experimental"
"","null","html-keyboard-response","349","286963","0.0-15.0-2.5","tse1TClNOu","65962583a4a7e426d3583707","6617fad957f7c6a12ea16e26","6622d00f5b79381c6183f13d","
    <div id=""grid-container"">
        <!-- Grid items will be dynamically added here -->
    </div>    ","null","","","","","","","","","","","",""
"","null","html-keyboard-response","350","287667","0.0-15.0-0.6","tse1TClNOu","65962583a4a7e426d3583707","6617fad957f7c6a12ea16e26","6622d00f5b79381c6183f13d","fixation cross","null","","","","","","","","","","","",""
"","1332","html-keyboard-response","351","289000","0.0-15.0-1.6","tse1TClNOu","65962583a4a7e426d3583707","6617fad957f7c6a12ea16e26","6622d00f5b79381c6183f13d","image grid"," ","","","","","Phylogenetic_Distractor_notarget","2500","ongrid"," ","3","Phylogenetic","true","experimental"
"","null","html-keyboard-response","352","289153","0.0-15.0-2.6","tse1TClNOu","65962583a4a7e426d3583707","6617fad957f7c6a12ea16e26","6622d00f5b79381c6183f13d","
    <div id=""grid-container"">
        <!-- Grid items will be dynamically added here -->
    </div>    ","null","","","","","","","","","","","",""
"","null","html-keyboard-response","353","289858","0.0-15.0-0.7","tse1TClNOu","65962583a4a7e426d3583707","6617fad957f7c6a12ea16e26","6622d00f5b79381c6183f13d","fixation cross","null","","","","","","","","","","","",""
"","1739","html-keyboard-response","354","291597","0.0-15.0-1.7","tse1TClNOu","65962583a4a7e426d3583707","6617fad957f7c6a12ea16e26","6622d00f5b79381c6183f13d","image grid"," ","","","","","Phylogenetic_Distractor_notarget","2500","ongrid"," ","4","Phylogenetic","true","experimental"
"","null","html-keyboard-response","355","291751","0.0-15.0-2.7","tse1TClNOu","65962583a4a7e426d3583707","6617fad957f7c6a12ea16e26","6622d00f5b79381c6183f13d","
    <div id=""grid-container"">
        <!-- Grid items will be dynamically added here -->
    </div>    ","null","","","","","","","","","","","",""
"","null","html-keyboard-response","356","292455","0.0-15.0-0.8","tse1TClNOu","65962583a4a7e426d3583707","6617fad957f7c6a12ea16e26","6622d00f5b79381c6183f13d","fixation cross","null","","","","","","","","","","","",""
"","928","html-keyboard-response","357","293384","0.0-15.0-1.8","tse1TClNOu","65962583a4a7e426d3583707","6617fad957f7c6a12ea16e26","6622d00f5b79381c6183f13d","image grid","p","","","","","Phylogenetic_Distractor_Nonthreat_target","2500","ongrid","p","2","Phylogenetic","true","experimental"
"","null","html-keyboard-response","358","293537","0.0-15.0-2.8","tse1TClNOu","65962583a4a7e426d3583707","6617fad957f7c6a12ea16e26","6622d00f5b79381c6183f13d","
    <div id=""grid-container"">
        <!-- Grid items will be dynamically added here -->
    </div>    ","null","","","","","","","","","","","",""
"","null","html-keyboard-response","359","294241","0.0-15.0-0.9","tse1TClNOu","65962583a4a7e426d3583707","6617fad957f7c6a12ea16e26","6622d00f5b79381c6183f13d","fixation cross","null","","","","","","","","","","","",""
"","825","html-keyboard-response","360","295067","0.0-15.0-1.9","tse1TClNOu","65962583a4a7e426d3583707","6617fad957f7c6a12ea16e26","6622d00f5b79381c6183f13d","image grid","p","","","","","Phylogenetic_Distractor_Nonthreat_target","2500","ongrid","p","1","Phylogenetic","true","experimental"
"","null","html-keyboard-response","361","295220","0.0-15.0-2.9","tse1TClNOu","65962583a4a7e426d3583707","6617fad957f7c6a12ea16e26","6622d00f5b79381c6183f13d","
    <div id=""grid-container"">
        <!-- Grid items will be dynamically added here -->
    </div>    ","null","","","","","","","","","","","",""
"","null","html-keyboard-response","362","295924","0.0-15.0-0.10","tse1TClNOu","65962583a4a7e426d3583707","6617fad957f7c6a12ea16e26","6622d00f5b79381c6183f13d","fixation cross","null","","","","","","","","","","","",""
"","1446","html-keyboard-response","363","297371","0.0-15.0-1.10","tse1TClNOu","65962583a4a7e426d3583707","6617fad957f7c6a12ea16e26","6622d00f5b79381c6183f13d","image grid","p","","","","","Phylogenetic_Distractor_Nonthreat_target","2500","ongrid","p","5","Phylogenetic","true","experimental"
"","null","html-keyboard-response","364","297524","0.0-15.0-2.10","tse1TClNOu","65962583a4a7e426d3583707","6617fad957f7c6a12ea16e26","6622d00f5b79381c6183f13d","
    <div id=""grid-container"">
        <!-- Grid items will be dynamically added here -->
    </div>    ","null","","","","","","","","","","","",""
"","null","html-keyboard-response","365","298228","0.0-15.0-0.11","tse1TClNOu","65962583a4a7e426d3583707","6617fad957f7c6a12ea16e26","6622d00f5b79381c6183f13d","fixation cross","null","","","","","","","","","","","",""
"","1820","html-keyboard-response","366","300048","0.0-15.0-1.11","tse1TClNOu","65962583a4a7e426d3583707","6617fad957f7c6a12ea16e26","6622d00f5b79381c6183f13d","image grid"," ","","","","","Phylogenetic_Distractor_Nonthreat_target","2500","ongrid","p","3","Phylogenetic","false","experimental"
"","null","html-keyboard-response","367","300202","0.0-15.0-2.11","tse1TClNOu","65962583a4a7e426d3583707","6617fad957f7c6a12ea16e26","6622d00f5b79381c6183f13d","
    <div id=""grid-container"">
        <!-- Grid items will be dynamically added here -->
    </div>    ","null","","","","","","","","","","","",""
"","null","html-keyboard-response","368","300905","0.0-15.0-0.12","tse1TClNOu","65962583a4a7e426d3583707","6617fad957f7c6a12ea16e26","6622d00f5b79381c6183f13d","fixation cross","null","","","","","","","","","","","",""
"","746","html-keyboard-response","369","301652","0.0-15.0-1.12","tse1TClNOu","65962583a4a7e426d3583707","6617fad957f7c6a12ea16e26","6622d00f5b79381c6183f13d","image grid","q","","","","","Phylogenetic_Distractor_Threat_target","2500","ongrid","q","2","Phylogenetic","true","experimental"
"","null","html-keyboard-response","370","301806","0.0-15.0-2.12","tse1TClNOu","65962583a4a7e426d3583707","6617fad957f7c6a12ea16e26","6622d00f5b79381c6183f13d","
    <div id=""grid-container"">
