"success","rt","trial_type","trial_index","time_elapsed","internal_node_id","unique_identifier","subject_id","study_id","session_id","stimulus","response","timeout","failed_images","failed_audio","failed_video","task","respondedwhen","time_manipulation","correctresponse","targetimagelocation","blocktype","correct","roundtype"
"true","1548","fullscreen","0","2550","0.0-0.0","1eRHo61TOn","5a6cc406d5d4cb0001d664aa","6617fad957f7c6a12ea16e26","6622cee5bcc21ba069af1e80","","","","","","","","","","","","","",""
"","7964","html-keyboard-response","1","10515","0.0-1.0","1eRHo61TOn","5a6cc406d5d4cb0001d664aa","6617fad957f7c6a12ea16e26","6622cee5bcc21ba069af1e80","instruction screen 0","arrowright","","","","","","","","","","","",""
"true","","preload","2","11526","0.0-2.0","1eRHo61TOn","5a6cc406d5d4cb0001d664aa","6617fad957f7c6a12ea16e26","6622cee5bcc21ba069af1e80","","","false","[]","[]","[]","","","","","","","",""
"","10406","html-keyboard-response","3","21932","0.0-3.0","1eRHo61TOn","5a6cc406d5d4cb0001d664aa","6617fad957f7c6a12ea16e26","6622cee5bcc21ba069af1e80","instruction screen 1","arrowright","","","","","","","","","","","",""
"","6132","html-keyboard-response","4","28068","0.0-4.0","1eRHo61TOn","5a6cc406d5d4cb0001d664aa","6617fad957f7c6a12ea16e26","6622cee5bcc21ba069af1e80","instruction screen 2","q","","","","","","","","","","","",""
"","2620","html-keyboard-response","5","30692","0.0-5.0","1eRHo61TOn","5a6cc406d5d4cb0001d664aa","6617fad957f7c6a12ea16e26","6622cee5bcc21ba069af1e80","instruction screen 3","p","","","","","","","","","","","",""
"","4269","html-keyboard-response","6","34964","0.0-6.0","1eRHo61TOn","5a6cc406d5d4cb0001d664aa","6617fad957f7c6a12ea16e26","6622cee5bcc21ba069af1e80","instruction screen 4"," ","","","","","","","","","","","",""
"","2885","html-keyboard-response","7","37854","0.0-7.0","1eRHo61TOn","5a6cc406d5d4cb0001d664aa","6617fad957f7c6a12ea16e26","6622cee5bcc21ba069af1e80","instruction screen 5"," ","","","","","","","","","","","",""
"","null","html-keyboard-response","8","38363","0.0-8.0","1eRHo61TOn","5a6cc406d5d4cb0001d664aa","6617fad957f7c6a12ea16e26","6622cee5bcc21ba069af1e80","fixation cross","null","","","","","","","","","","","",""
"","null","html-keyboard-response","9","38865","0.0-9.0-0.0","1eRHo61TOn","5a6cc406d5d4cb0001d664aa","6617fad957f7c6a12ea16e26","6622cee5bcc21ba069af1e80","fixation cross","null","","","","","","","","","","","",""
"","null","html-keyboard-response","10","41867","0.0-9.0-1.0","1eRHo61TOn","5a6cc406d5d4cb0001d664aa","6617fad957f7c6a12ea16e26","6622cee5bcc21ba069af1e80","
        <div id=""grid-container"">
        <!-- Grid items will be dynamically added here -->
    </div>    ","null","","","","","","","","","","","",""
"","5538","html-keyboard-response","11","44407","0.0-9.0-2.0","1eRHo61TOn","5a6cc406d5d4cb0001d664aa","6617fad957f7c6a12ea16e26","6622cee5bcc21ba069af1e80","mask grid"," ","","","","","Phylogenetic_Distractor_Nonthreat_target","onmask","3000","p","1","Ontogenetic","false","practice"
"","null","html-keyboard-response","12","45612","0.0-9.0-3.0","1eRHo61TOn","5a6cc406d5d4cb0001d664aa","6617fad957f7c6a12ea16e26","6622cee5bcc21ba069af1e80","feedback screen","null","","","","","","","","","","","",""
"","null","html-keyboard-response","13","46122","0.0-9.0-0.1","1eRHo61TOn","5a6cc406d5d4cb0001d664aa","6617fad957f7c6a12ea16e26","6622cee5bcc21ba069af1e80","fixation cross","null","","","","","","","","","","","",""
"","1740","html-keyboard-response","14","47862","0.0-9.0-1.1","1eRHo61TOn","5a6cc406d5d4cb0001d664aa","6617fad957f7c6a12ea16e26","6622cee5bcc21ba069af1e80","image grid","q","","","","","Ontogenetic_Distractor_Nonthreat_target","ongrid","2900","p","5","Ontogenetic","false","practice"
"","null","html-keyboard-response","15","48014","0.0-9.0-2.1","1eRHo61TOn","5a6cc406d5d4cb0001d664aa","6617fad957f7c6a12ea16e26","6622cee5bcc21ba069af1e80","
    <div id=""grid-container"">
        <!-- Grid items will be dynamically added here -->
    </div>    ","null","","","","","","","","","","","",""
"","null","html-keyboard-response","16","49217","0.0-9.0-3.1","1eRHo61TOn","5a6cc406d5d4cb0001d664aa","6617fad957f7c6a12ea16e26","6622cee5bcc21ba069af1e80","feedback screen","null","","","","","","","","","","","",""
"","null","html-keyboard-response","17","49725","0.0-9.0-0.2","1eRHo61TOn","5a6cc406d5d4cb0001d664aa","6617fad957f7c6a12ea16e26","6622cee5bcc21ba069af1e80","fixation cross","null","","","","","","","","","","","",""
"","2544","html-keyboard-response","18","52269","0.0-9.0-1.2","1eRHo61TOn","5a6cc406d5d4cb0001d664aa","6617fad957f7c6a12ea16e26","6622cee5bcc21ba069af1e80","image grid"," ","","","","","Ontogenetic_Distractor_notarget","ongrid","2800"," ","7","Ontogenetic","true","practice"
"","null","html-keyboard-response","19","52421","0.0-9.0-2.2","1eRHo61TOn","5a6cc406d5d4cb0001d664aa","6617fad957f7c6a12ea16e26","6622cee5bcc21ba069af1e80","
    <div id=""grid-container"">
        <!-- Grid items will be dynamically added here -->
    </div>    ","null","","","","","","","","","","","",""
"","null","html-keyboard-response","20","53625","0.0-9.0-3.2","1eRHo61TOn","5a6cc406d5d4cb0001d664aa","6617fad957f7c6a12ea16e26","6622cee5bcc21ba069af1e80","feedback screen","null","","","","","","","","","","","",""
"","null","html-keyboard-response","21","54128","0.0-9.0-0.3","1eRHo61TOn","5a6cc406d5d4cb0001d664aa","6617fad957f7c6a12ea16e26","6622cee5bcc21ba069af1e80","fixation cross","null","","","","","","","","","","","",""
"","null","html-keyboard-response","22","56830","0.0-9.0-1.3","1eRHo61TOn","5a6cc406d5d4cb0001d664aa","6617fad957f7c6a12ea16e26","6622cee5bcc21ba069af1e80","
        <div id=""grid-container"">
        <!-- Grid items will be dynamically added here -->
    </div>    ","null","","","","","","","","","","","",""
"","4066","html-keyboard-response","23","58196","0.0-9.0-2.3","1eRHo61TOn","5a6cc406d5d4cb0001d664aa","6617fad957f7c6a12ea16e26","6622cee5bcc21ba069af1e80","mask grid","q","","","","","Ontogenetic_Distractor_Threat_target","onmask","2700","q","3","Ontogenetic","true","practice"
"","null","html-keyboard-response","24","59399","0.0-9.0-3.3","1eRHo61TOn","5a6cc406d5d4cb0001d664aa","6617fad957f7c6a12ea16e26","6622cee5bcc21ba069af1e80","feedback screen","null","","","","","","","","","","","",""
"","null","html-keyboard-response","25","59908","0.0-9.0-0.4","1eRHo61TOn","5a6cc406d5d4cb0001d664aa","6617fad957f7c6a12ea16e26","6622cee5bcc21ba069af1e80","fixation cross","null","","","","","","","","","","","",""
"","1585","html-keyboard-response","26","61493","0.0-9.0-1.4","1eRHo61TOn","5a6cc406d5d4cb0001d664aa","6617fad957f7c6a12ea16e26","6622cee5bcc21ba069af1e80","image grid","q","","","","","Ontogenetic_Distractor_Threat_target","ongrid","2600","q","3","Ontogenetic","true","practice"
"","null","html-keyboard-response","27","61645","0.0-9.0-2.4","1eRHo61TOn","5a6cc406d5d4cb0001d664aa","6617fad957f7c6a12ea16e26","6622cee5bcc21ba069af1e80","
    <div id=""grid-container"">
        <!-- Grid items will be dynamically added here -->
    </div>    ","null","","","","","","","","","","","",""
"","null","html-keyboard-response","28","62849","0.0-9.0-3.4","1eRHo61TOn","5a6cc406d5d4cb0001d664aa","6617fad957f7c6a12ea16e26","6622cee5bcc21ba069af1e80","feedback screen","null","","","","","","","","","","","",""
"","null","html-keyboard-response","29","63351","0.0-9.0-0.5","1eRHo61TOn","5a6cc406d5d4cb0001d664aa","6617fad957f7c6a12ea16e26","6622cee5bcc21ba069af1e80","fixation cross","null","","","","","","","","","","","",""
"","2061","html-keyboard-response","30","65413","0.0-9.0-1.5","1eRHo61TOn","5a6cc406d5d4cb0001d664aa","6617fad957f7c6a12ea16e26","6622cee5bcc21ba069af1e80","image grid","q","","","","","Phylogenetic_Distractor_Threat_target","ongrid","2500","q","3","Ontogenetic","true","practice"
"","null","html-keyboard-response","31","65565","0.0-9.0-2.5","1eRHo61TOn","5a6cc406d5d4cb0001d664aa","6617fad957f7c6a12ea16e26","6622cee5bcc21ba069af1e80","
    <div id=""grid-container"">
        <!-- Grid items will be dynamically added here -->
    </div>    ","null","","","","","","","","","","","",""
"","null","html-keyboard-response","32","66770","0.0-9.0-3.5","1eRHo61TOn","5a6cc406d5d4cb0001d664aa","6617fad957f7c6a12ea16e26","6622cee5bcc21ba069af1e80","feedback screen","null","","","","","","","","","","","",""
"","null","html-keyboard-response","33","67275","0.0-9.0-0.6","1eRHo61TOn","5a6cc406d5d4cb0001d664aa","6617fad957f7c6a12ea16e26","6622cee5bcc21ba069af1e80","fixation cross","null","","","","","","","","","","","",""
"","null","html-keyboard-response","34","69677","0.0-9.0-1.6","1eRHo61TOn","5a6cc406d5d4cb0001d664aa","6617fad957f7c6a12ea16e26","6622cee5bcc21ba069af1e80","
        <div id=""grid-container"">
        <!-- Grid items will be dynamically added here -->
    </div>    ","null","","","","","","","","","","","",""
"","3359","html-keyboard-response","35","70637","0.0-9.0-2.6","1eRHo61TOn","5a6cc406d5d4cb0001d664aa","6617fad957f7c6a12ea16e26","6622cee5bcc21ba069af1e80","mask grid"," ","","","","","Phylogenetic_Distractor_notarget","onmask","2400"," ","9","Ontogenetic","true","practice"
"","null","html-keyboard-response","36","71841","0.0-9.0-3.6","1eRHo61TOn","5a6cc406d5d4cb0001d664aa","6617fad957f7c6a12ea16e26","6622cee5bcc21ba069af1e80","feedback screen","null","","","","","","","","","","","",""
"","null","html-keyboard-response","37","72345","0.0-9.0-0.7","1eRHo61TOn","5a6cc406d5d4cb0001d664aa","6617fad957f7c6a12ea16e26","6622cee5bcc21ba069af1e80","fixation cross","null","","","","","","","","","","","",""
"","1649","html-keyboard-response","38","73995","0.0-9.0-1.7","1eRHo61TOn","5a6cc406d5d4cb0001d664aa","6617fad957f7c6a12ea16e26","6622cee5bcc21ba069af1e80","image grid"," ","","","","","Ontogenetic_Distractor_notarget","ongrid","2300"," ","9","Ontogenetic","true","practice"
"","null","html-keyboard-response","39","74146","0.0-9.0-2.7","1eRHo61TOn","5a6cc406d5d4cb0001d664aa","6617fad957f7c6a12ea16e26","6622cee5bcc21ba069af1e80","
    <div id=""grid-container"">
        <!-- Grid items will be dynamically added here -->
    </div>    ","null","","","","","","","","","","","",""
"","null","html-keyboard-response","40","75349","0.0-9.0-3.7","1eRHo61TOn","5a6cc406d5d4cb0001d664aa","6617fad957f7c6a12ea16e26","6622cee5bcc21ba069af1e80","feedback screen","null","","","","","","","","","","","",""
"","null","html-keyboard-response","41","75858","0.0-9.0-0.8","1eRHo61TOn","5a6cc406d5d4cb0001d664aa","6617fad957f7c6a12ea16e26","6622cee5bcc21ba069af1e80","fixation cross","null","","","","","","","","","","","",""
"","1074","html-keyboard-response","42","76932","0.0-9.0-1.8","1eRHo61TOn","5a6cc406d5d4cb0001d664aa","6617fad957f7c6a12ea16e26","6622cee5bcc21ba069af1e80","image grid","p","","","","","Phylogenetic_Distractor_Threat_target","ongrid","2200","q","8","Ontogenetic","false","practice"
"","null","html-keyboard-response","43","77084","0.0-9.0-2.8","1eRHo61TOn","5a6cc406d5d4cb0001d664aa","6617fad957f7c6a12ea16e26","6622cee5bcc21ba069af1e80","
    <div id=""grid-container"">
        <!-- Grid items will be dynamically added here -->
    </div>    ","null","","","","","","","","","","","",""
"","null","html-keyboard-response","44","78288","0.0-9.0-3.8","1eRHo61TOn","5a6cc406d5d4cb0001d664aa","6617fad957f7c6a12ea16e26","6622cee5bcc21ba069af1e80","feedback screen","null","","","","","","","","","","","",""
"","null","html-keyboard-response","45","78796","0.0-9.0-0.9","1eRHo61TOn","5a6cc406d5d4cb0001d664aa","6617fad957f7c6a12ea16e26","6622cee5bcc21ba069af1e80","fixation cross","null","","","","","","","","","","","",""
"","null","html-keyboard-response","46","80899","0.0-9.0-1.9","1eRHo61TOn","5a6cc406d5d4cb0001d664aa","6617fad957f7c6a12ea16e26","6622cee5bcc21ba069af1e80","
        <div id=""grid-container"">
        <!-- Grid items will be dynamically added here -->
    </div>    ","null","","","","","","","","","","","",""
"","3582","html-keyboard-response","47","82382","0.0-9.0-2.9","1eRHo61TOn","5a6cc406d5d4cb0001d664aa","6617fad957f7c6a12ea16e26","6622cee5bcc21ba069af1e80","mask grid"," ","","","","","Phylogenetic_Distractor_Nonthreat_target","onmask","2100","p","9","Ontogenetic","false","practice"
"","null","html-keyboard-response","48","83586","0.0-9.0-3.9","1eRHo61TOn","5a6cc406d5d4cb0001d664aa","6617fad957f7c6a12ea16e26","6622cee5bcc21ba069af1e80","feedback screen","null","","","","","","","","","","","",""
"","null","html-keyboard-response","49","84093","0.0-9.0-0.10","1eRHo61TOn","5a6cc406d5d4cb0001d664aa","6617fad957f7c6a12ea16e26","6622cee5bcc21ba069af1e80","fixation cross","null","","","","","","","","","","","",""
"","null","html-keyboard-response","50","86095","0.0-9.0-1.10","1eRHo61TOn","5a6cc406d5d4cb0001d664aa","6617fad957f7c6a12ea16e26","6622cee5bcc21ba069af1e80","
        <div id=""grid-container"">
        <!-- Grid items will be dynamically added here -->
    </div>    ","null","","","","","","","","","","","",""
"","3407","html-keyboard-response","51","87503","0.0-9.0-2.10","1eRHo61TOn","5a6cc406d5d4cb0001d664aa","6617fad957f7c6a12ea16e26","6622cee5bcc21ba069af1e80","mask grid"," ","","","","","Phylogenetic_Distractor_notarget","onmask","2000"," ","9","Ontogenetic","true","practice"
"","null","html-keyboard-response","52","88709","0.0-9.0-3.10","1eRHo61TOn","5a6cc406d5d4cb0001d664aa","6617fad957f7c6a12ea16e26","6622cee5bcc21ba069af1e80","feedback screen","null","","","","","","","","","","","",""
"","null","html-keyboard-response","53","89217","0.0-9.0-0.11","1eRHo61TOn","5a6cc406d5d4cb0001d664aa","6617fad957f7c6a12ea16e26","6622cee5bcc21ba069af1e80","fixation cross","null","","","","","","","","","","","",""
"","1746","html-keyboard-response","54","90964","0.0-9.0-1.11","1eRHo61TOn","5a6cc406d5d4cb0001d664aa","6617fad957f7c6a12ea16e26","6622cee5bcc21ba069af1e80","image grid","p","","","","","Phylogenetic_Distractor_Threat_target","ongrid","1900","q","2","Ontogenetic","false","practice"
"","null","html-keyboard-response","55","91116","0.0-9.0-2.11","1eRHo61TOn","5a6cc406d5d4cb0001d664aa","6617fad957f7c6a12ea16e26","6622cee5bcc21ba069af1e80","
    <div id=""grid-container"">
        <!-- Grid items will be dynamically added here -->
    </div>    ","null","","","","","","","","","","","",""
"","null","html-keyboard-response","56","92319","0.0-9.0-3.11","1eRHo61TOn","5a6cc406d5d4cb0001d664aa","6617fad957f7c6a12ea16e26","6622cee5bcc21ba069af1e80","feedback screen","null","","","","","","","","","","","",""
"","null","html-keyboard-response","57","92828","0.0-9.0-0.12","1eRHo61TOn","5a6cc406d5d4cb0001d664aa","6617fad957f7c6a12ea16e26","6622cee5bcc21ba069af1e80","fixation cross","null","","","","","","","","","","","",""
"","1584","html-keyboard-response","58","94413","0.0-9.0-1.12","1eRHo61TOn","5a6cc406d5d4cb0001d664aa","6617fad957f7c6a12ea16e26","6622cee5bcc21ba069af1e80","image grid","p","","","","","Phylogenetic_Distractor_Nonthreat_target","ongrid","1800","p","5","Ontogenetic","true","practice"
"","null","html-keyboard-response","59","94566","0.0-9.0-2.12","1eRHo61TOn","5a6cc406d5d4cb0001d664aa","6617fad957f7c6a12ea16e26","6622cee5bcc21ba069af1e80","
    <div id=""grid-container"">
        <!-- Grid items will be dynamically added here -->
    </div>    ","null","","","","","","","","","","","",""
"","null","html-keyboard-response","60","95770","0.0-9.0-3.12","1eRHo61TOn","5a6cc406d5d4cb0001d664aa","6617fad957f7c6a12ea16e26","6622cee5bcc21ba069af1e80","feedback screen","null","","","","","","","","","","","",""
"","null","html-keyboard-response","61","96276","0.0-9.0-0.13","1eRHo61TOn","5a6cc406d5d4cb0001d664aa","6617fad957f7c6a12ea16e26","6622cee5bcc21ba069af1e80","fixation cross","null","","","","","","","","","","","",""
"","1087","html-keyboard-response","62","97364","0.0-9.0-1.13","1eRHo61TOn","5a6cc406d5d4cb0001d664aa","6617fad957f7c6a12ea16e26","6622cee5bcc21ba069af1e80","image grid","q","","","","","Phylogenetic_Distractor_Threat_target","ongrid","1700","q","6","Ontogenetic","true","practice"
"","null","html-keyboard-response","63","97515","0.0-9.0-2.13","1eRHo61TOn","5a6cc406d5d4cb0001d664aa","6617fad957f7c6a12ea16e26","6622cee5bcc21ba069af1e80","
    <div id=""grid-container"">
        <!-- Grid items will be dynamically added here -->
    </div>    ","null","","","","","","","","","","","",""
"","null","html-keyboard-response","64","98719","0.0-9.0-3.13","1eRHo61TOn","5a6cc406d5d4cb0001d664aa","6617fad957f7c6a12ea16e26","6622cee5bcc21ba069af1e80","feedback screen","null","","","","","","","","","","","",""
"","null","html-keyboard-response","65","99227","0.0-9.0-0.14","1eRHo61TOn","5a6cc406d5d4cb0001d664aa","6617fad957f7c6a12ea16e26","6622cee5bcc21ba069af1e80","fixation cross","null","","","","","","","","","","","",""
"","1450","html-keyboard-response","66","100678","0.0-9.0-1.14","1eRHo61TOn","5a6cc406d5d4cb0001d664aa","6617fad957f7c6a12ea16e26","6622cee5bcc21ba069af1e80","image grid","q","","","","","Ontogenetic_Distractor_Nonthreat_target","ongrid","1600","p","9","Ontogenetic","false","practice"
"","null","html-keyboard-response","67","100831","0.0-9.0-2.14","1eRHo61TOn","5a6cc406d5d4cb0001d664aa","6617fad957f7c6a12ea16e26","6622cee5bcc21ba069af1e80","
    <div id=""grid-container"">
        <!-- Grid items will be dynamically added here -->
    </div>    ","null","","","","","","","","","","","",""
"","null","html-keyboard-response","68","102035","0.0-9.0-3.14","1eRHo61TOn","5a6cc406d5d4cb0001d664aa","6617fad957f7c6a12ea16e26","6622cee5bcc21ba069af1e80","feedback screen","null","","","","","","","","","","","",""
"","null","html-keyboard-response","69","102544","0.0-9.0-0.15","1eRHo61TOn","5a6cc406d5d4cb0001d664aa","6617fad957f7c6a12ea16e26","6622cee5bcc21ba069af1e80","fixation cross","null","","","","","","","","","","","",""
"","1274","html-keyboard-response","70","103819","0.0-9.0-1.15","1eRHo61TOn","5a6cc406d5d4cb0001d664aa","6617fad957f7c6a12ea16e26","6622cee5bcc21ba069af1e80","image grid","q","","","","","Ontogenetic_Distractor_Threat_target","ongrid","1500","q","3","Ontogenetic","true","practice"
"","null","html-keyboard-response","71","103970","0.0-9.0-2.15","1eRHo61TOn","5a6cc406d5d4cb0001d664aa","6617fad957f7c6a12ea16e26","6622cee5bcc21ba069af1e80","
    <div id=""grid-container"">
        <!-- Grid items will be dynamically added here -->
    </div>    ","null","","","","","","","","","","","",""
"","null","html-keyboard-response","72","105174","0.0-9.0-3.15","1eRHo61TOn","5a6cc406d5d4cb0001d664aa","6617fad957f7c6a12ea16e26","6622cee5bcc21ba069af1e80","feedback screen","null","","","","","","","","","","","",""
"","null","html-keyboard-response","73","105682","0.0-9.0-0.16","1eRHo61TOn","5a6cc406d5d4cb0001d664aa","6617fad957f7c6a12ea16e26","6622cee5bcc21ba069af1e80","fixation cross","null","","","","","","","","","","","",""
"","715","html-keyboard-response","74","106398","0.0-9.0-1.16","1eRHo61TOn","5a6cc406d5d4cb0001d664aa","6617fad957f7c6a12ea16e26","6622cee5bcc21ba069af1e80","image grid","p","","","","","Ontogenetic_Distractor_Nonthreat_target","ongrid","1400","p","6","Ontogenetic","true","practice"
"","null","html-keyboard-response","75","106550","0.0-9.0-2.16","1eRHo61TOn","5a6cc406d5d4cb0001d664aa","6617fad957f7c6a12ea16e26","6622cee5bcc21ba069af1e80","
    <div id=""grid-container"">
        <!-- Grid items will be dynamically added here -->
    </div>    ","null","","","","","","","","","","","",""
"","null","html-keyboard-response","76","107754","0.0-9.0-3.16","1eRHo61TOn","5a6cc406d5d4cb0001d664aa","6617fad957f7c6a12ea16e26","6622cee5bcc21ba069af1e80","feedback screen","null","","","","","","","","","","","",""
"","null","html-keyboard-response","77","108263","0.0-9.0-0.17","1eRHo61TOn","5a6cc406d5d4cb0001d664aa","6617fad957f7c6a12ea16e26","6622cee5bcc21ba069af1e80","fixation cross","null","","","","","","","","","","","",""
"","708","html-keyboard-response","78","108972","0.0-9.0-1.17","1eRHo61TOn","5a6cc406d5d4cb0001d664aa","6617fad957f7c6a12ea16e26","6622cee5bcc21ba069af1e80","image grid","p","","","","","Ontogenetic_Distractor_Nonthreat_target","ongrid","1300","p","2","Ontogenetic","true","practice"
"","null","html-keyboard-response","79","109125","0.0-9.0-2.17","1eRHo61TOn","5a6cc406d5d4cb0001d664aa","6617fad957f7c6a12ea16e26","6622cee5bcc21ba069af1e80","
    <div id=""grid-container"">
        <!-- Grid items will be dynamically added here -->
    </div>    ","null","","","","","","","","","","","",""
"","null","html-keyboard-response","80","110329","0.0-9.0-3.17","1eRHo61TOn","5a6cc406d5d4cb0001d664aa","6617fad957f7c6a12ea16e26","6622cee5bcc21ba069af1e80","feedback screen","null","","","","","","","","","","","",""
"","null","html-keyboard-response","81","110837","0.0-9.0-0.18","1eRHo61TOn","5a6cc406d5d4cb0001d664aa","6617fad957f7c6a12ea16e26","6622cee5bcc21ba069af1e80","fixation cross","null","","","","","","","","","","","",""
"","null","html-keyboard-response","82","112040","0.0-9.0-1.18","1eRHo61TOn","5a6cc406d5d4cb0001d664aa","6617fad957f7c6a12ea16e26","6622cee5bcc21ba069af1e80","
        <div id=""grid-container"">
        <!-- Grid items will be dynamically added here -->
    </div>    ","null","","","","","","","","","","","",""
"","1910","html-keyboard-response","83","112750","0.0-9.0-2.18","1eRHo61TOn","5a6cc406d5d4cb0001d664aa","6617fad957f7c6a12ea16e26","6622cee5bcc21ba069af1e80","mask grid"," ","","","","","Phylogenetic_Distractor_Nonthreat_target","onmask","1200","p","6","Ontogenetic","false","practice"
"","null","html-keyboard-response","84","113952","0.0-9.0-3.18","1eRHo61TOn","5a6cc406d5d4cb0001d664aa","6617fad957f7c6a12ea16e26","6622cee5bcc21ba069af1e80","feedback screen","null","","","","","","","","","","","",""
"","null","html-keyboard-response","85","114455","0.0-9.0-0.19","1eRHo61TOn","5a6cc406d5d4cb0001d664aa","6617fad957f7c6a12ea16e26","6622cee5bcc21ba069af1e80","fixation cross","null","","","","","","","","","","","",""
"","889","html-keyboard-response","86","115346","0.0-9.0-1.19","1eRHo61TOn","5a6cc406d5d4cb0001d664aa","6617fad957f7c6a12ea16e26","6622cee5bcc21ba069af1e80","image grid","p","","","","","Ontogenetic_Distractor_Threat_target","ongrid","1100","q","2","Ontogenetic","false","practice"
"","null","html-keyboard-response","87","115504","0.0-9.0-2.19","1eRHo61TOn","5a6cc406d5d4cb0001d664aa","6617fad957f7c6a12ea16e26","6622cee5bcc21ba069af1e80","
    <div id=""grid-container"">
        <!-- Grid items will be dynamically added here -->
    </div>    ","null","","","","","","","","","","","",""
"","null","html-keyboard-response","88","116708","0.0-9.0-3.19","1eRHo61TOn","5a6cc406d5d4cb0001d664aa","6617fad957f7c6a12ea16e26","6622cee5bcc21ba069af1e80","feedback screen","null","","","","","","","","","","","",""
"","4984","html-keyboard-response","89","121747","0.0-10.0","1eRHo61TOn","5a6cc406d5d4cb0001d664aa","6617fad957f7c6a12ea16e26","6622cee5bcc21ba069af1e80","pre-experimental_briefing"," ","","","","","","","","","","","",""
"","null","html-keyboard-response","90","124267","0.0-11.0-0.0","1eRHo61TOn","5a6cc406d5d4cb0001d664aa","6617fad957f7c6a12ea16e26","6622cee5bcc21ba069af1e80","fixation cross","null","","","","","","","","","","","",""
"","null","html-keyboard-response","91","126768","0.0-11.0-1.0","1eRHo61TOn","5a6cc406d5d4cb0001d664aa","6617fad957f7c6a12ea16e26","6622cee5bcc21ba069af1e80","
        <div id=""grid-container"">
        <!-- Grid items will be dynamically added here -->
    </div>    ","null","","","","","","","","","","","",""
"","4223","html-keyboard-response","92","128491","0.0-11.0-2.0","1eRHo61TOn","5a6cc406d5d4cb0001d664aa","6617fad957f7c6a12ea16e26","6622cee5bcc21ba069af1e80","mask grid","p","","","","","Ontogenetic_Distractor_Nonthreat_target","onmask","2500","p","7","Ontogenetic","true","experimental"
"","null","html-keyboard-response","93","129194","0.0-11.0-0.1","1eRHo61TOn","5a6cc406d5d4cb0001d664aa","6617fad957f7c6a12ea16e26","6622cee5bcc21ba069af1e80","fixation cross","null","","","","","","","","","","","",""
"","1971","html-keyboard-response","94","131166","0.0-11.0-1.1","1eRHo61TOn","5a6cc406d5d4cb0001d664aa","6617fad957f7c6a12ea16e26","6622cee5bcc21ba069af1e80","image grid","q","","","","","Ontogenetic_Distractor_Threat_target","ongrid","2500","q","2","Ontogenetic","true","experimental"
"","null","html-keyboard-response","95","131320","0.0-11.0-2.1","1eRHo61TOn","5a6cc406d5d4cb0001d664aa","6617fad957f7c6a12ea16e26","6622cee5bcc21ba069af1e80","
    <div id=""grid-container"">
        <!-- Grid items will be dynamically added here -->
    </div>    ","null","","","","","","","","","","","",""
"","null","html-keyboard-response","96","132023","0.0-11.0-0.2","1eRHo61TOn","5a6cc406d5d4cb0001d664aa","6617fad957f7c6a12ea16e26","6622cee5bcc21ba069af1e80","fixation cross","null","","","","","","","","","","","",""
"","1932","html-keyboard-response","97","133955","0.0-11.0-1.2","1eRHo61TOn","5a6cc406d5d4cb0001d664aa","6617fad957f7c6a12ea16e26","6622cee5bcc21ba069af1e80","image grid","p","","","","","Ontogenetic_Distractor_Nonthreat_target","ongrid","2500","p","1","Ontogenetic","true","experimental"
"","null","html-keyboard-response","98","134106","0.0-11.0-2.2","1eRHo61TOn","5a6cc406d5d4cb0001d664aa","6617fad957f7c6a12ea16e26","6622cee5bcc21ba069af1e80","
    <div id=""grid-container"">
        <!-- Grid items will be dynamically added here -->
    </div>    ","null","","","","","","","","","","","",""
"","null","html-keyboard-response","99","134808","0.0-11.0-0.3","1eRHo61TOn","5a6cc406d5d4cb0001d664aa","6617fad957f7c6a12ea16e26","6622cee5bcc21ba069af1e80","fixation cross","null","","","","","","","","","","","",""
"","1315","html-keyboard-response","100","136125","0.0-11.0-1.3","1eRHo61TOn","5a6cc406d5d4cb0001d664aa","6617fad957f7c6a12ea16e26","6622cee5bcc21ba069af1e80","image grid","q","","","","","Ontogenetic_Distractor_Threat_target","ongrid","2500","q","3","Ontogenetic","true","experimental"
"","null","html-keyboard-response","101","136278","0.0-11.0-2.3","1eRHo61TOn","5a6cc406d5d4cb0001d664aa","6617fad957f7c6a12ea16e26","6622cee5bcc21ba069af1e80","
    <div id=""grid-container"">
        <!-- Grid items will be dynamically added here -->
    </div>    ","null","","","","","","","","","","","",""
"","null","html-keyboard-response","102","136981","0.0-11.0-0.4","1eRHo61TOn","5a6cc406d5d4cb0001d664aa","6617fad957f7c6a12ea16e26","6622cee5bcc21ba069af1e80","fixation cross","null","","","","","","","","","","","",""
"","1593","html-keyboard-response","103","138574","0.0-11.0-1.4","1eRHo61TOn","5a6cc406d5d4cb0001d664aa","6617fad957f7c6a12ea16e26","6622cee5bcc21ba069af1e80","image grid","q","","","","","Ontogenetic_Distractor_Nonthreat_target","ongrid","2500","p","1","Ontogenetic","false","experimental"
"","null","html-keyboard-response","104","138727","0.0-11.0-2.4","1eRHo61TOn","5a6cc406d5d4cb0001d664aa","6617fad957f7c6a12ea16e26","6622cee5bcc21ba069af1e80","
    <div id=""grid-container"">
        <!-- Grid items will be dynamically added here -->
    </div>    ","null","","","","","","","","","","","",""
"","null","html-keyboard-response","105","139429","0.0-11.0-0.5","1eRHo61TOn","5a6cc406d5d4cb0001d664aa","6617fad957f7c6a12ea16e26","6622cee5bcc21ba069af1e80","fixation cross","null","","","","","","","","","","","",""
"","1127","html-keyboard-response","106","140557","0.0-11.0-1.5","1eRHo61TOn","5a6cc406d5d4cb0001d664aa","6617fad957f7c6a12ea16e26","6622cee5bcc21ba069af1e80","image grid","q","","","","","Ontogenetic_Distractor_Nonthreat_target","ongrid","2500","p","5","Ontogenetic","false","experimental"
"","null","html-keyboard-response","107","140709","0.0-11.0-2.5","1eRHo61TOn","5a6cc406d5d4cb0001d664aa","6617fad957f7c6a12ea16e26","6622cee5bcc21ba069af1e80","
    <div id=""grid-container"">
        <!-- Grid items will be dynamically added here -->
    </div>    ","null","","","","","","","","","","","",""
"","null","html-keyboard-response","108","141412","0.0-11.0-0.6","1eRHo61TOn","5a6cc406d5d4cb0001d664aa","6617fad957f7c6a12ea16e26","6622cee5bcc21ba069af1e80","fixation cross","null","","","","","","","","","","","",""
"","1534","html-keyboard-response","109","142947","0.0-11.0-1.6","1eRHo61TOn","5a6cc406d5d4cb0001d664aa","6617fad957f7c6a12ea16e26","6622cee5bcc21ba069af1e80","image grid","q","","","","","Ontogenetic_Distractor_Nonthreat_target","ongrid","2500","p","7","Ontogenetic","false","experimental"
"","null","html-keyboard-response","110","143099","0.0-11.0-2.6","1eRHo61TOn","5a6cc406d5d4cb0001d664aa","6617fad957f7c6a12ea16e26","6622cee5bcc21ba069af1e80","
    <div id=""grid-container"">
        <!-- Grid items will be dynamically added here -->
    </div>    ","null","","","","","","","","","","","",""
"","null","html-keyboard-response","111","143802","0.0-11.0-0.7","1eRHo61TOn","5a6cc406d5d4cb0001d664aa","6617fad957f7c6a12ea16e26","6622cee5bcc21ba069af1e80","fixation cross","null","","","","","","","","","","","",""
"","1029","html-keyboard-response","112","144831","0.0-11.0-1.7","1eRHo61TOn","5a6cc406d5d4cb0001d664aa","6617fad957f7c6a12ea16e26","6622cee5bcc21ba069af1e80","image grid","p","","","","","Ontogenetic_Distractor_Threat_target","ongrid","2500","q","2","Ontogenetic","false","experimental"
"","null","html-keyboard-response","113","144984","0.0-11.0-2.7","1eRHo61TOn","5a6cc406d5d4cb0001d664aa","6617fad957f7c6a12ea16e26","6622cee5bcc21ba069af1e80","
    <div id=""grid-container"">
        <!-- Grid items will be dynamically added here -->
    </div>    ","null","","","","","","","","","","","",""
"","null","html-keyboard-response","114","145687","0.0-11.0-0.8","1eRHo61TOn","5a6cc406d5d4cb0001d664aa","6617fad957f7c6a12ea16e26","6622cee5bcc21ba069af1e80","fixation cross","null","","","","","","","","","","","",""
"","1045","html-keyboard-response","115","146733","0.0-11.0-1.8","1eRHo61TOn","5a6cc406d5d4cb0001d664aa","6617fad957f7c6a12ea16e26","6622cee5bcc21ba069af1e80","image grid","p","","","","","Ontogenetic_Distractor_Threat_target","ongrid","2500","q","4","Ontogenetic","false","experimental"
"","null","html-keyboard-response","116","146887","0.0-11.0-2.8","1eRHo61TOn","5a6cc406d5d4cb0001d664aa","6617fad957f7c6a12ea16e26","6622cee5bcc21ba069af1e80","
    <div id=""grid-container"">
        <!-- Grid items will be dynamically added here -->
    </div>    ","null","","","","","","","","","","","",""
"","null","html-keyboard-response","117","147590","0.0-11.0-0.9","1eRHo61TOn","5a6cc406d5d4cb0001d664aa","6617fad957f7c6a12ea16e26","6622cee5bcc21ba069af1e80","fixation cross","null","","","","","","","","","","","",""
"","1653","html-keyboard-response","118","149243","0.0-11.0-1.9","1eRHo61TOn","5a6cc406d5d4cb0001d664aa","6617fad957f7c6a12ea16e26","6622cee5bcc21ba069af1e80","image grid"," ","","","","","Ontogenetic_Distractor_notarget","ongrid","2500"," ","9","Ontogenetic","true","experimental"
"","null","html-keyboard-response","119","149395","0.0-11.0-2.9","1eRHo61TOn","5a6cc406d5d4cb0001d664aa","6617fad957f7c6a12ea16e26","6622cee5bcc21ba069af1e80","
    <div id=""grid-container"">
        <!-- Grid items will be dynamically added here -->
    </div>    ","null","","","","","","","","","","","",""
"","null","html-keyboard-response","120","150098","0.0-11.0-0.10","1eRHo61TOn","5a6cc406d5d4cb0001d664aa","6617fad957f7c6a12ea16e26","6622cee5bcc21ba069af1e80","fixation cross","null","","","","","","","","","","","",""
"","1240","html-keyboard-response","121","151339","0.0-11.0-1.10","1eRHo61TOn","5a6cc406d5d4cb0001d664aa","6617fad957f7c6a12ea16e26","6622cee5bcc21ba069af1e80","image grid","q","","","","","Ontogenetic_Distractor_Threat_target","ongrid","2500","q","2","Ontogenetic","true","experimental"
"","null","html-keyboard-response","122","151491","0.0-11.0-2.10","1eRHo61TOn","5a6cc406d5d4cb0001d664aa","6617fad957f7c6a12ea16e26","6622cee5bcc21ba069af1e80","
    <div id=""grid-container"">
        <!-- Grid items will be dynamically added here -->
    </div>    ","null","","","","","","","","","","","",""
"","null","html-keyboard-response","123","152193","0.0-11.0-0.11","1eRHo61TOn","5a6cc406d5d4cb0001d664aa","6617fad957f7c6a12ea16e26","6622cee5bcc21ba069af1e80","fixation cross","null","","","","","","","","","","","",""
"","858","html-keyboard-response","124","153051","0.0-11.0-1.11","1eRHo61TOn","5a6cc406d5d4cb0001d664aa","6617fad957f7c6a12ea16e26","6622cee5bcc21ba069af1e80","image grid","q","","","","","Ontogenetic_Distractor_Threat_target","ongrid","2500","q","3","Ontogenetic","true","experimental"
"","null","html-keyboard-response","125","153202","0.0-11.0-2.11","1eRHo61TOn","5a6cc406d5d4cb0001d664aa","6617fad957f7c6a12ea16e26","6622cee5bcc21ba069af1e80","
    <div id=""grid-container"">
        <!-- Grid items will be dynamically added here -->
    </div>    ","null","","","","","","","","","","","",""
"","null","html-keyboard-response","126","153905","0.0-11.0-0.12","1eRHo61TOn","5a6cc406d5d4cb0001d664aa","6617fad957f7c6a12ea16e26","6622cee5bcc21ba069af1e80","fixation cross","null","","","","","","","","","","","",""
"","1292","html-keyboard-response","127","155197","0.0-11.0-1.12","1eRHo61TOn","5a6cc406d5d4cb0001d664aa","6617fad957f7c6a12ea16e26","6622cee5bcc21ba069af1e80","image grid","p","","","","","Ontogenetic_Distractor_Nonthreat_target","ongrid","2500","p","6","Ontogenetic","true","experimental"
"","null","html-keyboard-response","128","155351","0.0-11.0-2.12","1eRHo61TOn","5a6cc406d5d4cb0001d664aa","6617fad957f7c6a12ea16e26","6622cee5bcc21ba069af1e80","
    <div id=""grid-container"">
        <!-- Grid items will be dynamically added here -->
    </div>    ","null","","","","","","","","","","","",""
"","null","html-keyboard-response","129","156052","0.0-11.0-0.13","1eRHo61TOn","5a6cc406d5d4cb0001d664aa","6617fad957f7c6a12ea16e26","6622cee5bcc21ba069af1e80","fixation cross","null","","","","","","","","","","","",""
"","1783","html-keyboard-response","130","157837","0.0-11.0-1.13","1eRHo61TOn","5a6cc406d5d4cb0001d664aa","6617fad957f7c6a12ea16e26","6622cee5bcc21ba069af1e80","image grid","q","","","","","Ontogenetic_Distractor_Threat_target","ongrid","2500","q","8","Ontogenetic","true","experimental"
"","null","html-keyboard-response","131","157989","0.0-11.0-2.13","1eRHo61TOn","5a6cc406d5d4cb0001d664aa","6617fad957f7c6a12ea16e26","6622cee5bcc21ba069af1e80","
    <div id=""grid-container"">
        <!-- Grid items will be dynamically added here -->
    </div>    ","null","","","","","","","","","","","",""
"","null","html-keyboard-response","132","158691","0.0-11.0-0.14","1eRHo61TOn","5a6cc406d5d4cb0001d664aa","6617fad957f7c6a12ea16e26","6622cee5bcc21ba069af1e80","fixation cross","null","","","","","","","","","","","",""
"","1679","html-keyboard-response","133","160370","0.0-11.0-1.14","1eRHo61TOn","5a6cc406d5d4cb0001d664aa","6617fad957f7c6a12ea16e26","6622cee5bcc21ba069af1e80","image grid","q","","","","","Ontogenetic_Distractor_Threat_target","ongrid","2500","q","5","Ontogenetic","true","experimental"
"","null","html-keyboard-response","134","160524","0.0-11.0-2.14","1eRHo61TOn","5a6cc406d5d4cb0001d664aa","6617fad957f7c6a12ea16e26","6622cee5bcc21ba069af1e80","
    <div id=""grid-container"">
        <!-- Grid items will be dynamically added here -->
    </div>    ","null","","","","","","","","","","","",""
"","null","html-keyboard-response","135","161227","0.0-11.0-0.15","1eRHo61TOn","5a6cc406d5d4cb0001d664aa","6617fad957f7c6a12ea16e26","6622cee5bcc21ba069af1e80","fixation cross","null","","","","","","","","","","","",""
"","1454","html-keyboard-response","136","162684","0.0-11.0-1.15","1eRHo61TOn","5a6cc406d5d4cb0001d664aa","6617fad957f7c6a12ea16e26","6622cee5bcc21ba069af1e80","image grid","p","","","","","Ontogenetic_Distractor_Nonthreat_target","ongrid","2500","p","1","Ontogenetic","true","experimental"
"","null","html-keyboard-response","137","162836","0.0-11.0-2.15","1eRHo61TOn","5a6cc406d5d4cb0001d664aa","6617fad957f7c6a12ea16e26","6622cee5bcc21ba069af1e80","
    <div id=""grid-container"">
        <!-- Grid items will be dynamically added here -->
    </div>    ","null","","","","","","","","","","","",""
"","null","html-keyboard-response","138","163538","0.0-11.0-0.16","1eRHo61TOn","5a6cc406d5d4cb0001d664aa","6617fad957f7c6a12ea16e26","6622cee5bcc21ba069af1e80","fixation cross","null","","","","","","","","","","","",""
"","1242","html-keyboard-response","139","164781","0.0-11.0-1.16","1eRHo61TOn","5a6cc406d5d4cb0001d664aa","6617fad957f7c6a12ea16e26","6622cee5bcc21ba069af1e80","image grid"," ","","","","","Ontogenetic_Distractor_notarget","ongrid","2500"," ","4","Ontogenetic","true","experimental"
"","null","html-keyboard-response","140","164933","0.0-11.0-2.16","1eRHo61TOn","5a6cc406d5d4cb0001d664aa","6617fad957f7c6a12ea16e26","6622cee5bcc21ba069af1e80","
    <div id=""grid-container"">
        <!-- Grid items will be dynamically added here -->
    </div>    ","null","","","","","","","","","","","",""
"","null","html-keyboard-response","141","165637","0.0-11.0-0.17","1eRHo61TOn","5a6cc406d5d4cb0001d664aa","6617fad957f7c6a12ea16e26","6622cee5bcc21ba069af1e80","fixation cross","null","","","","","","","","","","","",""
"","1044","html-keyboard-response","142","166683","0.0-11.0-1.17","1eRHo61TOn","5a6cc406d5d4cb0001d664aa","6617fad957f7c6a12ea16e26","6622cee5bcc21ba069af1e80","image grid","q","","","","","Ontogenetic_Distractor_Threat_target","ongrid","2500","q","6","Ontogenetic","true","experimental"
"","null","html-keyboard-response","143","166834","0.0-11.0-2.17","1eRHo61TOn","5a6cc406d5d4cb0001d664aa","6617fad957f7c6a12ea16e26","6622cee5bcc21ba069af1e80","
    <div id=""grid-container"">
        <!-- Grid items will be dynamically added here -->
    </div>    ","null","","","","","","","","","","","",""
"","null","html-keyboard-response","144","167537","0.0-11.0-0.18","1eRHo61TOn","5a6cc406d5d4cb0001d664aa","6617fad957f7c6a12ea16e26","6622cee5bcc21ba069af1e80","fixation cross","null","","","","","","","","","","","",""
"","1042","html-keyboard-response","145","168579","0.0-11.0-1.18","1eRHo61TOn","5a6cc406d5d4cb0001d664aa","6617fad957f7c6a12ea16e26","6622cee5bcc21ba069af1e80","image grid","p","","","","","Ontogenetic_Distractor_Nonthreat_target","ongrid","2500","p","3","Ontogenetic","true","experimental"
"","null","html-keyboard-response","146","168731","0.0-11.0-2.18","1eRHo61TOn","5a6cc406d5d4cb0001d664aa","6617fad957f7c6a12ea16e26","6622cee5bcc21ba069af1e80","
    <div id=""grid-container"">
        <!-- Grid items will be dynamically added here -->
    </div>    ","null","","","","","","","","","","","",""
"","null","html-keyboard-response","147","169433","0.0-11.0-0.19","1eRHo61TOn","5a6cc406d5d4cb0001d664aa","6617fad957f7c6a12ea16e26","6622cee5bcc21ba069af1e80","fixation cross","null","","","","","","","","","","","",""
"","882","html-keyboard-response","148","170317","0.0-11.0-1.19","1eRHo61TOn","5a6cc406d5d4cb0001d664aa","6617fad957f7c6a12ea16e26","6622cee5bcc21ba069af1e80","image grid","q","","","","","Ontogenetic_Distractor_Threat_target","ongrid","2500","q","8","Ontogenetic","true","experimental"
"","null","html-keyboard-response","149","170470","0.0-11.0-2.19","1eRHo61TOn","5a6cc406d5d4cb0001d664aa","6617fad957f7c6a12ea16e26","6622cee5bcc21ba069af1e80","
    <div id=""grid-container"">
        <!-- Grid items will be dynamically added here -->
    </div>    ","null","","","","","","","","","","","",""
"","null","html-keyboard-response","150","171172","0.0-11.0-0.20","1eRHo61TOn","5a6cc406d5d4cb0001d664aa","6617fad957f7c6a12ea16e26","6622cee5bcc21ba069af1e80","fixation cross","null","","","","","","","","","","","",""
"","1655","html-keyboard-response","151","172829","0.0-11.0-1.20","1eRHo61TOn","5a6cc406d5d4cb0001d664aa","6617fad957f7c6a12ea16e26","6622cee5bcc21ba069af1e80","image grid","p","","","","","Ontogenetic_Distractor_Nonthreat_target","ongrid","2500","p","6","Ontogenetic","true","experimental"
"","null","html-keyboard-response","152","172982","0.0-11.0-2.20","1eRHo61TOn","5a6cc406d5d4cb0001d664aa","6617fad957f7c6a12ea16e26","6622cee5bcc21ba069af1e80","
    <div id=""grid-container"">
        <!-- Grid items will be dynamically added here -->
    </div>    ","null","","","","","","","","","","","",""
"","null","html-keyboard-response","153","173686","0.0-11.0-0.21","1eRHo61TOn","5a6cc406d5d4cb0001d664aa","6617fad957f7c6a12ea16e26","6622cee5bcc21ba069af1e80","fixation cross","null","","","","","","","","","","","",""
"","1109","html-keyboard-response","154","174797","0.0-11.0-1.21","1eRHo61TOn","5a6cc406d5d4cb0001d664aa","6617fad957f7c6a12ea16e26","6622cee5bcc21ba069af1e80","image grid","p","","","","","Ontogenetic_Distractor_Nonthreat_target","ongrid","2500","p","5","Ontogenetic","true","experimental"
"","null","html-keyboard-response","155","174950","0.0-11.0-2.21","1eRHo61TOn","5a6cc406d5d4cb0001d664aa","6617fad957f7c6a12ea16e26","6622cee5bcc21ba069af1e80","
    <div id=""grid-container"">
        <!-- Grid items will be dynamically added here -->
    </div>    ","null","","","","","","","","","","","",""
"","null","html-keyboard-response","156","175653","0.0-11.0-0.22","1eRHo61TOn","5a6cc406d5d4cb0001d664aa","6617fad957f7c6a12ea16e26","6622cee5bcc21ba069af1e80","fixation cross","null","","","","","","","","","","","",""
"","927","html-keyboard-response","157","176580","0.0-11.0-1.22","1eRHo61TOn","5a6cc406d5d4cb0001d664aa","6617fad957f7c6a12ea16e26","6622cee5bcc21ba069af1e80","image grid","q","","","","","Ontogenetic_Distractor_Threat_target","ongrid","2500","q","9","Ontogenetic","true","experimental"
"","null","html-keyboard-response","158","176734","0.0-11.0-2.22","1eRHo61TOn","5a6cc406d5d4cb0001d664aa","6617fad957f7c6a12ea16e26","6622cee5bcc21ba069af1e80","
    <div id=""grid-container"">
        <!-- Grid items will be dynamically added here -->
    </div>    ","null","","","","","","","","","","","",""
"","null","html-keyboard-response","159","177437","0.0-11.0-0.23","1eRHo61TOn","5a6cc406d5d4cb0001d664aa","6617fad957f7c6a12ea16e26","6622cee5bcc21ba069af1e80","fixation cross","null","","","","","","","","","","","",""
"","984","html-keyboard-response","160","178421","0.0-11.0-1.23","1eRHo61TOn","5a6cc406d5d4cb0001d664aa","6617fad957f7c6a12ea16e26","6622cee5bcc21ba069af1e80","image grid","p","","","","","Ontogenetic_Distractor_Nonthreat_target","ongrid","2500","p","3","Ontogenetic","true","experimental"
"","null","html-keyboard-response","161","178574","0.0-11.0-2.23","1eRHo61TOn","5a6cc406d5d4cb0001d664aa","6617fad957f7c6a12ea16e26","6622cee5bcc21ba069af1e80","
    <div id=""grid-container"">
        <!-- Grid items will be dynamically added here -->
    </div>    ","null","","","","","","","","","","","",""
"","null","html-keyboard-response","162","179277","0.0-11.0-0.24","1eRHo61TOn","5a6cc406d5d4cb0001d664aa","6617fad957f7c6a12ea16e26","6622cee5bcc21ba069af1e80","fixation cross","null","","","","","","","","","","","",""
"","1502","html-keyboard-response","163","180779","0.0-11.0-1.24","1eRHo61TOn","5a6cc406d5d4cb0001d664aa","6617fad957f7c6a12ea16e26","6622cee5bcc21ba069af1e80","image grid","q","","","","","Ontogenetic_Distractor_Threat_target","ongrid","2500","q","1","Ontogenetic","true","experimental"
"","null","html-keyboard-response","164","180931","0.0-11.0-2.24","1eRHo61TOn","5a6cc406d5d4cb0001d664aa","6617fad957f7c6a12ea16e26","6622cee5bcc21ba069af1e80","
    <div id=""grid-container"">
        <!-- Grid items will be dynamically added here -->
    </div>    ","null","","","","","","","","","","","",""
"","null","html-keyboard-response","165","181633","0.0-11.0-0.25","1eRHo61TOn","5a6cc406d5d4cb0001d664aa","6617fad957f7c6a12ea16e26","6622cee5bcc21ba069af1e80","fixation cross","null","","","","","","","","","","","",""
"","858","html-keyboard-response","166","182492","0.0-11.0-1.25","1eRHo61TOn","5a6cc406d5d4cb0001d664aa","6617fad957f7c6a12ea16e26","6622cee5bcc21ba069af1e80","image grid","q","","","","","Ontogenetic_Distractor_Threat_target","ongrid","2500","q","2","Ontogenetic","true","experimental"
"","null","html-keyboard-response","167","182644","0.0-11.0-2.25","1eRHo61TOn","5a6cc406d5d4cb0001d664aa","6617fad957f7c6a12ea16e26","6622cee5bcc21ba069af1e80","
    <div id=""grid-container"">
        <!-- Grid items will be dynamically added here -->
    </div>    ","null","","","","","","","","","","","",""
"","null","html-keyboard-response","168","183347","0.0-11.0-0.26","1eRHo61TOn","5a6cc406d5d4cb0001d664aa","6617fad957f7c6a12ea16e26","6622cee5bcc21ba069af1e80","fixation cross","null","","","","","","","","","","","",""
"","777","html-keyboard-response","169","184125","0.0-11.0-1.26","1eRHo61TOn","5a6cc406d5d4cb0001d664aa","6617fad957f7c6a12ea16e26","6622cee5bcc21ba069af1e80","image grid","q","","","","","Ontogenetic_Distractor_Threat_target","ongrid","2500","q","4","Ontogenetic","true","experimental"
"","null","html-keyboard-response","170","184277","0.0-11.0-2.26","1eRHo61TOn","5a6cc406d5d4cb0001d664aa","6617fad957f7c6a12ea16e26","6622cee5bcc21ba069af1e80","
    <div id=""grid-container"">
        <!-- Grid items will be dynamically added here -->
    </div>    ","null","","","","","","","","","","","",""
"","null","html-keyboard-response","171","184980","0.0-11.0-0.27","1eRHo61TOn","5a6cc406d5d4cb0001d664aa","6617fad957f7c6a12ea16e26","6622cee5bcc21ba069af1e80","fixation cross","null","","","","","","","","","","","",""
"","null","html-keyboard-response","172","187482","0.0-11.0-1.27","1eRHo61TOn","5a6cc406d5d4cb0001d664aa","6617fad957f7c6a12ea16e26","6622cee5bcc21ba069af1e80","
        <div id=""grid-container"">
        <!-- Grid items will be dynamically added here -->
    </div>    ","null","","","","","","","","","","","",""
"","3096","html-keyboard-response","173","188078","0.0-11.0-2.27","1eRHo61TOn","5a6cc406d5d4cb0001d664aa","6617fad957f7c6a12ea16e26","6622cee5bcc21ba069af1e80","mask grid","q","","","","","Ontogenetic_Distractor_notarget","onmask","2500"," ","9","Ontogenetic","false","experimental"
"","null","html-keyboard-response","174","188781","0.0-11.0-0.28","1eRHo61TOn","5a6cc406d5d4cb0001d664aa","6617fad957f7c6a12ea16e26","6622cee5bcc21ba069af1e80","fixation cross","null","","","","","","","","","","","",""
"","1214","html-keyboard-response","175","189996","0.0-11.0-1.28","1eRHo61TOn","5a6cc406d5d4cb0001d664aa","6617fad957f7c6a12ea16e26","6622cee5bcc21ba069af1e80","image grid","p","","","","","Ontogenetic_Distractor_Nonthreat_target","ongrid","2500","p","5","Ontogenetic","true","experimental"
"","null","html-keyboard-response","176","190149","0.0-11.0-2.28","1eRHo61TOn","5a6cc406d5d4cb0001d664aa","6617fad957f7c6a12ea16e26","6622cee5bcc21ba069af1e80","
    <div id=""grid-container"">
        <!-- Grid items will be dynamically added here -->
    </div>    ","null","","","","","","","","","","","",""
"","null","html-keyboard-response","177","190852","0.0-11.0-0.29","1eRHo61TOn","5a6cc406d5d4cb0001d664aa","6617fad957f7c6a12ea16e26","6622cee5bcc21ba069af1e80","fixation cross","null","","","","","","","","","","","",""
"","1000","html-keyboard-response","178","191853","0.0-11.0-1.29","1eRHo61TOn","5a6cc406d5d4cb0001d664aa","6617fad957f7c6a12ea16e26","6622cee5bcc21ba069af1e80","image grid","q","","","","","Ontogenetic_Distractor_Threat_target","ongrid","2500","q","4","Ontogenetic","true","experimental"
"","null","html-keyboard-response","179","192006","0.0-11.0-2.29","1eRHo61TOn","5a6cc406d5d4cb0001d664aa","6617fad957f7c6a12ea16e26","6622cee5bcc21ba069af1e80","
    <div id=""grid-container"">
        <!-- Grid items will be dynamically added here -->
    </div>    ","null","","","","","","","","","","","",""
"","null","html-keyboard-response","180","192709","0.0-11.0-0.30","1eRHo61TOn","5a6cc406d5d4cb0001d664aa","6617fad957f7c6a12ea16e26","6622cee5bcc21ba069af1e80","fixation cross","null","","","","","","","","","","","",""
"","910","html-keyboard-response","181","193619","0.0-11.0-1.30","1eRHo61TOn","5a6cc406d5d4cb0001d664aa","6617fad957f7c6a12ea16e26","6622cee5bcc21ba069af1e80","image grid","p","","","","","Ontogenetic_Distractor_Nonthreat_target","ongrid","2500","p","1","Ontogenetic","true","experimental"
"","null","html-keyboard-response","182","193772","0.0-11.0-2.30","1eRHo61TOn","5a6cc406d5d4cb0001d664aa","6617fad957f7c6a12ea16e26","6622cee5bcc21ba069af1e80","
    <div id=""grid-container"">
        <!-- Grid items will be dynamically added here -->
    </div>    ","null","","","","","","","","","","","",""
"","null","html-keyboard-response","183","194473","0.0-11.0-0.31","1eRHo61TOn","5a6cc406d5d4cb0001d664aa","6617fad957f7c6a12ea16e26","6622cee5bcc21ba069af1e80","fixation cross","null","","","","","","","","","","","",""
"","741","html-keyboard-response","184","195215","0.0-11.0-1.31","1eRHo61TOn","5a6cc406d5d4cb0001d664aa","6617fad957f7c6a12ea16e26","6622cee5bcc21ba069af1e80","image grid","p","","","","","Ontogenetic_Distractor_Nonthreat_target","ongrid","2500","p","4","Ontogenetic","true","experimental"
"","null","html-keyboard-response","185","195366","0.0-11.0-2.31","1eRHo61TOn","5a6cc406d5d4cb0001d664aa","6617fad957f7c6a12ea16e26","6622cee5bcc21ba069af1e80","
    <div id=""grid-container"">
        <!-- Grid items will be dynamically added here -->
    </div>    ","null","","","","","","","","","","","",""
"","null","html-keyboard-response","186","196069","0.0-11.0-0.32","1eRHo61TOn","5a6cc406d5d4cb0001d664aa","6617fad957f7c6a12ea16e26","6622cee5bcc21ba069af1e80","fixation cross","null","","","","","","","","","","","",""
"","1909","html-keyboard-response","187","197979","0.0-11.0-1.32","1eRHo61TOn","5a6cc406d5d4cb0001d664aa","6617fad957f7c6a12ea16e26","6622cee5bcc21ba069af1e80","image grid"," ","","","","","Ontogenetic_Distractor_notarget","ongrid","2500"," ","5","Ontogenetic","true","experimental"
"","null","html-keyboard-response","188","198131","0.0-11.0-2.32","1eRHo61TOn","5a6cc406d5d4cb0001d664aa","6617fad957f7c6a12ea16e26","6622cee5bcc21ba069af1e80","
    <div id=""grid-container"">
        <!-- Grid items will be dynamically added here -->
    </div>    ","null","","","","","","","","","","","",""
"","null","html-keyboard-response","189","198835","0.0-11.0-0.33","1eRHo61TOn","5a6cc406d5d4cb0001d664aa","6617fad957f7c6a12ea16e26","6622cee5bcc21ba069af1e80","fixation cross","null","","","","","","","","","","","",""
"","1210","html-keyboard-response","190","200046","0.0-11.0-1.33","1eRHo61TOn","5a6cc406d5d4cb0001d664aa","6617fad957f7c6a12ea16e26","6622cee5bcc21ba069af1e80","image grid","p","","","","","Ontogenetic_Distractor_Nonthreat_target","ongrid","2500","p","3","Ontogenetic","true","experimental"
"","null","html-keyboard-response","191","200200","0.0-11.0-2.33","1eRHo61TOn","5a6cc406d5d4cb0001d664aa","6617fad957f7c6a12ea16e26","6622cee5bcc21ba069af1e80","
    <div id=""grid-container"">
        <!-- Grid items will be dynamically added here -->
    </div>    ","null","","","","","","","","","","","",""
"","null","html-keyboard-response","192","200902","0.0-11.0-0.34","1eRHo61TOn","5a6cc406d5d4cb0001d664aa","6617fad957f7c6a12ea16e26","6622cee5bcc21ba069af1e80","fixation cross","null","","","","","","","","","","","",""
"","662","html-keyboard-response","193","201565","0.0-11.0-1.34","1eRHo61TOn","5a6cc406d5d4cb0001d664aa","6617fad957f7c6a12ea16e26","6622cee5bcc21ba069af1e80","image grid","q","","","","","Ontogenetic_Distractor_Threat_target","ongrid","2500","q","8","Ontogenetic","true","experimental"
"","null","html-keyboard-response","194","201718","0.0-11.0-2.34","1eRHo61TOn","5a6cc406d5d4cb0001d664aa","6617fad957f7c6a12ea16e26","6622cee5bcc21ba069af1e80","
    <div id=""grid-container"">
        <!-- Grid items will be dynamically added here -->
    </div>    ","null","","","","","","","","","","","",""
"","null","html-keyboard-response","195","202424","0.0-11.0-0.35","1eRHo61TOn","5a6cc406d5d4cb0001d664aa","6617fad957f7c6a12ea16e26","6622cee5bcc21ba069af1e80","fixation cross","null","","","","","","","","","","","",""
"","721","html-keyboard-response","196","203147","0.0-11.0-1.35","1eRHo61TOn","5a6cc406d5d4cb0001d664aa","6617fad957f7c6a12ea16e26","6622cee5bcc21ba069af1e80","image grid","q","","","","","Ontogenetic_Distractor_Threat_target","ongrid","2500","q","4","Ontogenetic","true","experimental"
"","null","html-keyboard-response","197","203299","0.0-11.0-2.35","1eRHo61TOn","5a6cc406d5d4cb0001d664aa","6617fad957f7c6a12ea16e26","6622cee5bcc21ba069af1e80","
    <div id=""grid-container"">
        <!-- Grid items will be dynamically added here -->
    </div>    ","null","","","","","","","","","","","",""
"","null","html-keyboard-response","198","204002","0.0-11.0-0.36","1eRHo61TOn","5a6cc406d5d4cb0001d664aa","6617fad957f7c6a12ea16e26","6622cee5bcc21ba069af1e80","fixation cross","null","","","","","","","","","","","",""
"","617","html-keyboard-response","199","204621","0.0-11.0-1.36","1eRHo61TOn","5a6cc406d5d4cb0001d664aa","6617fad957f7c6a12ea16e26","6622cee5bcc21ba069af1e80","image grid","q","","","","","Ontogenetic_Distractor_Threat_target","ongrid","2500","q","1","Ontogenetic","true","experimental"
"","null","html-keyboard-response","200","204774","0.0-11.0-2.36","1eRHo61TOn","5a6cc406d5d4cb0001d664aa","6617fad957f7c6a12ea16e26","6622cee5bcc21ba069af1e80","
    <div id=""grid-container"">
        <!-- Grid items will be dynamically added here -->
    </div>    ","null","","","","","","","","","","","",""
"","null","html-keyboard-response","201","205477","0.0-11.0-0.37","1eRHo61TOn","5a6cc406d5d4cb0001d664aa","6617fad957f7c6a12ea16e26","6622cee5bcc21ba069af1e80","fixation cross","null","","","","","","","","","","","",""
"","775","html-keyboard-response","202","206251","0.0-11.0-1.37","1eRHo61TOn","5a6cc406d5d4cb0001d664aa","6617fad957f7c6a12ea16e26","6622cee5bcc21ba069af1e80","image grid","p","","","","","Ontogenetic_Distractor_Nonthreat_target","ongrid","2500","p","6","Ontogenetic","true","experimental"
"","null","html-keyboard-response","203","206403","0.0-11.0-2.37","1eRHo61TOn","5a6cc406d5d4cb0001d664aa","6617fad957f7c6a12ea16e26","6622cee5bcc21ba069af1e80","
    <div id=""grid-container"">
        <!-- Grid items will be dynamically added here -->
    </div>    ","null","","","","","","","","","","","",""
"","null","html-keyboard-response","204","207106","0.0-11.0-0.38","1eRHo61TOn","5a6cc406d5d4cb0001d664aa","6617fad957f7c6a12ea16e26","6622cee5bcc21ba069af1e80","fixation cross","null","","","","","","","","","","","",""
"","1290","html-keyboard-response","205","208397","0.0-11.0-1.38","1eRHo61TOn","5a6cc406d5d4cb0001d664aa","6617fad957f7c6a12ea16e26","6622cee5bcc21ba069af1e80","image grid","p","","","","","Ontogenetic_Distractor_Nonthreat_target","ongrid","2500","p","7","Ontogenetic","true","experimental"
"","null","html-keyboard-response","206","208550","0.0-11.0-2.38","1eRHo61TOn","5a6cc406d5d4cb0001d664aa","6617fad957f7c6a12ea16e26","6622cee5bcc21ba069af1e80","
    <div id=""grid-container"">
        <!-- Grid items will be dynamically added here -->
    </div>    ","null","","","","","","","","","","","",""
"","null","html-keyboard-response","207","209251","0.0-11.0-0.39","1eRHo61TOn","5a6cc406d5d4cb0001d664aa","6617fad957f7c6a12ea16e26","6622cee5bcc21ba069af1e80","fixation cross","null","","","","","","","","","","","",""
"","1145","html-keyboard-response","208","210398","0.0-11.0-1.39","1eRHo61TOn","5a6cc406d5d4cb0001d664aa","6617fad957f7c6a12ea16e26","6622cee5bcc21ba069af1e80","image grid","p","","","","","Ontogenetic_Distractor_Nonthreat_target","ongrid","2500","p","1","Ontogenetic","true","experimental"
"","null","html-keyboard-response","209","210550","0.0-11.0-2.39","1eRHo61TOn","5a6cc406d5d4cb0001d664aa","6617fad957f7c6a12ea16e26","6622cee5bcc21ba069af1e80","
    <div id=""grid-container"">
        <!-- Grid items will be dynamically added here -->
    </div>    ","null","","","","","","","","","","","",""
"","1066","html-keyboard-response","210","211860","0.0-12.0","1eRHo61TOn","5a6cc406d5d4cb0001d664aa","6617fad957f7c6a12ea16e26","6622cee5bcc21ba069af1e80","break screen"," ","","","","","","","","","","","",""
"","null","html-keyboard-response","211","214363","0.0-13.0-0.0","1eRHo61TOn","5a6cc406d5d4cb0001d664aa","6617fad957f7c6a12ea16e26","6622cee5bcc21ba069af1e80","fixation cross","null","","","","","","","","","","","",""
"","754","html-keyboard-response","212","215117","0.0-13.0-1.0","1eRHo61TOn","5a6cc406d5d4cb0001d664aa","6617fad957f7c6a12ea16e26","6622cee5bcc21ba069af1e80","image grid","p","","","","","Ontogenetic_Distractor_Nonthreat_target","ongrid","2500","p","6","Ontogenetic","true","experimental"
"","null","html-keyboard-response","213","215271","0.0-13.0-2.0","1eRHo61TOn","5a6cc406d5d4cb0001d664aa","6617fad957f7c6a12ea16e26","6622cee5bcc21ba069af1e80","
    <div id=""grid-container"">
        <!-- Grid items will be dynamically added here -->
    </div>    ","null","","","","","","","","","","","",""
"","null","html-keyboard-response","214","215973","0.0-13.0-0.1","1eRHo61TOn","5a6cc406d5d4cb0001d664aa","6617fad957f7c6a12ea16e26","6622cee5bcc21ba069af1e80","fixation cross","null","","","","","","","","","","","",""
"","631","html-keyboard-response","215","216605","0.0-13.0-1.1","1eRHo61TOn","5a6cc406d5d4cb0001d664aa","6617fad957f7c6a12ea16e26","6622cee5bcc21ba069af1e80","image grid","p","","","","","Ontogenetic_Distractor_Nonthreat_target","ongrid","2500","p","6","Ontogenetic","true","experimental"
"","null","html-keyboard-response","216","216758","0.0-13.0-2.1","1eRHo61TOn","5a6cc406d5d4cb0001d664aa","6617fad957f7c6a12ea16e26","6622cee5bcc21ba069af1e80","
    <div id=""grid-container"">
        <!-- Grid items will be dynamically added here -->
    </div>    ","null","","","","","","","","","","","",""
"","null","html-keyboard-response","217","217460","0.0-13.0-0.2","1eRHo61TOn","5a6cc406d5d4cb0001d664aa","6617fad957f7c6a12ea16e26","6622cee5bcc21ba069af1e80","fixation cross","null","","","","","","","","","","","",""
"","809","html-keyboard-response","218","218269","0.0-13.0-1.2","1eRHo61TOn","5a6cc406d5d4cb0001d664aa","6617fad957f7c6a12ea16e26","6622cee5bcc21ba069af1e80","image grid","p","","","","","Ontogenetic_Distractor_Nonthreat_target","ongrid","2500","p","3","Ontogenetic","true","experimental"
"","null","html-keyboard-response","219","218423","0.0-13.0-2.2","1eRHo61TOn","5a6cc406d5d4cb0001d664aa","6617fad957f7c6a12ea16e26","6622cee5bcc21ba069af1e80","
    <div id=""grid-container"">
        <!-- Grid items will be dynamically added here -->
    </div>    ","null","","","","","","","","","","","",""
"","null","html-keyboard-response","220","219127","0.0-13.0-0.3","1eRHo61TOn","5a6cc406d5d4cb0001d664aa","6617fad957f7c6a12ea16e26","6622cee5bcc21ba069af1e80","fixation cross","null","","","","","","","","","","","",""
"","1160","html-keyboard-response","221","220287","0.0-13.0-1.3","1eRHo61TOn","5a6cc406d5d4cb0001d664aa","6617fad957f7c6a12ea16e26","6622cee5bcc21ba069af1e80","image grid"," ","","","","","Ontogenetic_Distractor_notarget","ongrid","2500"," ","1","Ontogenetic","true","experimental"
"","null","html-keyboard-response","222","220440","0.0-13.0-2.3","1eRHo61TOn","5a6cc406d5d4cb0001d664aa","6617fad957f7c6a12ea16e26","6622cee5bcc21ba069af1e80","
    <div id=""grid-container"">
        <!-- Grid items will be dynamically added here -->
    </div>    ","null","","","","","","","","","","","",""
"","null","html-keyboard-response","223","221142","0.0-13.0-0.4","1eRHo61TOn","5a6cc406d5d4cb0001d664aa","6617fad957f7c6a12ea16e26","6622cee5bcc21ba069af1e80","fixation cross","null","","","","","","","","","","","",""
"","693","html-keyboard-response","224","221837","0.0-13.0-1.4","1eRHo61TOn","5a6cc406d5d4cb0001d664aa","6617fad957f7c6a12ea16e26","6622cee5bcc21ba069af1e80","image grid","p","","","","","Ontogenetic_Distractor_Threat_target","ongrid","2500","q","3","Ontogenetic","false","experimental"
"","null","html-keyboard-response","225","221990","0.0-13.0-2.4","1eRHo61TOn","5a6cc406d5d4cb0001d664aa","6617fad957f7c6a12ea16e26","6622cee5bcc21ba069af1e80","
    <div id=""grid-container"">
        <!-- Grid items will be dynamically added here -->
    </div>    ","null","","","","","","","","","","","",""
"","null","html-keyboard-response","226","222693","0.0-13.0-0.5","1eRHo61TOn","5a6cc406d5d4cb0001d664aa","6617fad957f7c6a12ea16e26","6622cee5bcc21ba069af1e80","fixation cross","null","","","","","","","","","","","",""
"","756","html-keyboard-response","227","223451","0.0-13.0-1.5","1eRHo61TOn","5a6cc406d5d4cb0001d664aa","6617fad957f7c6a12ea16e26","6622cee5bcc21ba069af1e80","image grid","p","","","","","Ontogenetic_Distractor_Nonthreat_target","ongrid","2500","p","5","Ontogenetic","true","experimental"
"","null","html-keyboard-response","228","223604","0.0-13.0-2.5","1eRHo61TOn","5a6cc406d5d4cb0001d664aa","6617fad957f7c6a12ea16e26","6622cee5bcc21ba069af1e80","
    <div id=""grid-container"">
        <!-- Grid items will be dynamically added here -->
    </div>    ","null","","","","","","","","","","","",""
"","null","html-keyboard-response","229","224306","0.0-13.0-0.6","1eRHo61TOn","5a6cc406d5d4cb0001d664aa","6617fad957f7c6a12ea16e26","6622cee5bcc21ba069af1e80","fixation cross","null","","","","","","","","","","","",""
"","1161","html-keyboard-response","230","225467","0.0-13.0-1.6","1eRHo61TOn","5a6cc406d5d4cb0001d664aa","6617fad957f7c6a12ea16e26","6622cee5bcc21ba069af1e80","image grid","p","","","","","Ontogenetic_Distractor_Nonthreat_target","ongrid","2500","p","9","Ontogenetic","true","experimental"
"","null","html-keyboard-response","231","225619","0.0-13.0-2.6","1eRHo61TOn","5a6cc406d5d4cb0001d664aa","6617fad957f7c6a12ea16e26","6622cee5bcc21ba069af1e80","
    <div id=""grid-container"">
        <!-- Grid items will be dynamically added here -->
    </div>    ","null","","","","","","","","","","","",""
"","null","html-keyboard-response","232","226321","0.0-13.0-0.7","1eRHo61TOn","5a6cc406d5d4cb0001d664aa","6617fad957f7c6a12ea16e26","6622cee5bcc21ba069af1e80","fixation cross","null","","","","","","","","","","","",""
"","913","html-keyboard-response","233","227237","0.0-13.0-1.7","1eRHo61TOn","5a6cc406d5d4cb0001d664aa","6617fad957f7c6a12ea16e26","6622cee5bcc21ba069af1e80","image grid","q","","","","","Ontogenetic_Distractor_Threat_target","ongrid","2500","q","9","Ontogenetic","true","experimental"
"","null","html-keyboard-response","234","227389","0.0-13.0-2.7","1eRHo61TOn","5a6cc406d5d4cb0001d664aa","6617fad957f7c6a12ea16e26","6622cee5bcc21ba069af1e80","
    <div id=""grid-container"">
        <!-- Grid items will be dynamically added here -->
    </div>    ","null","","","","","","","","","","","",""
"","null","html-keyboard-response","235","228091","0.0-13.0-0.8","1eRHo61TOn","5a6cc406d5d4cb0001d664aa","6617fad957f7c6a12ea16e26","6622cee5bcc21ba069af1e80","fixation cross","null","","","","","","","","","","","",""
"","880","html-keyboard-response","236","228973","0.0-13.0-1.8","1eRHo61TOn","5a6cc406d5d4cb0001d664aa","6617fad957f7c6a12ea16e26","6622cee5bcc21ba069af1e80","image grid","p","","","","","Ontogenetic_Distractor_Nonthreat_target","ongrid","2500","p","4","Ontogenetic","true","experimental"
"","null","html-keyboard-response","237","229126","0.0-13.0-2.8","1eRHo61TOn","5a6cc406d5d4cb0001d664aa","6617fad957f7c6a12ea16e26","6622cee5bcc21ba069af1e80","
    <div id=""grid-container"">
        <!-- Grid items will be dynamically added here -->
    </div>    ","null","","","","","","","","","","","",""
"","null","html-keyboard-response","238","229830","0.0-13.0-0.9","1eRHo61TOn","5a6cc406d5d4cb0001d664aa","6617fad957f7c6a12ea16e26","6622cee5bcc21ba069af1e80","fixation cross","null","","","","","","","","","","","",""
"","861","html-keyboard-response","239","230691","0.0-13.0-1.9","1eRHo61TOn","5a6cc406d5d4cb0001d664aa","6617fad957f7c6a12ea16e26","6622cee5bcc21ba069af1e80","image grid","p","","","","","Ontogenetic_Distractor_Nonthreat_target","ongrid","2500","p","6","Ontogenetic","true","experimental"
"","null","html-keyboard-response","240","230844","0.0-13.0-2.9","1eRHo61TOn","5a6cc406d5d4cb0001d664aa","6617fad957f7c6a12ea16e26","6622cee5bcc21ba069af1e80","
    <div id=""grid-container"">
        <!-- Grid items will be dynamically added here -->
    </div>    ","null","","","","","","","","","","","",""
"","null","html-keyboard-response","241","231546","0.0-13.0-0.10","1eRHo61TOn","5a6cc406d5d4cb0001d664aa","6617fad957f7c6a12ea16e26","6622cee5bcc21ba069af1e80","fixation cross","null","","","","","","","","","","","",""
"","1075","html-keyboard-response","242","232622","0.0-13.0-1.10","1eRHo61TOn","5a6cc406d5d4cb0001d664aa","6617fad957f7c6a12ea16e26","6622cee5bcc21ba069af1e80","image grid","p","","","","","Ontogenetic_Distractor_Nonthreat_target","ongrid","2500","p","9","Ontogenetic","true","experimental"
"","null","html-keyboard-response","243","232776","0.0-13.0-2.10","1eRHo61TOn","5a6cc406d5d4cb0001d664aa","6617fad957f7c6a12ea16e26","6622cee5bcc21ba069af1e80","
    <div id=""grid-container"">
        <!-- Grid items will be dynamically added here -->
    </div>    ","null","","","","","","","","","","","",""
"","null","html-keyboard-response","244","233479","0.0-13.0-0.11","1eRHo61TOn","5a6cc406d5d4cb0001d664aa","6617fad957f7c6a12ea16e26","6622cee5bcc21ba069af1e80","fixation cross","null","","","","","","","","","","","",""
"","1111","html-keyboard-response","245","234589","0.0-13.0-1.11","1eRHo61TOn","5a6cc406d5d4cb0001d664aa","6617fad957f7c6a12ea16e26","6622cee5bcc21ba069af1e80","image grid","p","","","","","Ontogenetic_Distractor_Nonthreat_target","ongrid","2500","p","5","Ontogenetic","true","experimental"
"","null","html-keyboard-response","246","234742","0.0-13.0-2.11","1eRHo61TOn","5a6cc406d5d4cb0001d664aa","6617fad957f7c6a12ea16e26","6622cee5bcc21ba069af1e80","
    <div id=""grid-container"">
        <!-- Grid items will be dynamically added here -->
    </div>    ","null","","","","","","","","","","","",""
"","null","html-keyboard-response","247","235446","0.0-13.0-0.12","1eRHo61TOn","5a6cc406d5d4cb0001d664aa","6617fad957f7c6a12ea16e26","6622cee5bcc21ba069af1e80","fixation cross","null","","","","","","","","","","","",""
"","831","html-keyboard-response","248","236278","0.0-13.0-1.12","1eRHo61TOn","5a6cc406d5d4cb0001d664aa","6617fad957f7c6a12ea16e26","6622cee5bcc21ba069af1e80","image grid","q","","","","","Ontogenetic_Distractor_Threat_target","ongrid","2500","q","1","Ontogenetic","true","experimental"
"","null","html-keyboard-response","249","236431","0.0-13.0-2.12","1eRHo61TOn","5a6cc406d5d4cb0001d664aa","6617fad957f7c6a12ea16e26","6622cee5bcc21ba069af1e80","
    <div id=""grid-container"">
        <!-- Grid items will be dynamically added here -->
    </div>    ","null","","","","","","","","","","","",""
"","null","html-keyboard-response","250","237134","0.0-13.0-0.13","1eRHo61TOn","5a6cc406d5d4cb0001d664aa","6617fad957f7c6a12ea16e26","6622cee5bcc21ba069af1e80","fixation cross","null","","","","","","","","","","","",""
"","557","html-keyboard-response","251","237693","0.0-13.0-1.13","1eRHo61TOn","5a6cc406d5d4cb0001d664aa","6617fad957f7c6a12ea16e26","6622cee5bcc21ba069af1e80","image grid","q","","","","","Ontogenetic_Distractor_Threat_target","ongrid","2500","q","5","Ontogenetic","true","experimental"
"","null","html-keyboard-response","252","237847","0.0-13.0-2.13","1eRHo61TOn","5a6cc406d5d4cb0001d664aa","6617fad957f7c6a12ea16e26","6622cee5bcc21ba069af1e80","
    <div id=""grid-container"">
        <!-- Grid items will be dynamically added here -->
    </div>    ","null","","","","","","","","","","","",""
"","null","html-keyboard-response","253","238550","0.0-13.0-0.14","1eRHo61TOn","5a6cc406d5d4cb0001d664aa","6617fad957f7c6a12ea16e26","6622cee5bcc21ba069af1e80","fixation cross","null","","","","","","","","","","","",""
"","631","html-keyboard-response","254","239181","0.0-13.0-1.14","1eRHo61TOn","5a6cc406d5d4cb0001d664aa","6617fad957f7c6a12ea16e26","6622cee5bcc21ba069af1e80","image grid","q","","","","","Ontogenetic_Distractor_Threat_target","ongrid","2500","q","4","Ontogenetic","true","experimental"
"","null","html-keyboard-response","255","239335","0.0-13.0-2.14","1eRHo61TOn","5a6cc406d5d4cb0001d664aa","6617fad957f7c6a12ea16e26","6622cee5bcc21ba069af1e80","
    <div id=""grid-container"">
        <!-- Grid items will be dynamically added here -->
    </div>    ","null","","","","","","","","","","","",""
"","null","html-keyboard-response","256","240038","0.0-13.0-0.15","1eRHo61TOn","5a6cc406d5d4cb0001d664aa","6617fad957f7c6a12ea16e26","6622cee5bcc21ba069af1e80","fixation cross","null","","","","","","","","","","","",""
"","583","html-keyboard-response","257","240622","0.0-13.0-1.15","1eRHo61TOn","5a6cc406d5d4cb0001d664aa","6617fad957f7c6a12ea16e26","6622cee5bcc21ba069af1e80","image grid","p","","","","","Ontogenetic_Distractor_Nonthreat_target","ongrid","2500","p","5","Ontogenetic","true","experimental"
"","null","html-keyboard-response","258","240775","0.0-13.0-2.15","1eRHo61TOn","5a6cc406d5d4cb0001d664aa","6617fad957f7c6a12ea16e26","6622cee5bcc21ba069af1e80","
    <div id=""grid-container"">
        <!-- Grid items will be dynamically added here -->
    </div>    ","null","","","","","","","","","","","",""
"","null","html-keyboard-response","259","241477","0.0-13.0-0.16","1eRHo61TOn","5a6cc406d5d4cb0001d664aa","6617fad957f7c6a12ea16e26","6622cee5bcc21ba069af1e80","fixation cross","null","","","","","","","","","","","",""
"","847","html-keyboard-response","260","242324","0.0-13.0-1.16","1eRHo61TOn","5a6cc406d5d4cb0001d664aa","6617fad957f7c6a12ea16e26","6622cee5bcc21ba069af1e80","image grid","q","","","","","Ontogenetic_Distractor_Threat_target","ongrid","2500","q","2","Ontogenetic","true","experimental"
"","null","html-keyboard-response","261","242479","0.0-13.0-2.16","1eRHo61TOn","5a6cc406d5d4cb0001d664aa","6617fad957f7c6a12ea16e26","6622cee5bcc21ba069af1e80","
    <div id=""grid-container"">
        <!-- Grid items will be dynamically added here -->
    </div>    ","null","","","","","","","","","","","",""
"","null","html-keyboard-response","262","243183","0.0-13.0-0.17","1eRHo61TOn","5a6cc406d5d4cb0001d664aa","6617fad957f7c6a12ea16e26","6622cee5bcc21ba069af1e80","fixation cross","null","","","","","","","","","","","",""
"","902","html-keyboard-response","263","244086","0.0-13.0-1.17","1eRHo61TOn","5a6cc406d5d4cb0001d664aa","6617fad957f7c6a12ea16e26","6622cee5bcc21ba069af1e80","image grid","q","","","","","Ontogenetic_Distractor_Threat_target","ongrid","2500","q","7","Ontogenetic","true","experimental"
"","null","html-keyboard-response","264","244240","0.0-13.0-2.17","1eRHo61TOn","5a6cc406d5d4cb0001d664aa","6617fad957f7c6a12ea16e26","6622cee5bcc21ba069af1e80","
    <div id=""grid-container"">
        <!-- Grid items will be dynamically added here -->
    </div>    ","null","","","","","","","","","","","",""
"","null","html-keyboard-response","265","244943","0.0-13.0-0.18","1eRHo61TOn","5a6cc406d5d4cb0001d664aa","6617fad957f7c6a12ea16e26","6622cee5bcc21ba069af1e80","fixation cross","null","","","","","","","","","","","",""
"","719","html-keyboard-response","266","245661","0.0-13.0-1.18","1eRHo61TOn","5a6cc406d5d4cb0001d664aa","6617fad957f7c6a12ea16e26","6622cee5bcc21ba069af1e80","image grid","p","","","","","Ontogenetic_Distractor_Nonthreat_target","ongrid","2500","p","3","Ontogenetic","true","experimental"
"","null","html-keyboard-response","267","245815","0.0-13.0-2.18","1eRHo61TOn","5a6cc406d5d4cb0001d664aa","6617fad957f7c6a12ea16e26","6622cee5bcc21ba069af1e80","
    <div id=""grid-container"">
        <!-- Grid items will be dynamically added here -->
    </div>    ","null","","","","","","","","","","","",""
"","null","html-keyboard-response","268","246517","0.0-13.0-0.19","1eRHo61TOn","5a6cc406d5d4cb0001d664aa","6617fad957f7c6a12ea16e26","6622cee5bcc21ba069af1e80","fixation cross","null","","","","","","","","","","","",""
"","1608","html-keyboard-response","269","248126","0.0-13.0-1.19","1eRHo61TOn","5a6cc406d5d4cb0001d664aa","6617fad957f7c6a12ea16e26","6622cee5bcc21ba069af1e80","image grid","q","","","","","Ontogenetic_Distractor_Threat_target","ongrid","2500","q","9","Ontogenetic","true","experimental"
"","null","html-keyboard-response","270","248278","0.0-13.0-2.19","1eRHo61TOn","5a6cc406d5d4cb0001d664aa","6617fad957f7c6a12ea16e26","6622cee5bcc21ba069af1e80","
    <div id=""grid-container"">
        <!-- Grid items will be dynamically added here -->
    </div>    ","null","","","","","","","","","","","",""
"","null","html-keyboard-response","271","248980","0.0-13.0-0.20","1eRHo61TOn","5a6cc406d5d4cb0001d664aa","6617fad957f7c6a12ea16e26","6622cee5bcc21ba069af1e80","fixation cross","null","","","","","","","","","","","",""
"","1802","html-keyboard-response","272","250783","0.0-13.0-1.20","1eRHo61TOn","5a6cc406d5d4cb0001d664aa","6617fad957f7c6a12ea16e26","6622cee5bcc21ba069af1e80","image grid","p","","","","","Ontogenetic_Distractor_Nonthreat_target","ongrid","2500","p","1","Ontogenetic","true","experimental"
"","null","html-keyboard-response","273","250937","0.0-13.0-2.20","1eRHo61TOn","5a6cc406d5d4cb0001d664aa","6617fad957f7c6a12ea16e26","6622cee5bcc21ba069af1e80","
    <div id=""grid-container"">
        <!-- Grid items will be dynamically added here -->
    </div>    ","null","","","","","","","","","","","",""
"","null","html-keyboard-response","274","251639","0.0-13.0-0.21","1eRHo61TOn","5a6cc406d5d4cb0001d664aa","6617fad957f7c6a12ea16e26","6622cee5bcc21ba069af1e80","fixation cross","null","","","","","","","","","","","",""
"","869","html-keyboard-response","275","252509","0.0-13.0-1.21","1eRHo61TOn","5a6cc406d5d4cb0001d664aa","6617fad957f7c6a12ea16e26","6622cee5bcc21ba069af1e80","image grid","p","","","","","Ontogenetic_Distractor_Nonthreat_target","ongrid","2500","p","1","Ontogenetic","true","experimental"
"","null","html-keyboard-response","276","252664","0.0-13.0-2.21","1eRHo61TOn","5a6cc406d5d4cb0001d664aa","6617fad957f7c6a12ea16e26","6622cee5bcc21ba069af1e80","
    <div id=""grid-container"">
        <!-- Grid items will be dynamically added here -->
    </div>    ","null","","","","","","","","","","","",""
"","null","html-keyboard-response","277","253368","0.0-13.0-0.22","1eRHo61TOn","5a6cc406d5d4cb0001d664aa","6617fad957f7c6a12ea16e26","6622cee5bcc21ba069af1e80","fixation cross","null","","","","","","","","","","","",""
"","698","html-keyboard-response","278","254066","0.0-13.0-1.22","1eRHo61TOn","5a6cc406d5d4cb0001d664aa","6617fad957f7c6a12ea16e26","6622cee5bcc21ba069af1e80","image grid","p","","","","","Ontogenetic_Distractor_Nonthreat_target","ongrid","2500","p","2","Ontogenetic","true","experimental"
"","null","html-keyboard-response","279","254218","0.0-13.0-2.22","1eRHo61TOn","5a6cc406d5d4cb0001d664aa","6617fad957f7c6a12ea16e26","6622cee5bcc21ba069af1e80","
    <div id=""grid-container"">
        <!-- Grid items will be dynamically added here -->
    </div>    ","null","","","","","","","","","","","",""
"","null","html-keyboard-response","280","254921","0.0-13.0-0.23","1eRHo61TOn","5a6cc406d5d4cb0001d664aa","6617fad957f7c6a12ea16e26","6622cee5bcc21ba069af1e80","fixation cross","null","","","","","","","","","","","",""
"","677","html-keyboard-response","281","255597","0.0-13.0-1.23","1eRHo61TOn","5a6cc406d5d4cb0001d664aa","6617fad957f7c6a12ea16e26","6622cee5bcc21ba069af1e80","image grid","q","","","","","Ontogenetic_Distractor_Threat_target","ongrid","2500","q","1","Ontogenetic","true","experimental"
"","null","html-keyboard-response","282","255751","0.0-13.0-2.23","1eRHo61TOn","5a6cc406d5d4cb0001d664aa","6617fad957f7c6a12ea16e26","6622cee5bcc21ba069af1e80","
    <div id=""grid-container"">
        <!-- Grid items will be dynamically added here -->
    </div>    ","null","","","","","","","","","","","",""
"","null","html-keyboard-response","283","256453","0.0-13.0-0.24","1eRHo61TOn","5a6cc406d5d4cb0001d664aa","6617fad957f7c6a12ea16e26","6622cee5bcc21ba069af1e80","fixation cross","null","","","","","","","","","","","",""
"","944","html-keyboard-response","284","257397","0.0-13.0-1.24","1eRHo61TOn","5a6cc406d5d4cb0001d664aa","6617fad957f7c6a12ea16e26","6622cee5bcc21ba069af1e80","image grid","q","","","","","Ontogenetic_Distractor_Threat_target","ongrid","2500","q","9","Ontogenetic","true","experimental"
"","null","html-keyboard-response","285","257550","0.0-13.0-2.24","1eRHo61TOn","5a6cc406d5d4cb0001d664aa","6617fad957f7c6a12ea16e26","6622cee5bcc21ba069af1e80","
    <div id=""grid-container"">
        <!-- Grid items will be dynamically added here -->
    </div>    ","null","","","","","","","","","","","",""
"","null","html-keyboard-response","286","258253","0.0-13.0-0.25","1eRHo61TOn","5a6cc406d5d4cb0001d664aa","6617fad957f7c6a12ea16e26","6622cee5bcc21ba069af1e80","fixation cross","null","","","","","","","","","","","",""
"","846","html-keyboard-response","287","259099","0.0-13.0-1.25","1eRHo61TOn","5a6cc406d5d4cb0001d664aa","6617fad957f7c6a12ea16e26","6622cee5bcc21ba069af1e80","image grid","q","","","","","Ontogenetic_Distractor_Threat_target","ongrid","2500","q","7","Ontogenetic","true","experimental"
"","null","html-keyboard-response","288","259252","0.0-13.0-2.25","1eRHo61TOn","5a6cc406d5d4cb0001d664aa","6617fad957f7c6a12ea16e26","6622cee5bcc21ba069af1e80","
    <div id=""grid-container"">
        <!-- Grid items will be dynamically added here -->
    </div>    ","null","","","","","","","","","","","",""
"","null","html-keyboard-response","289","259955","0.0-13.0-0.26","1eRHo61TOn","5a6cc406d5d4cb0001d664aa","6617fad957f7c6a12ea16e26","6622cee5bcc21ba069af1e80","fixation cross","null","","","","","","","","","","","",""
"","1696","html-keyboard-response","290","261653","0.0-13.0-1.26","1eRHo61TOn","5a6cc406d5d4cb0001d664aa","6617fad957f7c6a12ea16e26","6622cee5bcc21ba069af1e80","image grid"," ","","","","","Ontogenetic_Distractor_notarget","ongrid","2500"," ","4","Ontogenetic","true","experimental"
"","null","html-keyboard-response","291","261807","0.0-13.0-2.26","1eRHo61TOn","5a6cc406d5d4cb0001d664aa","6617fad957f7c6a12ea16e26","6622cee5bcc21ba069af1e80","
    <div id=""grid-container"">
        <!-- Grid items will be dynamically added here -->
    </div>    ","null","","","","","","","","","","","",""
"","null","html-keyboard-response","292","262509","0.0-13.0-0.27","1eRHo61TOn","5a6cc406d5d4cb0001d664aa","6617fad957f7c6a12ea16e26","6622cee5bcc21ba069af1e80","fixation cross","null","","","","","","","","","","","",""
"","838","html-keyboard-response","293","263350","0.0-13.0-1.27","1eRHo61TOn","5a6cc406d5d4cb0001d664aa","6617fad957f7c6a12ea16e26","6622cee5bcc21ba069af1e80","image grid","q","","","","","Ontogenetic_Distractor_Threat_target","ongrid","2500","q","4","Ontogenetic","true","experimental"
"","null","html-keyboard-response","294","263503","0.0-13.0-2.27","1eRHo61TOn","5a6cc406d5d4cb0001d664aa","6617fad957f7c6a12ea16e26","6622cee5bcc21ba069af1e80","
    <div id=""grid-container"">
        <!-- Grid items will be dynamically added here -->
    </div>    ","null","","","","","","","","","","","",""
"","null","html-keyboard-response","295","264206","0.0-13.0-0.28","1eRHo61TOn","5a6cc406d5d4cb0001d664aa","6617fad957f7c6a12ea16e26","6622cee5bcc21ba069af1e80","fixation cross","null","","","","","","","","","","","",""
"","1110","html-keyboard-response","296","265317","0.0-13.0-1.28","1eRHo61TOn","5a6cc406d5d4cb0001d664aa","6617fad957f7c6a12ea16e26","6622cee5bcc21ba069af1e80","image grid","p","","","","","Ontogenetic_Distractor_Nonthreat_target","ongrid","2500","p","7","Ontogenetic","true","experimental"
"","null","html-keyboard-response","297","265470","0.0-13.0-2.28","1eRHo61TOn","5a6cc406d5d4cb0001d664aa","6617fad957f7c6a12ea16e26","6622cee5bcc21ba069af1e80","
    <div id=""grid-container"">
        <!-- Grid items will be dynamically added here -->
    </div>    ","null","","","","","","","","","","","",""
"","null","html-keyboard-response","298","266172","0.0-13.0-0.29","1eRHo61TOn","5a6cc406d5d4cb0001d664aa","6617fad957f7c6a12ea16e26","6622cee5bcc21ba069af1e80","fixation cross","null","","","","","","","","","","","",""
"","735","html-keyboard-response","299","266909","0.0-13.0-1.29","1eRHo61TOn","5a6cc406d5d4cb0001d664aa","6617fad957f7c6a12ea16e26","6622cee5bcc21ba069af1e80","image grid","q","","","","","Ontogenetic_Distractor_Threat_target","ongrid","2500","q","7","Ontogenetic","true","experimental"
"","null","html-keyboard-response","300","267061","0.0-13.0-2.29","1eRHo61TOn","5a6cc406d5d4cb0001d664aa","6617fad957f7c6a12ea16e26","6622cee5bcc21ba069af1e80","
    <div id=""grid-container"">
        <!-- Grid items will be dynamically added here -->
    </div>    ","null","","","","","","","","","","","",""
"","null","html-keyboard-response","301","267764","0.0-13.0-0.30","1eRHo61TOn","5a6cc406d5d4cb0001d664aa","6617fad957f7c6a12ea16e26","6622cee5bcc21ba069af1e80","fixation cross","null","","","","","","","","","","","",""
"","536","html-keyboard-response","302","268300","0.0-13.0-1.30","1eRHo61TOn","5a6cc406d5d4cb0001d664aa","6617fad957f7c6a12ea16e26","6622cee5bcc21ba069af1e80","image grid","p","","","","","Ontogenetic_Distractor_Nonthreat_target","ongrid","2500","p","3","Ontogenetic","true","experimental"
"","null","html-keyboard-response","303","268455","0.0-13.0-2.30","1eRHo61TOn","5a6cc406d5d4cb0001d664aa","6617fad957f7c6a12ea16e26","6622cee5bcc21ba069af1e80","
    <div id=""grid-container"">
        <!-- Grid items will be dynamically added here -->
    </div>    ","null","","","","","","","","","","","",""
"","null","html-keyboard-response","304","269158","0.0-13.0-0.31","1eRHo61TOn","5a6cc406d5d4cb0001d664aa","6617fad957f7c6a12ea16e26","6622cee5bcc21ba069af1e80","fixation cross","null","","","","","","","","","","","",""
"","614","html-keyboard-response","305","269773","0.0-13.0-1.31","1eRHo61TOn","5a6cc406d5d4cb0001d664aa","6617fad957f7c6a12ea16e26","6622cee5bcc21ba069af1e80","image grid","q","","","","","Ontogenetic_Distractor_Threat_target","ongrid","2500","q","6","Ontogenetic","true","experimental"
"","null","html-keyboard-response","306","269926","0.0-13.0-2.31","1eRHo61TOn","5a6cc406d5d4cb0001d664aa","6617fad957f7c6a12ea16e26","6622cee5bcc21ba069af1e80","
    <div id=""grid-container"">
        <!-- Grid items will be dynamically added here -->
    </div>    ","null","","","","","","","","","","","",""
"","null","html-keyboard-response","307","270628","0.0-13.0-0.32","1eRHo61TOn","5a6cc406d5d4cb0001d664aa","6617fad957f7c6a12ea16e26","6622cee5bcc21ba069af1e80","fixation cross","null","","","","","","","","","","","",""
"","1477","html-keyboard-response","308","272107","0.0-13.0-1.32","1eRHo61TOn","5a6cc406d5d4cb0001d664aa","6617fad957f7c6a12ea16e26","6622cee5bcc21ba069af1e80","image grid"," ","","","","","Ontogenetic_Distractor_notarget","ongrid","2500"," ","1","Ontogenetic","true","experimental"
"","null","html-keyboard-response","309","272259","0.0-13.0-2.32","1eRHo61TOn","5a6cc406d5d4cb0001d664aa","6617fad957f7c6a12ea16e26","6622cee5bcc21ba069af1e80","
    <div id=""grid-container"">
        <!-- Grid items will be dynamically added here -->
    </div>    ","null","","","","","","","","","","","",""
"","null","html-keyboard-response","310","272961","0.0-13.0-0.33","1eRHo61TOn","5a6cc406d5d4cb0001d664aa","6617fad957f7c6a12ea16e26","6622cee5bcc21ba069af1e80","fixation cross","null","","","","","","","","","","","",""
"","1611","html-keyboard-response","311","274572","0.0-13.0-1.33","1eRHo61TOn","5a6cc406d5d4cb0001d664aa","6617fad957f7c6a12ea16e26","6622cee5bcc21ba069af1e80","image grid","q","","","","","Ontogenetic_Distractor_Threat_target","ongrid","2500","q","6","Ontogenetic","true","experimental"
"","null","html-keyboard-response","312","274724","0.0-13.0-2.33","1eRHo61TOn","5a6cc406d5d4cb0001d664aa","6617fad957f7c6a12ea16e26","6622cee5bcc21ba069af1e80","
    <div id=""grid-container"">
        <!-- Grid items will be dynamically added here -->
    </div>    ","null","","","","","","","","","","","",""
"","null","html-keyboard-response","313","275427","0.0-13.0-0.34","1eRHo61TOn","5a6cc406d5d4cb0001d664aa","6617fad957f7c6a12ea16e26","6622cee5bcc21ba069af1e80","fixation cross","null","","","","","","","","","","","",""
"","815","html-keyboard-response","314","276243","0.0-13.0-1.34","1eRHo61TOn","5a6cc406d5d4cb0001d664aa","6617fad957f7c6a12ea16e26","6622cee5bcc21ba069af1e80","image grid","q","","","","","Ontogenetic_Distractor_Threat_target","ongrid","2500","q","4","Ontogenetic","true","experimental"
"","null","html-keyboard-response","315","276395","0.0-13.0-2.34","1eRHo61TOn","5a6cc406d5d4cb0001d664aa","6617fad957f7c6a12ea16e26","6622cee5bcc21ba069af1e80","
    <div id=""grid-container"">
        <!-- Grid items will be dynamically added here -->
    </div>    ","null","","","","","","","","","","","",""
"","null","html-keyboard-response","316","277099","0.0-13.0-0.35","1eRHo61TOn","5a6cc406d5d4cb0001d664aa","6617fad957f7c6a12ea16e26","6622cee5bcc21ba069af1e80","fixation cross","null","","","","","","","","","","","",""
"","926","html-keyboard-response","317","278027","0.0-13.0-1.35","1eRHo61TOn","5a6cc406d5d4cb0001d664aa","6617fad957f7c6a12ea16e26","6622cee5bcc21ba069af1e80","image grid","p","","","","","Ontogenetic_Distractor_Nonthreat_target","ongrid","2500","p","7","Ontogenetic","true","experimental"
"","null","html-keyboard-response","318","278179","0.0-13.0-2.35","1eRHo61TOn","5a6cc406d5d4cb0001d664aa","6617fad957f7c6a12ea16e26","6622cee5bcc21ba069af1e80","
    <div id=""grid-container"">
        <!-- Grid items will be dynamically added here -->
    </div>    ","null","","","","","","","","","","","",""
"","null","html-keyboard-response","319","278882","0.0-13.0-0.36","1eRHo61TOn","5a6cc406d5d4cb0001d664aa","6617fad957f7c6a12ea16e26","6622cee5bcc21ba069af1e80","fixation cross","null","","","","","","","","","","","",""
"","1362","html-keyboard-response","320","280245","0.0-13.0-1.36","1eRHo61TOn","5a6cc406d5d4cb0001d664aa","6617fad957f7c6a12ea16e26","6622cee5bcc21ba069af1e80","image grid"," ","","","","","Ontogenetic_Distractor_notarget","ongrid","2500"," ","3","Ontogenetic","true","experimental"
"","null","html-keyboard-response","321","280398","0.0-13.0-2.36","1eRHo61TOn","5a6cc406d5d4cb0001d664aa","6617fad957f7c6a12ea16e26","6622cee5bcc21ba069af1e80","
    <div id=""grid-container"">
        <!-- Grid items will be dynamically added here -->
    </div>    ","null","","","","","","","","","","","",""
"","null","html-keyboard-response","322","281101","0.0-13.0-0.37","1eRHo61TOn","5a6cc406d5d4cb0001d664aa","6617fad957f7c6a12ea16e26","6622cee5bcc21ba069af1e80","fixation cross","null","","","","","","","","","","","",""
"","982","html-keyboard-response","323","282083","0.0-13.0-1.37","1eRHo61TOn","5a6cc406d5d4cb0001d664aa","6617fad957f7c6a12ea16e26","6622cee5bcc21ba069af1e80","image grid","p","","","","","Ontogenetic_Distractor_Nonthreat_target","ongrid","2500","p","8","Ontogenetic","true","experimental"
"","null","html-keyboard-response","324","282235","0.0-13.0-2.37","1eRHo61TOn","5a6cc406d5d4cb0001d664aa","6617fad957f7c6a12ea16e26","6622cee5bcc21ba069af1e80","
    <div id=""grid-container"">
        <!-- Grid items will be dynamically added here -->
    </div>    ","null","","","","","","","","","","","",""
"","null","html-keyboard-response","325","282937","0.0-13.0-0.38","1eRHo61TOn","5a6cc406d5d4cb0001d664aa","6617fad957f7c6a12ea16e26","6622cee5bcc21ba069af1e80","fixation cross","null","","","","","","","","","","","",""
"","961","html-keyboard-response","326","283899","0.0-13.0-1.38","1eRHo61TOn","5a6cc406d5d4cb0001d664aa","6617fad957f7c6a12ea16e26","6622cee5bcc21ba069af1e80","image grid","q","","","","","Ontogenetic_Distractor_Threat_target","ongrid","2500","q","7","Ontogenetic","true","experimental"
"","null","html-keyboard-response","327","284051","0.0-13.0-2.38","1eRHo61TOn","5a6cc406d5d4cb0001d664aa","6617fad957f7c6a12ea16e26","6622cee5bcc21ba069af1e80","
    <div id=""grid-container"">
        <!-- Grid items will be dynamically added here -->
    </div>    ","null","","","","","","","","","","","",""
"","null","html-keyboard-response","328","284754","0.0-13.0-0.39","1eRHo61TOn","5a6cc406d5d4cb0001d664aa","6617fad957f7c6a12ea16e26","6622cee5bcc21ba069af1e80","fixation cross","null","","","","","","","","","","","",""
"","1250","html-keyboard-response","329","286004","0.0-13.0-1.39","1eRHo61TOn","5a6cc406d5d4cb0001d664aa","6617fad957f7c6a12ea16e26","6622cee5bcc21ba069af1e80","image grid","q","","","","","Ontogenetic_Distractor_Threat_target","ongrid","2500","q","9","Ontogenetic","true","experimental"
"","null","html-keyboard-response","330","286158","0.0-13.0-2.39","1eRHo61TOn","5a6cc406d5d4cb0001d664aa","6617fad957f7c6a12ea16e26","6622cee5bcc21ba069af1e80","
    <div id=""grid-container"">
        <!-- Grid items will be dynamically added here -->
    </div>    ","null","","","","","","","","","","","",""
"","1114","html-keyboard-response","331","287474","0.0-14.0","1eRHo61TOn","5a6cc406d5d4cb0001d664aa","6617fad957f7c6a12ea16e26","6622cee5bcc21ba069af1e80","break screen"," ","","","","","","","","","","","",""
"","null","html-keyboard-response","332","289977","0.0-15.0-0.0","1eRHo61TOn","5a6cc406d5d4cb0001d664aa","6617fad957f7c6a12ea16e26","6622cee5bcc21ba069af1e80","fixation cross","null","","","","","","","","","","","",""
"","null","html-keyboard-response","333","290779","0.0-15.0-1.0","1eRHo61TOn","5a6cc406d5d4cb0001d664aa","6617fad957f7c6a12ea16e26","6622cee5bcc21ba069af1e80","
        <div id=""grid-container"">
        <!-- Grid items will be dynamically added here -->
    </div>    ","null","","","","","","","","","","","",""
"","2626","html-keyboard-response","334","292604","0.0-15.0-2.0","1eRHo61TOn","5a6cc406d5d4cb0001d664aa","6617fad957f7c6a12ea16e26","6622cee5bcc21ba069af1e80","mask grid"," ","","","","","Phylogenetic_Distractor_Nonthreat_target","onmask","800","p","5","Phylogenetic","false","experimental"
"","null","html-keyboard-response","335","293308","0.0-15.0-0.1","1eRHo61TOn","5a6cc406d5d4cb0001d664aa","6617fad957f7c6a12ea16e26","6622cee5bcc21ba069af1e80","fixation cross","null","","","","","","","","","","","",""
"","null","html-keyboard-response","336","294110","0.0-15.0-1.1","1eRHo61TOn","5a6cc406d5d4cb0001d664aa","6617fad957f7c6a12ea16e26","6622cee5bcc21ba069af1e80","
        <div id=""grid-container"">
        <!-- Grid items will be dynamically added here -->
    </div>    ","null","","","","","","","","","","","",""
"","1765","html-keyboard-response","337","295076","0.0-15.0-2.1","1eRHo61TOn","5a6cc406d5d4cb0001d664aa","6617fad957f7c6a12ea16e26","6622cee5bcc21ba069af1e80","mask grid","q","","","","","Phylogenetic_Distractor_Threat_target","onmask","800","q","1","Phylogenetic","true","experimental"
"","null","html-keyboard-response","338","295780","0.0-15.0-0.2","1eRHo61TOn","5a6cc406d5d4cb0001d664aa","6617fad957f7c6a12ea16e26","6622cee5bcc21ba069af1e80","fixation cross","null","","","","","","","","","","","",""
"","null","html-keyboard-response","339","296581","0.0-15.0-1.2","1eRHo61TOn","5a6cc406d5d4cb0001d664aa","6617fad957f7c6a12ea16e26","6622cee5bcc21ba069af1e80","
        <div id=""grid-container"">
        <!-- Grid items will be dynamically added here -->
    </div>    ","null","","","","","","","","","","","",""
"","1536","html-keyboard-response","340","297317","0.0-15.0-2.2","1eRHo61TOn","5a6cc406d5d4cb0001d664aa","6617fad957f7c6a12ea16e26","6622cee5bcc21ba069af1e80","mask grid","q","","","","","Phylogenetic_Distractor_Threat_target","onmask","800","q","2","Phylogenetic","true","experimental"
"","null","html-keyboard-response","341","298020","0.0-15.0-0.3","1eRHo61TOn","5a6cc406d5d4cb0001d664aa","6617fad957f7c6a12ea16e26","6622cee5bcc21ba069af1e80","fixation cross","null","","","","","","","","","","","",""
"","711","html-keyboard-response","342","298731","0.0-15.0-1.3","1eRHo61TOn","5a6cc406d5d4cb0001d664aa","6617fad957f7c6a12ea16e26","6622cee5bcc21ba069af1e80","image grid","q","","","","","Phylogenetic_Distractor_Threat_target","ongrid","800","q","5","Phylogenetic","true","experimental"
"","null","html-keyboard-response","343","298884","0.0-15.0-2.3","1eRHo61TOn","5a6cc406d5d4cb0001d664aa","6617fad957f7c6a12ea16e26","6622cee5bcc21ba069af1e80","
    <div id=""grid-container"">
        <!-- Grid items will be dynamically added here -->
    </div>    ","null","","","","","","","","","","","",""
"","null","html-keyboard-response","344","299586","0.0-15.0-0.4","1eRHo61TOn","5a6cc406d5d4cb0001d664aa","6617fad957f7c6a12ea16e26","6622cee5bcc21ba069af1e80","fixation cross","null","","","","","","","","","","","",""
"","null","html-keyboard-response","345","300388","0.0-15.0-1.4","1eRHo61TOn","5a6cc406d5d4cb0001d664aa","6617fad957f7c6a12ea16e26","6622cee5bcc21ba069af1e80","
        <div id=""grid-container"">
        <!-- Grid items will be dynamically added here -->
    </div>    ","null","","","","","","","","","","","",""
"","1257","html-keyboard-response","346","300845","0.0-15.0-2.4","1eRHo61TOn","5a6cc406d5d4cb0001d664aa","6617fad957f7c6a12ea16e26","6622cee5bcc21ba069af1e80","mask grid","p","","","","","Phylogenetic_Distractor_Nonthreat_target","onmask","800","p","3","Phylogenetic","true","experimental"
"","null","html-keyboard-response","347","301551","0.0-15.0-0.5","1eRHo61TOn","5a6cc406d5d4cb0001d664aa","6617fad957f7c6a12ea16e26","6622cee5bcc21ba069af1e80","fixation cross","null","","","","","","","","","","","",""
"","null","html-keyboard-response","348","302353","0.0-15.0-1.5","1eRHo61TOn","5a6cc406d5d4cb0001d664aa","6617fad957f7c6a12ea16e26","6622cee5bcc21ba069af1e80","
        <div id=""grid-container"">
        <!-- Grid items will be dynamically added here -->
    </div>    ","null","","","","","","","","","","","",""
"","1564","html-keyboard-response","349","303118","0.0-15.0-2.5","1eRHo61TOn","5a6cc406d5d4cb0001d664aa","6617fad957f7c6a12ea16e26","6622cee5bcc21ba069af1e80","mask grid"," ","","","","","Phylogenetic_Distractor_Nonthreat_target","onmask","800","p","9","Phylogenetic","false","experimental"
"","null","html-keyboard-response","350","303823","0.0-15.0-0.6","1eRHo61TOn","5a6cc406d5d4cb0001d664aa","6617fad957f7c6a12ea16e26","6622cee5bcc21ba069af1e80","fixation cross","null","","","","","","","","","","","",""
"","null","html-keyboard-response","351","304626","0.0-15.0-1.6","1eRHo61TOn","5a6cc406d5d4cb0001d664aa","6617fad957f7c6a12ea16e26","6622cee5bcc21ba069af1e80","
        <div id=""grid-container"">
        <!-- Grid items will be dynamically added here -->
    </div>    ","null","","","","","","","","","","","",""
"","1786","html-keyboard-response","352","305614","0.0-15.0-2.6","1eRHo61TOn","5a6cc406d5d4cb0001d664aa","6617fad957f7c6a12ea16e26","6622cee5bcc21ba069af1e80","mask grid","p","","","","","Phylogenetic_Distractor_Nonthreat_target","onmask","800","p","2","Phylogenetic","true","experimental"
"","null","html-keyboard-response","353","306318","0.0-15.0-0.7","1eRHo61TOn","5a6cc406d5d4cb0001d664aa","6617fad957f7c6a12ea16e26","6622cee5bcc21ba069af1e80","fixation cross","null","","","","","","","","","","","",""
"","null","html-keyboard-response","354","307120","0.0-15.0-1.7","1eRHo61TOn","5a6cc406d5d4cb0001d664aa","6617fad957f7c6a12ea16e26","6622cee5bcc21ba069af1e80","
        <div id=""grid-container"">
        <!-- Grid items will be dynamically added here -->
    </div>    ","null","","","","","","","","","","","",""
"","1641","html-keyboard-response","355","307963","0.0-15.0-2.7","1eRHo61TOn","5a6cc406d5d4cb0001d664aa","6617fad957f7c6a12ea16e26","6622cee5bcc21ba069af1e80","mask grid","q","","","","","Phylogenetic_Distractor_Threat_target","onmask","800","q","7","Phylogenetic","true","experimental"
"","null","html-keyboard-response","356","308665","0.0-15.0-0.8","1eRHo61TOn","5a6cc406d5d4cb0001d664aa","6617fad957f7c6a12ea16e26","6622cee5bcc21ba069af1e80","fixation cross","null","","","","","","","","","","","",""
"","null","html-keyboard-response","357","309466","0.0-15.0-1.8","1eRHo61TOn","5a6cc406d5d4cb0001d664aa","6617fad957f7c6a12ea16e26","6622cee5bcc21ba069af1e80","
        <div id=""grid-container"">
        <!-- Grid items will be dynamically added here -->
    </div>    ","null","","","","","","","","","","","",""
"","1369","html-keyboard-response","358","310036","0.0-15.0-2.8","1eRHo61TOn","5a6cc406d5d4cb0001d664aa","6617fad957f7c6a12ea16e26","6622cee5bcc21ba069af1e80","mask grid","q","","","","","Phylogenetic_Distractor_Threat_target","onmask","800","q","3","Phylogenetic","true","experimental"
"","null","html-keyboard-response","359","310741","0.0-15.0-0.9","1eRHo61TOn","5a6cc406d5d4cb0001d664aa","6617fad957f7c6a12ea16e26","6622cee5bcc21ba069af1e80","fixation cross","null","","","","","","","","","","","",""
"","null","html-keyboard-response","360","311543","0.0-15.0-1.9","1eRHo61TOn","5a6cc406d5d4cb0001d664aa","6617fad957f7c6a12ea16e26","6622cee5bcc21ba069af1e80","
        <div id=""grid-container"">
        <!-- Grid items will be dynamically added here -->
    </div>    ","null","","","","","","","","","","","",""
"","1443","html-keyboard-response","361","312187","0.0-15.0-2.9","1eRHo61TOn","5a6cc406d5d4cb0001d664aa","6617fad957f7c6a12ea16e26","6622cee5bcc21ba069af1e80","mask grid","q","","","","","Phylogenetic_Distractor_Threat_target","onmask","800","q","6","Phylogenetic","true","experimental"
"","null","html-keyboard-response","362","312891","0.0-15.0-0.10","1eRHo61TOn","5a6cc406d5d4cb0001d664aa","6617fad957f7c6a12ea16e26","6622cee5bcc21ba069af1e80","fixation cross","null","","","","","","","","","","","",""
"","null","html-keyboard-response","363","313693","0.0-15.0-1.10","1eRHo61TOn","5a6cc406d5d4cb0001d664aa","6617fad957f7c6a12ea16e26","6622cee5bcc21ba069af1e80","
        <div id=""grid-container"">
        <!-- Grid items will be dynamically added here -->
    </div>    ","null","","","","","","","","","","","",""
"","1352","html-keyboard-response","364","314246","0.0-15.0-2.10","1eRHo61TOn","5a6cc406d5d4cb0001d664aa","6617fad957f7c6a12ea16e26","6622cee5bcc21ba069af1e80","mask grid","p","","","","","Phylogenetic_Distractor_Nonthreat_target","onmask","800","p","1","Phylogenetic","true","experimental"
"","null","html-keyboard-response","365","314951","0.0-15.0-0.11","1eRHo61TOn","5a6cc406d5d4cb0001d664aa","6617fad957f7c6a12ea16e26","6622cee5bcc21ba069af1e80","fixation cross","null","","","","","","","","","","","",""
"","null","html-keyboard-response","366","315753","0.0-15.0-1.11","1eRHo61TOn","5a6cc406d5d4cb0001d664aa","6617fad957f7c6a12ea16e26","6622cee5bcc21ba069af1e80","
        <div id=""grid-container"">
        <!-- Grid items will be dynamically added here -->
    </div>    ","null","","","","","","","","","","","",""
"","1105","html-keyboard-response","367","316058","0.0-15.0-2.11","1eRHo61TOn","5a6cc406d5d4cb0001d664aa","6617fad957f7c6a12ea16e26","6622cee5bcc21ba069af1e80","mask grid","q","","","","","Phylogenetic_Distractor_Threat_target","onmask","800","q","5","Phylogenetic","true","experimental"
"","null","html-keyboard-response","368","316761","0.0-15.0-0.12","1eRHo61TOn","5a6cc406d5d4cb0001d664aa","6617fad957f7c6a12ea16e26","6622cee5bcc21ba069af1e80","fixation cross","null","","","","","","","","","","","",""
"","602","html-keyboard-response","369","317365","0.0-15.0-1.12","1eRHo61TOn","5a6cc406d5d4cb0001d664aa","6617fad957f7c6a12ea16e26","6622cee5bcc21ba069af1e80","image grid","q","","","","","Phylogenetic_Distractor_Threat_target","ongrid","800","q","5","Phylogenetic","true","experimental"
"","null","html-keyboard-response","370","317519","0.0-15.0-2.12","1eRHo61TOn","5a6cc406d5d4cb0001d664aa","6617fad957f7c6a12ea16e26","6622cee5bcc21ba069af1e80","
    <div id=""grid-container"">
        <!-- Grid items will be dynamically added here -->
