"success","rt","trial_type","trial_index","time_elapsed","internal_node_id","unique_identifier","subject_id","study_id","session_id","stimulus","response","timeout","failed_images","failed_audio","failed_video","task","time_manipulation","respondedwhen","correctresponse","targetimagelocation","blocktype","correct","roundtype"
"true","2096","fullscreen","0","3098","0.0-0.0","vfw30xUkkg","65b965069a415587a755a7de","6617fad957f7c6a12ea16e26","6622cd267d02c0e44a20bdfc","","","","","","","","","","","","","",""
"","18720","html-keyboard-response","1","21819","0.0-1.0","vfw30xUkkg","65b965069a415587a755a7de","6617fad957f7c6a12ea16e26","6622cd267d02c0e44a20bdfc","instruction screen 0"," ","","","","","","","","","","","",""
"true","","preload","2","24815","0.0-2.0","vfw30xUkkg","65b965069a415587a755a7de","6617fad957f7c6a12ea16e26","6622cd267d02c0e44a20bdfc","","","false","[]","[]","[]","","","","","","","",""
"","21395","html-keyboard-response","3","46211","0.0-3.0","vfw30xUkkg","65b965069a415587a755a7de","6617fad957f7c6a12ea16e26","6622cd267d02c0e44a20bdfc","instruction screen 1"," ","","","","","","","","","","","",""
"","23518","html-keyboard-response","4","69731","0.0-4.0","vfw30xUkkg","65b965069a415587a755a7de","6617fad957f7c6a12ea16e26","6622cd267d02c0e44a20bdfc","instruction screen 2","q","","","","","","","","","","","",""
"","8934","html-keyboard-response","5","78690","0.0-5.0","vfw30xUkkg","65b965069a415587a755a7de","6617fad957f7c6a12ea16e26","6622cd267d02c0e44a20bdfc","instruction screen 3","p","","","","","","","","","","","",""
"","10328","html-keyboard-response","6","89043","0.0-6.0","vfw30xUkkg","65b965069a415587a755a7de","6617fad957f7c6a12ea16e26","6622cd267d02c0e44a20bdfc","instruction screen 4"," ","","","","","","","","","","","",""
"","22173","html-keyboard-response","7","111243","0.0-7.0","vfw30xUkkg","65b965069a415587a755a7de","6617fad957f7c6a12ea16e26","6622cd267d02c0e44a20bdfc","instruction screen 5"," ","","","","","","","","","","","",""
"","null","html-keyboard-response","8","111773","0.0-8.0","vfw30xUkkg","65b965069a415587a755a7de","6617fad957f7c6a12ea16e26","6622cd267d02c0e44a20bdfc","fixation cross","null","","","","","","","","","","","",""
"","null","html-keyboard-response","9","112285","0.0-9.0-0.0","vfw30xUkkg","65b965069a415587a755a7de","6617fad957f7c6a12ea16e26","6622cd267d02c0e44a20bdfc","fixation cross","null","","","","","","","","","","","",""
"","2781","html-keyboard-response","10","115066","0.0-9.0-1.0","vfw30xUkkg","65b965069a415587a755a7de","6617fad957f7c6a12ea16e26","6622cd267d02c0e44a20bdfc","image grid","q","","","","","Phylogenetic_Distractor_Threat_target","3000","ongrid","q","1","Phylogenetic","true","practice"
"","null","html-keyboard-response","11","115220","0.0-9.0-2.0","vfw30xUkkg","65b965069a415587a755a7de","6617fad957f7c6a12ea16e26","6622cd267d02c0e44a20bdfc","
    <div id=""grid-container"">
        <!-- Grid items will be dynamically added here -->
    </div>    ","null","","","","","","","","","","","",""
"","null","html-keyboard-response","12","116439","0.0-9.0-3.0","vfw30xUkkg","65b965069a415587a755a7de","6617fad957f7c6a12ea16e26","6622cd267d02c0e44a20bdfc","feedback screen","null","","","","","","","","","","","",""
"","null","html-keyboard-response","13","116951","0.0-9.0-0.1","vfw30xUkkg","65b965069a415587a755a7de","6617fad957f7c6a12ea16e26","6622cd267d02c0e44a20bdfc","fixation cross","null","","","","","","","","","","","",""
"","1522","html-keyboard-response","14","118474","0.0-9.0-1.1","vfw30xUkkg","65b965069a415587a755a7de","6617fad957f7c6a12ea16e26","6622cd267d02c0e44a20bdfc","image grid"," ","","","","","Ontogenetic_Distractor_Threat_target","2900","ongrid","q","1","Phylogenetic","false","practice"
"","null","html-keyboard-response","15","118636","0.0-9.0-2.1","vfw30xUkkg","65b965069a415587a755a7de","6617fad957f7c6a12ea16e26","6622cd267d02c0e44a20bdfc","
    <div id=""grid-container"">
        <!-- Grid items will be dynamically added here -->
    </div>    ","null","","","","","","","","","","","",""
"","null","html-keyboard-response","16","119853","0.0-9.0-3.1","vfw30xUkkg","65b965069a415587a755a7de","6617fad957f7c6a12ea16e26","6622cd267d02c0e44a20bdfc","feedback screen","null","","","","","","","","","","","",""
"","null","html-keyboard-response","17","120365","0.0-9.0-0.2","vfw30xUkkg","65b965069a415587a755a7de","6617fad957f7c6a12ea16e26","6622cd267d02c0e44a20bdfc","fixation cross","null","","","","","","","","","","","",""
"","1486","html-keyboard-response","18","121852","0.0-9.0-1.2","vfw30xUkkg","65b965069a415587a755a7de","6617fad957f7c6a12ea16e26","6622cd267d02c0e44a20bdfc","image grid","q","","","","","Phylogenetic_Distractor_Threat_target","2800","ongrid","q","2","Phylogenetic","true","practice"
"","null","html-keyboard-response","19","122004","0.0-9.0-2.2","vfw30xUkkg","65b965069a415587a755a7de","6617fad957f7c6a12ea16e26","6622cd267d02c0e44a20bdfc","
    <div id=""grid-container"">
        <!-- Grid items will be dynamically added here -->
    </div>    ","null","","","","","","","","","","","",""
"","null","html-keyboard-response","20","123213","0.0-9.0-3.2","vfw30xUkkg","65b965069a415587a755a7de","6617fad957f7c6a12ea16e26","6622cd267d02c0e44a20bdfc","feedback screen","null","","","","","","","","","","","",""
"","null","html-keyboard-response","21","123729","0.0-9.0-0.3","vfw30xUkkg","65b965069a415587a755a7de","6617fad957f7c6a12ea16e26","6622cd267d02c0e44a20bdfc","fixation cross","null","","","","","","","","","","","",""
"","1898","html-keyboard-response","22","125627","0.0-9.0-1.3","vfw30xUkkg","65b965069a415587a755a7de","6617fad957f7c6a12ea16e26","6622cd267d02c0e44a20bdfc","image grid"," ","","","","","Ontogenetic_Distractor_notarget","2700","ongrid"," ","2","Phylogenetic","true","practice"
"","null","html-keyboard-response","23","125787","0.0-9.0-2.3","vfw30xUkkg","65b965069a415587a755a7de","6617fad957f7c6a12ea16e26","6622cd267d02c0e44a20bdfc","
    <div id=""grid-container"">
        <!-- Grid items will be dynamically added here -->
    </div>    ","null","","","","","","","","","","","",""
"","null","html-keyboard-response","24","126999","0.0-9.0-3.3","vfw30xUkkg","65b965069a415587a755a7de","6617fad957f7c6a12ea16e26","6622cd267d02c0e44a20bdfc","feedback screen","null","","","","","","","","","","","",""
"","null","html-keyboard-response","25","127509","0.0-9.0-0.4","vfw30xUkkg","65b965069a415587a755a7de","6617fad957f7c6a12ea16e26","6622cd267d02c0e44a20bdfc","fixation cross","null","","","","","","","","","","","",""
"","1381","html-keyboard-response","26","128891","0.0-9.0-1.4","vfw30xUkkg","65b965069a415587a755a7de","6617fad957f7c6a12ea16e26","6622cd267d02c0e44a20bdfc","image grid","q","","","","","Ontogenetic_Distractor_Threat_target","2600","ongrid","q","6","Phylogenetic","true","practice"
"","null","html-keyboard-response","27","129048","0.0-9.0-2.4","vfw30xUkkg","65b965069a415587a755a7de","6617fad957f7c6a12ea16e26","6622cd267d02c0e44a20bdfc","
    <div id=""grid-container"">
        <!-- Grid items will be dynamically added here -->
    </div>    ","null","","","","","","","","","","","",""
"","null","html-keyboard-response","28","130260","0.0-9.0-3.4","vfw30xUkkg","65b965069a415587a755a7de","6617fad957f7c6a12ea16e26","6622cd267d02c0e44a20bdfc","feedback screen","null","","","","","","","","","","","",""
"","null","html-keyboard-response","29","130775","0.0-9.0-0.5","vfw30xUkkg","65b965069a415587a755a7de","6617fad957f7c6a12ea16e26","6622cd267d02c0e44a20bdfc","fixation cross","null","","","","","","","","","","","",""
"","1421","html-keyboard-response","30","132195","0.0-9.0-1.5","vfw30xUkkg","65b965069a415587a755a7de","6617fad957f7c6a12ea16e26","6622cd267d02c0e44a20bdfc","image grid","p","","","","","Phylogenetic_Distractor_Nonthreat_target","2500","ongrid","p","2","Phylogenetic","true","practice"
"","null","html-keyboard-response","31","132347","0.0-9.0-2.5","vfw30xUkkg","65b965069a415587a755a7de","6617fad957f7c6a12ea16e26","6622cd267d02c0e44a20bdfc","
    <div id=""grid-container"">
        <!-- Grid items will be dynamically added here -->
    </div>    ","null","","","","","","","","","","","",""
"","null","html-keyboard-response","32","133566","0.0-9.0-3.5","vfw30xUkkg","65b965069a415587a755a7de","6617fad957f7c6a12ea16e26","6622cd267d02c0e44a20bdfc","feedback screen","null","","","","","","","","","","","",""
"","null","html-keyboard-response","33","134083","0.0-9.0-0.6","vfw30xUkkg","65b965069a415587a755a7de","6617fad957f7c6a12ea16e26","6622cd267d02c0e44a20bdfc","fixation cross","null","","","","","","","","","","","",""
"","2320","html-keyboard-response","34","136403","0.0-9.0-1.6","vfw30xUkkg","65b965069a415587a755a7de","6617fad957f7c6a12ea16e26","6622cd267d02c0e44a20bdfc","image grid","p","","","","","Phylogenetic_Distractor_Nonthreat_target","2400","ongrid","p","7","Phylogenetic","true","practice"
"","null","html-keyboard-response","35","136554","0.0-9.0-2.6","vfw30xUkkg","65b965069a415587a755a7de","6617fad957f7c6a12ea16e26","6622cd267d02c0e44a20bdfc","
    <div id=""grid-container"">
        <!-- Grid items will be dynamically added here -->
    </div>    ","null","","","","","","","","","","","",""
"","null","html-keyboard-response","36","137786","0.0-9.0-3.6","vfw30xUkkg","65b965069a415587a755a7de","6617fad957f7c6a12ea16e26","6622cd267d02c0e44a20bdfc","feedback screen","null","","","","","","","","","","","",""
"","null","html-keyboard-response","37","138301","0.0-9.0-0.7","vfw30xUkkg","65b965069a415587a755a7de","6617fad957f7c6a12ea16e26","6622cd267d02c0e44a20bdfc","fixation cross","null","","","","","","","","","","","",""
"","1342","html-keyboard-response","38","139643","0.0-9.0-1.7","vfw30xUkkg","65b965069a415587a755a7de","6617fad957f7c6a12ea16e26","6622cd267d02c0e44a20bdfc","image grid","p","","","","","Ontogenetic_Distractor_Nonthreat_target","2300","ongrid","p","2","Phylogenetic","true","practice"
"","null","html-keyboard-response","39","139801","0.0-9.0-2.7","vfw30xUkkg","65b965069a415587a755a7de","6617fad957f7c6a12ea16e26","6622cd267d02c0e44a20bdfc","
    <div id=""grid-container"">
        <!-- Grid items will be dynamically added here -->
    </div>    ","null","","","","","","","","","","","",""
"","null","html-keyboard-response","40","141016","0.0-9.0-3.7","vfw30xUkkg","65b965069a415587a755a7de","6617fad957f7c6a12ea16e26","6622cd267d02c0e44a20bdfc","feedback screen","null","","","","","","","","","","","",""
"","null","html-keyboard-response","41","141530","0.0-9.0-0.8","vfw30xUkkg","65b965069a415587a755a7de","6617fad957f7c6a12ea16e26","6622cd267d02c0e44a20bdfc","fixation cross","null","","","","","","","","","","","",""
"","1265","html-keyboard-response","42","142796","0.0-9.0-1.8","vfw30xUkkg","65b965069a415587a755a7de","6617fad957f7c6a12ea16e26","6622cd267d02c0e44a20bdfc","image grid","p","","","","","Ontogenetic_Distractor_Nonthreat_target","2200","ongrid","p","3","Phylogenetic","true","practice"
"","null","html-keyboard-response","43","142950","0.0-9.0-2.8","vfw30xUkkg","65b965069a415587a755a7de","6617fad957f7c6a12ea16e26","6622cd267d02c0e44a20bdfc","
    <div id=""grid-container"">
        <!-- Grid items will be dynamically added here -->
    </div>    ","null","","","","","","","","","","","",""
"","null","html-keyboard-response","44","144167","0.0-9.0-3.8","vfw30xUkkg","65b965069a415587a755a7de","6617fad957f7c6a12ea16e26","6622cd267d02c0e44a20bdfc","feedback screen","null","","","","","","","","","","","",""
"","null","html-keyboard-response","45","144681","0.0-9.0-0.9","vfw30xUkkg","65b965069a415587a755a7de","6617fad957f7c6a12ea16e26","6622cd267d02c0e44a20bdfc","fixation cross","null","","","","","","","","","","","",""
"","1010","html-keyboard-response","46","145691","0.0-9.0-1.9","vfw30xUkkg","65b965069a415587a755a7de","6617fad957f7c6a12ea16e26","6622cd267d02c0e44a20bdfc","image grid","q","","","","","Ontogenetic_Distractor_Threat_target","2100","ongrid","q","1","Phylogenetic","true","practice"
"","null","html-keyboard-response","47","145850","0.0-9.0-2.9","vfw30xUkkg","65b965069a415587a755a7de","6617fad957f7c6a12ea16e26","6622cd267d02c0e44a20bdfc","
    <div id=""grid-container"">
        <!-- Grid items will be dynamically added here -->
    </div>    ","null","","","","","","","","","","","",""
"","null","html-keyboard-response","48","147064","0.0-9.0-3.9","vfw30xUkkg","65b965069a415587a755a7de","6617fad957f7c6a12ea16e26","6622cd267d02c0e44a20bdfc","feedback screen","null","","","","","","","","","","","",""
"","null","html-keyboard-response","49","147577","0.0-9.0-0.10","vfw30xUkkg","65b965069a415587a755a7de","6617fad957f7c6a12ea16e26","6622cd267d02c0e44a20bdfc","fixation cross","null","","","","","","","","","","","",""
"","1754","html-keyboard-response","50","149331","0.0-9.0-1.10","vfw30xUkkg","65b965069a415587a755a7de","6617fad957f7c6a12ea16e26","6622cd267d02c0e44a20bdfc","image grid"," ","","","","","Phylogenetic_Distractor_notarget","2000","ongrid"," ","6","Phylogenetic","true","practice"
"","null","html-keyboard-response","51","149491","0.0-9.0-2.10","vfw30xUkkg","65b965069a415587a755a7de","6617fad957f7c6a12ea16e26","6622cd267d02c0e44a20bdfc","
    <div id=""grid-container"">
        <!-- Grid items will be dynamically added here -->
    </div>    ","null","","","","","","","","","","","",""
"","null","html-keyboard-response","52","150702","0.0-9.0-3.10","vfw30xUkkg","65b965069a415587a755a7de","6617fad957f7c6a12ea16e26","6622cd267d02c0e44a20bdfc","feedback screen","null","","","","","","","","","","","",""
"","null","html-keyboard-response","53","151217","0.0-9.0-0.11","vfw30xUkkg","65b965069a415587a755a7de","6617fad957f7c6a12ea16e26","6622cd267d02c0e44a20bdfc","fixation cross","null","","","","","","","","","","","",""
"","1714","html-keyboard-response","54","152932","0.0-9.0-1.11","vfw30xUkkg","65b965069a415587a755a7de","6617fad957f7c6a12ea16e26","6622cd267d02c0e44a20bdfc","image grid","p","","","","","Phylogenetic_Distractor_Nonthreat_target","1900","ongrid","p","9","Phylogenetic","true","practice"
"","null","html-keyboard-response","55","153093","0.0-9.0-2.11","vfw30xUkkg","65b965069a415587a755a7de","6617fad957f7c6a12ea16e26","6622cd267d02c0e44a20bdfc","
    <div id=""grid-container"">
        <!-- Grid items will be dynamically added here -->
    </div>    ","null","","","","","","","","","","","",""
"","null","html-keyboard-response","56","154307","0.0-9.0-3.11","vfw30xUkkg","65b965069a415587a755a7de","6617fad957f7c6a12ea16e26","6622cd267d02c0e44a20bdfc","feedback screen","null","","","","","","","","","","","",""
"","null","html-keyboard-response","57","154821","0.0-9.0-0.12","vfw30xUkkg","65b965069a415587a755a7de","6617fad957f7c6a12ea16e26","6622cd267d02c0e44a20bdfc","fixation cross","null","","","","","","","","","","","",""
"","1022","html-keyboard-response","58","155843","0.0-9.0-1.12","vfw30xUkkg","65b965069a415587a755a7de","6617fad957f7c6a12ea16e26","6622cd267d02c0e44a20bdfc","image grid","p","","","","","Ontogenetic_Distractor_Nonthreat_target","1800","ongrid","p","3","Phylogenetic","true","practice"
"","null","html-keyboard-response","59","155995","0.0-9.0-2.12","vfw30xUkkg","65b965069a415587a755a7de","6617fad957f7c6a12ea16e26","6622cd267d02c0e44a20bdfc","
    <div id=""grid-container"">
        <!-- Grid items will be dynamically added here -->
    </div>    ","null","","","","","","","","","","","",""
"","null","html-keyboard-response","60","157205","0.0-9.0-3.12","vfw30xUkkg","65b965069a415587a755a7de","6617fad957f7c6a12ea16e26","6622cd267d02c0e44a20bdfc","feedback screen","null","","","","","","","","","","","",""
"","null","html-keyboard-response","61","157719","0.0-9.0-0.13","vfw30xUkkg","65b965069a415587a755a7de","6617fad957f7c6a12ea16e26","6622cd267d02c0e44a20bdfc","fixation cross","null","","","","","","","","","","","",""
"","null","html-keyboard-response","62","159426","0.0-9.0-1.13","vfw30xUkkg","65b965069a415587a755a7de","6617fad957f7c6a12ea16e26","6622cd267d02c0e44a20bdfc","
        <div id=""grid-container"">
        <!-- Grid items will be dynamically added here -->
    </div>    ","null","","","","","","","","","","","",""
"","2085","html-keyboard-response","63","159811","0.0-9.0-2.13","vfw30xUkkg","65b965069a415587a755a7de","6617fad957f7c6a12ea16e26","6622cd267d02c0e44a20bdfc","mask grid"," ","","","","","Phylogenetic_Distractor_notarget","1700","onmask"," ","3","Phylogenetic","true","practice"
"","null","html-keyboard-response","64","161028","0.0-9.0-3.13","vfw30xUkkg","65b965069a415587a755a7de","6617fad957f7c6a12ea16e26","6622cd267d02c0e44a20bdfc","feedback screen","null","","","","","","","","","","","",""
"","null","html-keyboard-response","65","161538","0.0-9.0-0.14","vfw30xUkkg","65b965069a415587a755a7de","6617fad957f7c6a12ea16e26","6622cd267d02c0e44a20bdfc","fixation cross","null","","","","","","","","","","","",""
"","null","html-keyboard-response","66","163153","0.0-9.0-1.14","vfw30xUkkg","65b965069a415587a755a7de","6617fad957f7c6a12ea16e26","6622cd267d02c0e44a20bdfc","
        <div id=""grid-container"">
        <!-- Grid items will be dynamically added here -->
    </div>    ","null","","","","","","","","","","","",""
"","1763","html-keyboard-response","67","163316","0.0-9.0-2.14","vfw30xUkkg","65b965069a415587a755a7de","6617fad957f7c6a12ea16e26","6622cd267d02c0e44a20bdfc","mask grid","p","","","","","Phylogenetic_Distractor_Nonthreat_target","1600","onmask","p","6","Phylogenetic","true","practice"
"","null","html-keyboard-response","68","164529","0.0-9.0-3.14","vfw30xUkkg","65b965069a415587a755a7de","6617fad957f7c6a12ea16e26","6622cd267d02c0e44a20bdfc","feedback screen","null","","","","","","","","","","","",""
"","null","html-keyboard-response","69","165041","0.0-9.0-0.15","vfw30xUkkg","65b965069a415587a755a7de","6617fad957f7c6a12ea16e26","6622cd267d02c0e44a20bdfc","fixation cross","null","","","","","","","","","","","",""
"","1425","html-keyboard-response","70","166467","0.0-9.0-1.15","vfw30xUkkg","65b965069a415587a755a7de","6617fad957f7c6a12ea16e26","6622cd267d02c0e44a20bdfc","image grid","q","","","","","Phylogenetic_Distractor_Threat_target","1500","ongrid","q","8","Phylogenetic","true","practice"
"","null","html-keyboard-response","71","166628","0.0-9.0-2.15","vfw30xUkkg","65b965069a415587a755a7de","6617fad957f7c6a12ea16e26","6622cd267d02c0e44a20bdfc","
    <div id=""grid-container"">
        <!-- Grid items will be dynamically added here -->
    </div>    ","null","","","","","","","","","","","",""
"","null","html-keyboard-response","72","167845","0.0-9.0-3.15","vfw30xUkkg","65b965069a415587a755a7de","6617fad957f7c6a12ea16e26","6622cd267d02c0e44a20bdfc","feedback screen","null","","","","","","","","","","","",""
"","null","html-keyboard-response","73","168350","0.0-9.0-0.16","vfw30xUkkg","65b965069a415587a755a7de","6617fad957f7c6a12ea16e26","6622cd267d02c0e44a20bdfc","fixation cross","null","","","","","","","","","","","",""
"","941","html-keyboard-response","74","169291","0.0-9.0-1.16","vfw30xUkkg","65b965069a415587a755a7de","6617fad957f7c6a12ea16e26","6622cd267d02c0e44a20bdfc","image grid","p","","","","","Ontogenetic_Distractor_Nonthreat_target","1400","ongrid","p","7","Phylogenetic","true","practice"
"","null","html-keyboard-response","75","169453","0.0-9.0-2.16","vfw30xUkkg","65b965069a415587a755a7de","6617fad957f7c6a12ea16e26","6622cd267d02c0e44a20bdfc","
    <div id=""grid-container"">
        <!-- Grid items will be dynamically added here -->
    </div>    ","null","","","","","","","","","","","",""
"","null","html-keyboard-response","76","170667","0.0-9.0-3.16","vfw30xUkkg","65b965069a415587a755a7de","6617fad957f7c6a12ea16e26","6622cd267d02c0e44a20bdfc","feedback screen","null","","","","","","","","","","","",""
"","null","html-keyboard-response","77","171183","0.0-9.0-0.17","vfw30xUkkg","65b965069a415587a755a7de","6617fad957f7c6a12ea16e26","6622cd267d02c0e44a20bdfc","fixation cross","null","","","","","","","","","","","",""
"","1284","html-keyboard-response","78","172467","0.0-9.0-1.17","vfw30xUkkg","65b965069a415587a755a7de","6617fad957f7c6a12ea16e26","6622cd267d02c0e44a20bdfc","image grid"," ","","","","","Ontogenetic_Distractor_notarget","1300","ongrid"," ","6","Phylogenetic","true","practice"
"","null","html-keyboard-response","79","172631","0.0-9.0-2.17","vfw30xUkkg","65b965069a415587a755a7de","6617fad957f7c6a12ea16e26","6622cd267d02c0e44a20bdfc","
    <div id=""grid-container"">
        <!-- Grid items will be dynamically added here -->
    </div>    ","null","","","","","","","","","","","",""
"","null","html-keyboard-response","80","173849","0.0-9.0-3.17","vfw30xUkkg","65b965069a415587a755a7de","6617fad957f7c6a12ea16e26","6622cd267d02c0e44a20bdfc","feedback screen","null","","","","","","","","","","","",""
"","null","html-keyboard-response","81","174365","0.0-9.0-0.18","vfw30xUkkg","65b965069a415587a755a7de","6617fad957f7c6a12ea16e26","6622cd267d02c0e44a20bdfc","fixation cross","null","","","","","","","","","","","",""
"","1110","html-keyboard-response","82","175475","0.0-9.0-1.18","vfw30xUkkg","65b965069a415587a755a7de","6617fad957f7c6a12ea16e26","6622cd267d02c0e44a20bdfc","image grid","q","","","","","Ontogenetic_Distractor_Threat_target","1200","ongrid","q","8","Phylogenetic","true","practice"
"","null","html-keyboard-response","83","175640","0.0-9.0-2.18","vfw30xUkkg","65b965069a415587a755a7de","6617fad957f7c6a12ea16e26","6622cd267d02c0e44a20bdfc","
    <div id=""grid-container"">
        <!-- Grid items will be dynamically added here -->
    </div>    ","null","","","","","","","","","","","",""
"","null","html-keyboard-response","84","176855","0.0-9.0-3.18","vfw30xUkkg","65b965069a415587a755a7de","6617fad957f7c6a12ea16e26","6622cd267d02c0e44a20bdfc","feedback screen","null","","","","","","","","","","","",""
"","null","html-keyboard-response","85","177370","0.0-9.0-0.19","vfw30xUkkg","65b965069a415587a755a7de","6617fad957f7c6a12ea16e26","6622cd267d02c0e44a20bdfc","fixation cross","null","","","","","","","","","","","",""
"","944","html-keyboard-response","86","178315","0.0-9.0-1.19","vfw30xUkkg","65b965069a415587a755a7de","6617fad957f7c6a12ea16e26","6622cd267d02c0e44a20bdfc","image grid","q","","","","","Phylogenetic_Distractor_Threat_target","1100","ongrid","q","2","Phylogenetic","true","practice"
"","null","html-keyboard-response","87","178477","0.0-9.0-2.19","vfw30xUkkg","65b965069a415587a755a7de","6617fad957f7c6a12ea16e26","6622cd267d02c0e44a20bdfc","
    <div id=""grid-container"">
        <!-- Grid items will be dynamically added here -->
    </div>    ","null","","","","","","","","","","","",""
"","540","html-keyboard-response","88","179219","0.0-9.0-3.19","vfw30xUkkg","65b965069a415587a755a7de","6617fad957f7c6a12ea16e26","6622cd267d02c0e44a20bdfc","feedback screen"," ","","","","","","","","","","","",""
"","9388","html-keyboard-response","89","188636","0.0-10.0","vfw30xUkkg","65b965069a415587a755a7de","6617fad957f7c6a12ea16e26","6622cd267d02c0e44a20bdfc","pre-experimental_briefing"," ","","","","","","","","","","","",""
"","null","html-keyboard-response","90","191182","0.0-11.0-0.0","vfw30xUkkg","65b965069a415587a755a7de","6617fad957f7c6a12ea16e26","6622cd267d02c0e44a20bdfc","fixation cross","null","","","","","","","","","","","",""
"","null","html-keyboard-response","91","191992","0.0-11.0-1.0","vfw30xUkkg","65b965069a415587a755a7de","6617fad957f7c6a12ea16e26","6622cd267d02c0e44a20bdfc","
        <div id=""grid-container"">
        <!-- Grid items will be dynamically added here -->
    </div>    ","null","","","","","","","","","","","",""
"","1170","html-keyboard-response","92","192363","0.0-11.0-2.0","vfw30xUkkg","65b965069a415587a755a7de","6617fad957f7c6a12ea16e26","6622cd267d02c0e44a20bdfc","mask grid","p","","","","","Phylogenetic_Distractor_Nonthreat_target","800","onmask","p","1","Phylogenetic","true","experimental"
"","null","html-keyboard-response","93","193072","0.0-11.0-0.1","vfw30xUkkg","65b965069a415587a755a7de","6617fad957f7c6a12ea16e26","6622cd267d02c0e44a20bdfc","fixation cross","null","","","","","","","","","","","",""
"","null","html-keyboard-response","94","193886","0.0-11.0-1.1","vfw30xUkkg","65b965069a415587a755a7de","6617fad957f7c6a12ea16e26","6622cd267d02c0e44a20bdfc","
        <div id=""grid-container"">
        <!-- Grid items will be dynamically added here -->
    </div>    ","null","","","","","","","","","","","",""
"","1196","html-keyboard-response","95","194283","0.0-11.0-2.1","vfw30xUkkg","65b965069a415587a755a7de","6617fad957f7c6a12ea16e26","6622cd267d02c0e44a20bdfc","mask grid","p","","","","","Phylogenetic_Distractor_Threat_target","800","onmask","q","3","Phylogenetic","false","experimental"
"","null","html-keyboard-response","96","194992","0.0-11.0-0.2","vfw30xUkkg","65b965069a415587a755a7de","6617fad957f7c6a12ea16e26","6622cd267d02c0e44a20bdfc","fixation cross","null","","","","","","","","","","","",""
"","null","html-keyboard-response","97","195799","0.0-11.0-1.2","vfw30xUkkg","65b965069a415587a755a7de","6617fad957f7c6a12ea16e26","6622cd267d02c0e44a20bdfc","
        <div id=""grid-container"">
        <!-- Grid items will be dynamically added here -->
    </div>    ","null","","","","","","","","","","","",""
"","808","html-keyboard-response","98","195807","0.0-11.0-2.2","vfw30xUkkg","65b965069a415587a755a7de","6617fad957f7c6a12ea16e26","6622cd267d02c0e44a20bdfc","mask grid"," ","","","","","Phylogenetic_Distractor_Threat_target","800","onmask","q","1","Phylogenetic","false","experimental"
"","null","html-keyboard-response","99","196531","0.0-11.0-0.3","vfw30xUkkg","65b965069a415587a755a7de","6617fad957f7c6a12ea16e26","6622cd267d02c0e44a20bdfc","fixation cross","null","","","","","","","","","","","",""
"","null","html-keyboard-response","100","197339","0.0-11.0-1.3","vfw30xUkkg","65b965069a415587a755a7de","6617fad957f7c6a12ea16e26","6622cd267d02c0e44a20bdfc","
        <div id=""grid-container"">
        <!-- Grid items will be dynamically added here -->
    </div>    ","null","","","","","","","","","","","",""
"","1007","html-keyboard-response","101","197547","0.0-11.0-2.3","vfw30xUkkg","65b965069a415587a755a7de","6617fad957f7c6a12ea16e26","6622cd267d02c0e44a20bdfc","mask grid","p","","","","","Phylogenetic_Distractor_Threat_target","800","onmask","q","2","Phylogenetic","false","experimental"
"","null","html-keyboard-response","102","198272","0.0-11.0-0.4","vfw30xUkkg","65b965069a415587a755a7de","6617fad957f7c6a12ea16e26","6622cd267d02c0e44a20bdfc","fixation cross","null","","","","","","","","","","","",""
"","null","html-keyboard-response","103","199088","0.0-11.0-1.4","vfw30xUkkg","65b965069a415587a755a7de","6617fad957f7c6a12ea16e26","6622cd267d02c0e44a20bdfc","
        <div id=""grid-container"">
        <!-- Grid items will be dynamically added here -->
    </div>    ","null","","","","","","","","","","","",""
"","995","html-keyboard-response","104","199283","0.0-11.0-2.4","vfw30xUkkg","65b965069a415587a755a7de","6617fad957f7c6a12ea16e26","6622cd267d02c0e44a20bdfc","mask grid","p","","","","","Phylogenetic_Distractor_Nonthreat_target","800","onmask","p","7","Phylogenetic","true","experimental"
"","null","html-keyboard-response","105","200004","0.0-11.0-0.5","vfw30xUkkg","65b965069a415587a755a7de","6617fad957f7c6a12ea16e26","6622cd267d02c0e44a20bdfc","fixation cross","null","","","","","","","","","","","",""
"","598","html-keyboard-response","106","200603","0.0-11.0-1.5","vfw30xUkkg","65b965069a415587a755a7de","6617fad957f7c6a12ea16e26","6622cd267d02c0e44a20bdfc","image grid"," ","","","","","Phylogenetic_Distractor_Nonthreat_target","800","ongrid","p","1","Phylogenetic","false","experimental"
"","null","html-keyboard-response","107","200767","0.0-11.0-2.5","vfw30xUkkg","65b965069a415587a755a7de","6617fad957f7c6a12ea16e26","6622cd267d02c0e44a20bdfc","
    <div id=""grid-container"">
        <!-- Grid items will be dynamically added here -->
    </div>    ","null","","","","","","","","","","","",""
"","null","html-keyboard-response","108","201484","0.0-11.0-0.6","vfw30xUkkg","65b965069a415587a755a7de","6617fad957f7c6a12ea16e26","6622cd267d02c0e44a20bdfc","fixation cross","null","","","","","","","","","","","",""
"","758","html-keyboard-response","109","202243","0.0-11.0-1.6","vfw30xUkkg","65b965069a415587a755a7de","6617fad957f7c6a12ea16e26","6622cd267d02c0e44a20bdfc","image grid","p","","","","","Phylogenetic_Distractor_notarget","800","ongrid"," ","9","Phylogenetic","false","experimental"
"","null","html-keyboard-response","110","202401","0.0-11.0-2.6","vfw30xUkkg","65b965069a415587a755a7de","6617fad957f7c6a12ea16e26","6622cd267d02c0e44a20bdfc","
    <div id=""grid-container"">
        <!-- Grid items will be dynamically added here -->
    </div>    ","null","","","","","","","","","","","",""
"","null","html-keyboard-response","111","203118","0.0-11.0-0.7","vfw30xUkkg","65b965069a415587a755a7de","6617fad957f7c6a12ea16e26","6622cd267d02c0e44a20bdfc","fixation cross","null","","","","","","","","","","","",""
"","null","html-keyboard-response","112","203926","0.0-11.0-1.7","vfw30xUkkg","65b965069a415587a755a7de","6617fad957f7c6a12ea16e26","6622cd267d02c0e44a20bdfc","
        <div id=""grid-container"">
        <!-- Grid items will be dynamically added here -->
    </div>    ","null","","","","","","","","","","","",""
"","800","html-keyboard-response","113","208939","0.0-11.0-2.7","vfw30xUkkg","65b965069a415587a755a7de","6617fad957f7c6a12ea16e26","6622cd267d02c0e44a20bdfc","mask grid","null","","","","","Phylogenetic_Distractor_Nonthreat_target","800","onmask","p","9","Phylogenetic","false","experimental"
"","null","html-keyboard-response","114","209652","0.0-11.0-0.8","vfw30xUkkg","65b965069a415587a755a7de","6617fad957f7c6a12ea16e26","6622cd267d02c0e44a20bdfc","fixation cross","null","","","","","","","","","","","",""
"","null","html-keyboard-response","115","210463","0.0-11.0-1.8","vfw30xUkkg","65b965069a415587a755a7de","6617fad957f7c6a12ea16e26","6622cd267d02c0e44a20bdfc","
        <div id=""grid-container"">
        <!-- Grid items will be dynamically added here -->
    </div>    ","null","","","","","","","","","","","",""
"","1284","html-keyboard-response","116","210947","0.0-11.0-2.8","vfw30xUkkg","65b965069a415587a755a7de","6617fad957f7c6a12ea16e26","6622cd267d02c0e44a20bdfc","mask grid"," ","","","","","Phylogenetic_Distractor_Threat_target","800","onmask","q","8","Phylogenetic","false","experimental"
"","null","html-keyboard-response","117","211675","0.0-11.0-0.9","vfw30xUkkg","65b965069a415587a755a7de","6617fad957f7c6a12ea16e26","6622cd267d02c0e44a20bdfc","fixation cross","null","","","","","","","","","","","",""
"","null","html-keyboard-response","118","212489","0.0-11.0-1.9","vfw30xUkkg","65b965069a415587a755a7de","6617fad957f7c6a12ea16e26","6622cd267d02c0e44a20bdfc","
        <div id=""grid-container"">
        <!-- Grid items will be dynamically added here -->
    </div>    ","null","","","","","","","","","","","",""
"","1097","html-keyboard-response","119","212787","0.0-11.0-2.9","vfw30xUkkg","65b965069a415587a755a7de","6617fad957f7c6a12ea16e26","6622cd267d02c0e44a20bdfc","mask grid","q","","","","","Phylogenetic_Distractor_Threat_target","800","onmask","q","2","Phylogenetic","true","experimental"
"","null","html-keyboard-response","120","213513","0.0-11.0-0.10","vfw30xUkkg","65b965069a415587a755a7de","6617fad957f7c6a12ea16e26","6622cd267d02c0e44a20bdfc","fixation cross","null","","","","","","","","","","","",""
"","null","html-keyboard-response","121","214322","0.0-11.0-1.10","vfw30xUkkg","65b965069a415587a755a7de","6617fad957f7c6a12ea16e26","6622cd267d02c0e44a20bdfc","
        <div id=""grid-container"">
        <!-- Grid items will be dynamically added here -->
    </div>    ","null","","","","","","","","","","","",""
"","1056","html-keyboard-response","122","214579","0.0-11.0-2.10","vfw30xUkkg","65b965069a415587a755a7de","6617fad957f7c6a12ea16e26","6622cd267d02c0e44a20bdfc","mask grid","q","","","","","Phylogenetic_Distractor_Threat_target","800","onmask","q","3","Phylogenetic","true","experimental"
"","null","html-keyboard-response","123","215305","0.0-11.0-0.11","vfw30xUkkg","65b965069a415587a755a7de","6617fad957f7c6a12ea16e26","6622cd267d02c0e44a20bdfc","fixation cross","null","","","","","","","","","","","",""
"","null","html-keyboard-response","124","216114","0.0-11.0-1.11","vfw30xUkkg","65b965069a415587a755a7de","6617fad957f7c6a12ea16e26","6622cd267d02c0e44a20bdfc","
        <div id=""grid-container"">
        <!-- Grid items will be dynamically added here -->
    </div>    ","null","","","","","","","","","","","",""
"","1528","html-keyboard-response","125","216843","0.0-11.0-2.11","vfw30xUkkg","65b965069a415587a755a7de","6617fad957f7c6a12ea16e26","6622cd267d02c0e44a20bdfc","mask grid"," ","","","","","Phylogenetic_Distractor_Threat_target","800","onmask","q","8","Phylogenetic","false","experimental"
"","null","html-keyboard-response","126","217557","0.0-11.0-0.12","vfw30xUkkg","65b965069a415587a755a7de","6617fad957f7c6a12ea16e26","6622cd267d02c0e44a20bdfc","fixation cross","null","","","","","","","","","","","",""
"","686","html-keyboard-response","127","218243","0.0-11.0-1.12","vfw30xUkkg","65b965069a415587a755a7de","6617fad957f7c6a12ea16e26","6622cd267d02c0e44a20bdfc","image grid"," ","","","","","Phylogenetic_Distractor_notarget","800","ongrid"," ","8","Phylogenetic","true","experimental"
"","null","html-keyboard-response","128","218398","0.0-11.0-2.12","vfw30xUkkg","65b965069a415587a755a7de","6617fad957f7c6a12ea16e26","6622cd267d02c0e44a20bdfc","
    <div id=""grid-container"">
        <!-- Grid items will be dynamically added here -->
    </div>    ","null","","","","","","","","","","","",""
"","null","html-keyboard-response","129","219112","0.0-11.0-0.13","vfw30xUkkg","65b965069a415587a755a7de","6617fad957f7c6a12ea16e26","6622cd267d02c0e44a20bdfc","fixation cross","null","","","","","","","","","","","",""
"","578","html-keyboard-response","130","219691","0.0-11.0-1.13","vfw30xUkkg","65b965069a415587a755a7de","6617fad957f7c6a12ea16e26","6622cd267d02c0e44a20bdfc","image grid","q","","","","","Phylogenetic_Distractor_Threat_target","800","ongrid","q","2","Phylogenetic","true","experimental"
"","null","html-keyboard-response","131","219844","0.0-11.0-2.13","vfw30xUkkg","65b965069a415587a755a7de","6617fad957f7c6a12ea16e26","6622cd267d02c0e44a20bdfc","
    <div id=""grid-container"">
        <!-- Grid items will be dynamically added here -->
    </div>    ","null","","","","","","","","","","","",""
"","null","html-keyboard-response","132","220562","0.0-11.0-0.14","vfw30xUkkg","65b965069a415587a755a7de","6617fad957f7c6a12ea16e26","6622cd267d02c0e44a20bdfc","fixation cross","null","","","","","","","","","","","",""
"","null","html-keyboard-response","133","221371","0.0-11.0-1.14","vfw30xUkkg","65b965069a415587a755a7de","6617fad957f7c6a12ea16e26","6622cd267d02c0e44a20bdfc","
        <div id=""grid-container"">
        <!-- Grid items will be dynamically added here -->
    </div>    ","null","","","","","","","","","","","",""
"","880","html-keyboard-response","134","221451","0.0-11.0-2.14","vfw30xUkkg","65b965069a415587a755a7de","6617fad957f7c6a12ea16e26","6622cd267d02c0e44a20bdfc","mask grid","q","","","","","Phylogenetic_Distractor_Threat_target","800","onmask","q","8","Phylogenetic","true","experimental"
"","null","html-keyboard-response","135","222178","0.0-11.0-0.15","vfw30xUkkg","65b965069a415587a755a7de","6617fad957f7c6a12ea16e26","6622cd267d02c0e44a20bdfc","fixation cross","null","","","","","","","","","","","",""
"","null","html-keyboard-response","136","222989","0.0-11.0-1.15","vfw30xUkkg","65b965069a415587a755a7de","6617fad957f7c6a12ea16e26","6622cd267d02c0e44a20bdfc","
        <div id=""grid-container"">
        <!-- Grid items will be dynamically added here -->
    </div>    ","null","","","","","","","","","","","",""
"","997","html-keyboard-response","137","223187","0.0-11.0-2.15","vfw30xUkkg","65b965069a415587a755a7de","6617fad957f7c6a12ea16e26","6622cd267d02c0e44a20bdfc","mask grid"," ","","","","","Phylogenetic_Distractor_Nonthreat_target","800","onmask","p","2","Phylogenetic","false","experimental"
"","null","html-keyboard-response","138","223902","0.0-11.0-0.16","vfw30xUkkg","65b965069a415587a755a7de","6617fad957f7c6a12ea16e26","6622cd267d02c0e44a20bdfc","fixation cross","null","","","","","","","","","","","",""
"","636","html-keyboard-response","139","224539","0.0-11.0-1.16","vfw30xUkkg","65b965069a415587a755a7de","6617fad957f7c6a12ea16e26","6622cd267d02c0e44a20bdfc","image grid"," ","","","","","Phylogenetic_Distractor_Threat_target","800","ongrid","q","8","Phylogenetic","false","experimental"
"","null","html-keyboard-response","140","224696","0.0-11.0-2.16","vfw30xUkkg","65b965069a415587a755a7de","6617fad957f7c6a12ea16e26","6622cd267d02c0e44a20bdfc","
    <div id=""grid-container"">
        <!-- Grid items will be dynamically added here -->
    </div>    ","null","","","","","","","","","","","",""
"","null","html-keyboard-response","141","225407","0.0-11.0-0.17","vfw30xUkkg","65b965069a415587a755a7de","6617fad957f7c6a12ea16e26","6622cd267d02c0e44a20bdfc","fixation cross","null","","","","","","","","","","","",""
"","443","html-keyboard-response","142","225851","0.0-11.0-1.17","vfw30xUkkg","65b965069a415587a755a7de","6617fad957f7c6a12ea16e26","6622cd267d02c0e44a20bdfc","image grid","q","","","","","Phylogenetic_Distractor_notarget","800","ongrid"," ","4","Phylogenetic","false","experimental"
"","42","html-keyboard-response","143","226012","0.0-11.0-2.17","vfw30xUkkg","65b965069a415587a755a7de","6617fad957f7c6a12ea16e26","6622cd267d02c0e44a20bdfc","
    <div id=""grid-container"">
        <!-- Grid items will be dynamically added here -->
    </div>    ","p","","","","","","","","","","","",""
"","null","html-keyboard-response","144","226728","0.0-11.0-0.18","vfw30xUkkg","65b965069a415587a755a7de","6617fad957f7c6a12ea16e26","6622cd267d02c0e44a20bdfc","fixation cross","null","","","","","","","","","","","",""
"","659","html-keyboard-response","145","227387","0.0-11.0-1.18","vfw30xUkkg","65b965069a415587a755a7de","6617fad957f7c6a12ea16e26","6622cd267d02c0e44a20bdfc","image grid","q","","","","","Phylogenetic_Distractor_Nonthreat_target","800","ongrid","p","5","Phylogenetic","false","experimental"
"","null","html-keyboard-response","146","227540","0.0-11.0-2.18","vfw30xUkkg","65b965069a415587a755a7de","6617fad957f7c6a12ea16e26","6622cd267d02c0e44a20bdfc","
    <div id=""grid-container"">
        <!-- Grid items will be dynamically added here -->
    </div>    ","null","","","","","","","","","","","",""
"","null","html-keyboard-response","147","228258","0.0-11.0-0.19","vfw30xUkkg","65b965069a415587a755a7de","6617fad957f7c6a12ea16e26","6622cd267d02c0e44a20bdfc","fixation cross","null","","","","","","","","","","","",""
"","808","html-keyboard-response","148","229067","0.0-11.0-1.19","vfw30xUkkg","65b965069a415587a755a7de","6617fad957f7c6a12ea16e26","6622cd267d02c0e44a20bdfc","image grid"," ","","","","","Phylogenetic_Distractor_Nonthreat_target","800","ongrid","p","9","Phylogenetic","false","experimental"
"","47","html-keyboard-response","149","229221","0.0-11.0-2.19","vfw30xUkkg","65b965069a415587a755a7de","6617fad957f7c6a12ea16e26","6622cd267d02c0e44a20bdfc","
    <div id=""grid-container"">
        <!-- Grid items will be dynamically added here -->
    </div>    ","p","","","","","","","","","","","",""
"","null","html-keyboard-response","150","229925","0.0-11.0-0.20","vfw30xUkkg","65b965069a415587a755a7de","6617fad957f7c6a12ea16e26","6622cd267d02c0e44a20bdfc","fixation cross","null","","","","","","","","","","","",""
"","null","html-keyboard-response","151","230735","0.0-11.0-1.20","vfw30xUkkg","65b965069a415587a755a7de","6617fad957f7c6a12ea16e26","6622cd267d02c0e44a20bdfc","
        <div id=""grid-container"">
        <!-- Grid items will be dynamically added here -->
    </div>    ","null","","","","","","","","","","","",""
"","840","html-keyboard-response","152","230775","0.0-11.0-2.20","vfw30xUkkg","65b965069a415587a755a7de","6617fad957f7c6a12ea16e26","6622cd267d02c0e44a20bdfc","mask grid"," ","","","","","Phylogenetic_Distractor_Nonthreat_target","800","onmask","p","1","Phylogenetic","false","experimental"
"","null","html-keyboard-response","153","231496","0.0-11.0-0.21","vfw30xUkkg","65b965069a415587a755a7de","6617fad957f7c6a12ea16e26","6622cd267d02c0e44a20bdfc","fixation cross","null","","","","","","","","","","","",""
"","595","html-keyboard-response","154","232091","0.0-11.0-1.21","vfw30xUkkg","65b965069a415587a755a7de","6617fad957f7c6a12ea16e26","6622cd267d02c0e44a20bdfc","image grid","p","","","","","Phylogenetic_Distractor_Nonthreat_target","800","ongrid","p","5","Phylogenetic","true","experimental"
"","null","html-keyboard-response","155","232258","0.0-11.0-2.21","vfw30xUkkg","65b965069a415587a755a7de","6617fad957f7c6a12ea16e26","6622cd267d02c0e44a20bdfc","
    <div id=""grid-container"">
        <!-- Grid items will be dynamically added here -->
    </div>    ","null","","","","","","","","","","","",""
"","null","html-keyboard-response","156","232974","0.0-11.0-0.22","vfw30xUkkg","65b965069a415587a755a7de","6617fad957f7c6a12ea16e26","6622cd267d02c0e44a20bdfc","fixation cross","null","","","","","","","","","","","",""
"","764","html-keyboard-response","157","233739","0.0-11.0-1.22","vfw30xUkkg","65b965069a415587a755a7de","6617fad957f7c6a12ea16e26","6622cd267d02c0e44a20bdfc","image grid","q","","","","","Phylogenetic_Distractor_Threat_target","800","ongrid","q","4","Phylogenetic","true","experimental"
"","null","html-keyboard-response","158","233892","0.0-11.0-2.22","vfw30xUkkg","65b965069a415587a755a7de","6617fad957f7c6a12ea16e26","6622cd267d02c0e44a20bdfc","
    <div id=""grid-container"">
        <!-- Grid items will be dynamically added here -->
    </div>    ","null","","","","","","","","","","","",""
"","null","html-keyboard-response","159","234607","0.0-11.0-0.23","vfw30xUkkg","65b965069a415587a755a7de","6617fad957f7c6a12ea16e26","6622cd267d02c0e44a20bdfc","fixation cross","null","","","","","","","","","","","",""
"","null","html-keyboard-response","160","235417","0.0-11.0-1.23","vfw30xUkkg","65b965069a415587a755a7de","6617fad957f7c6a12ea16e26","6622cd267d02c0e44a20bdfc","
        <div id=""grid-container"">
        <!-- Grid items will be dynamically added here -->
    </div>    ","null","","","","","","","","","","","",""
"","1105","html-keyboard-response","161","235723","0.0-11.0-2.23","vfw30xUkkg","65b965069a415587a755a7de","6617fad957f7c6a12ea16e26","6622cd267d02c0e44a20bdfc","mask grid","p","","","","","Phylogenetic_Distractor_Nonthreat_target","800","onmask","p","7","Phylogenetic","true","experimental"
"","null","html-keyboard-response","162","236444","0.0-11.0-0.24","vfw30xUkkg","65b965069a415587a755a7de","6617fad957f7c6a12ea16e26","6622cd267d02c0e44a20bdfc","fixation cross","null","","","","","","","","","","","",""
"","638","html-keyboard-response","163","237083","0.0-11.0-1.24","vfw30xUkkg","65b965069a415587a755a7de","6617fad957f7c6a12ea16e26","6622cd267d02c0e44a20bdfc","image grid","q","","","","","Phylogenetic_Distractor_Threat_target","800","ongrid","q","4","Phylogenetic","true","experimental"
"","null","html-keyboard-response","164","237234","0.0-11.0-2.24","vfw30xUkkg","65b965069a415587a755a7de","6617fad957f7c6a12ea16e26","6622cd267d02c0e44a20bdfc","
    <div id=""grid-container"">
        <!-- Grid items will be dynamically added here -->
    </div>    ","null","","","","","","","","","","","",""
"","null","html-keyboard-response","165","237963","0.0-11.0-0.25","vfw30xUkkg","65b965069a415587a755a7de","6617fad957f7c6a12ea16e26","6622cd267d02c0e44a20bdfc","fixation cross","null","","","","","","","","","","","",""
"","735","html-keyboard-response","166","238699","0.0-11.0-1.25","vfw30xUkkg","65b965069a415587a755a7de","6617fad957f7c6a12ea16e26","6622cd267d02c0e44a20bdfc","image grid","p","","","","","Phylogenetic_Distractor_Nonthreat_target","800","ongrid","p","5","Phylogenetic","true","experimental"
"","null","html-keyboard-response","167","238864","0.0-11.0-2.25","vfw30xUkkg","65b965069a415587a755a7de","6617fad957f7c6a12ea16e26","6622cd267d02c0e44a20bdfc","
    <div id=""grid-container"">
        <!-- Grid items will be dynamically added here -->
    </div>    ","null","","","","","","","","","","","",""
"","null","html-keyboard-response","168","239579","0.0-11.0-0.26","vfw30xUkkg","65b965069a415587a755a7de","6617fad957f7c6a12ea16e26","6622cd267d02c0e44a20bdfc","fixation cross","null","","","","","","","","","","","",""
"","null","html-keyboard-response","169","240387","0.0-11.0-1.26","vfw30xUkkg","65b965069a415587a755a7de","6617fad957f7c6a12ea16e26","6622cd267d02c0e44a20bdfc","
        <div id=""grid-container"">
        <!-- Grid items will be dynamically added here -->
    </div>    ","null","","","","","","","","","","","",""
"","904","html-keyboard-response","170","240491","0.0-11.0-2.26","vfw30xUkkg","65b965069a415587a755a7de","6617fad957f7c6a12ea16e26","6622cd267d02c0e44a20bdfc","mask grid","q","","","","","Phylogenetic_Distractor_Threat_target","800","onmask","q","2","Phylogenetic","true","experimental"
"","null","html-keyboard-response","171","241212","0.0-11.0-0.27","vfw30xUkkg","65b965069a415587a755a7de","6617fad957f7c6a12ea16e26","6622cd267d02c0e44a20bdfc","fixation cross","null","","","","","","","","","","","",""
"","null","html-keyboard-response","172","242025","0.0-11.0-1.27","vfw30xUkkg","65b965069a415587a755a7de","6617fad957f7c6a12ea16e26","6622cd267d02c0e44a20bdfc","
        <div id=""grid-container"">
        <!-- Grid items will be dynamically added here -->
    </div>    ","null","","","","","","","","","","","",""
"","954","html-keyboard-response","173","242179","0.0-11.0-2.27","vfw30xUkkg","65b965069a415587a755a7de","6617fad957f7c6a12ea16e26","6622cd267d02c0e44a20bdfc","mask grid"," ","","","","","Phylogenetic_Distractor_Threat_target","800","onmask","q","8","Phylogenetic","false","experimental"
"","null","html-keyboard-response","174","242900","0.0-11.0-0.28","vfw30xUkkg","65b965069a415587a755a7de","6617fad957f7c6a12ea16e26","6622cd267d02c0e44a20bdfc","fixation cross","null","","","","","","","","","","","",""
"","null","html-keyboard-response","175","243705","0.0-11.0-1.28","vfw30xUkkg","65b965069a415587a755a7de","6617fad957f7c6a12ea16e26","6622cd267d02c0e44a20bdfc","
        <div id=""grid-container"">
        <!-- Grid items will be dynamically added here -->
    </div>    ","null","","","","","","","","","","","",""
"","1002","html-keyboard-response","176","243907","0.0-11.0-2.28","vfw30xUkkg","65b965069a415587a755a7de","6617fad957f7c6a12ea16e26","6622cd267d02c0e44a20bdfc","mask grid","p","","","","","Phylogenetic_Distractor_notarget","800","onmask"," ","4","Phylogenetic","false","experimental"
"","null","html-keyboard-response","177","244621","0.0-11.0-0.29","vfw30xUkkg","65b965069a415587a755a7de","6617fad957f7c6a12ea16e26","6622cd267d02c0e44a20bdfc","fixation cross","null","","","","","","","","","","","",""
"","750","html-keyboard-response","178","245371","0.0-11.0-1.29","vfw30xUkkg","65b965069a415587a755a7de","6617fad957f7c6a12ea16e26","6622cd267d02c0e44a20bdfc","image grid","q","","","","","Phylogenetic_Distractor_Threat_target","800","ongrid","q","8","Phylogenetic","true","experimental"
"","null","html-keyboard-response","179","245528","0.0-11.0-2.29","vfw30xUkkg","65b965069a415587a755a7de","6617fad957f7c6a12ea16e26","6622cd267d02c0e44a20bdfc","
    <div id=""grid-container"">
        <!-- Grid items will be dynamically added here -->
    </div>    ","null","","","","","","","","","","","",""
"","null","html-keyboard-response","180","246245","0.0-11.0-0.30","vfw30xUkkg","65b965069a415587a755a7de","6617fad957f7c6a12ea16e26","6622cd267d02c0e44a20bdfc","fixation cross","null","","","","","","","","","","","",""
"","774","html-keyboard-response","181","247019","0.0-11.0-1.30","vfw30xUkkg","65b965069a415587a755a7de","6617fad957f7c6a12ea16e26","6622cd267d02c0e44a20bdfc","image grid"," ","","","","","Phylogenetic_Distractor_Nonthreat_target","800","ongrid","p","3","Phylogenetic","false","experimental"
"","null","html-keyboard-response","182","247175","0.0-11.0-2.30","vfw30xUkkg","65b965069a415587a755a7de","6617fad957f7c6a12ea16e26","6622cd267d02c0e44a20bdfc","
    <div id=""grid-container"">
        <!-- Grid items will be dynamically added here -->
    </div>    ","null","","","","","","","","","","","",""
"","null","html-keyboard-response","183","247901","0.0-11.0-0.31","vfw30xUkkg","65b965069a415587a755a7de","6617fad957f7c6a12ea16e26","6622cd267d02c0e44a20bdfc","fixation cross","null","","","","","","","","","","","",""
"","734","html-keyboard-response","184","248635","0.0-11.0-1.31","vfw30xUkkg","65b965069a415587a755a7de","6617fad957f7c6a12ea16e26","6622cd267d02c0e44a20bdfc","image grid","p","","","","","Phylogenetic_Distractor_Nonthreat_target","800","ongrid","p","6","Phylogenetic","true","experimental"
"","null","html-keyboard-response","185","248788","0.0-11.0-2.31","vfw30xUkkg","65b965069a415587a755a7de","6617fad957f7c6a12ea16e26","6622cd267d02c0e44a20bdfc","
    <div id=""grid-container"">
        <!-- Grid items will be dynamically added here -->
    </div>    ","null","","","","","","","","","","","",""
"","null","html-keyboard-response","186","249502","0.0-11.0-0.32","vfw30xUkkg","65b965069a415587a755a7de","6617fad957f7c6a12ea16e26","6622cd267d02c0e44a20bdfc","fixation cross","null","","","","","","","","","","","",""
"","null","html-keyboard-response","187","250309","0.0-11.0-1.32","vfw30xUkkg","65b965069a415587a755a7de","6617fad957f7c6a12ea16e26","6622cd267d02c0e44a20bdfc","
        <div id=""grid-container"">
        <!-- Grid items will be dynamically added here -->
    </div>    ","null","","","","","","","","","","","",""
"","800","html-keyboard-response","188","255313","0.0-11.0-2.32","vfw30xUkkg","65b965069a415587a755a7de","6617fad957f7c6a12ea16e26","6622cd267d02c0e44a20bdfc","mask grid","null","","","","","Phylogenetic_Distractor_Nonthreat_target","800","onmask","p","1","Phylogenetic","false","experimental"
"","null","html-keyboard-response","189","256030","0.0-11.0-0.33","vfw30xUkkg","65b965069a415587a755a7de","6617fad957f7c6a12ea16e26","6622cd267d02c0e44a20bdfc","fixation cross","null","","","","","","","","","","","",""
"","749","html-keyboard-response","190","256779","0.0-11.0-1.33","vfw30xUkkg","65b965069a415587a755a7de","6617fad957f7c6a12ea16e26","6622cd267d02c0e44a20bdfc","image grid","q","","","","","Phylogenetic_Distractor_Nonthreat_target","800","ongrid","p","1","Phylogenetic","false","experimental"
"","71","html-keyboard-response","191","256933","0.0-11.0-2.33","vfw30xUkkg","65b965069a415587a755a7de","6617fad957f7c6a12ea16e26","6622cd267d02c0e44a20bdfc","
    <div id=""grid-container"">
        <!-- Grid items will be dynamically added here -->
    </div>    ","p","","","","","","","","","","","",""
"","null","html-keyboard-response","192","257646","0.0-11.0-0.34","vfw30xUkkg","65b965069a415587a755a7de","6617fad957f7c6a12ea16e26","6622cd267d02c0e44a20bdfc","fixation cross","null","","","","","","","","","","","",""
"","789","html-keyboard-response","193","258435","0.0-11.0-1.34","vfw30xUkkg","65b965069a415587a755a7de","6617fad957f7c6a12ea16e26","6622cd267d02c0e44a20bdfc","image grid","p","","","","","Phylogenetic_Distractor_Nonthreat_target","800","ongrid","p","4","Phylogenetic","true","experimental"
"","55","html-keyboard-response","194","258590","0.0-11.0-2.34","vfw30xUkkg","65b965069a415587a755a7de","6617fad957f7c6a12ea16e26","6622cd267d02c0e44a20bdfc","
    <div id=""grid-container"">
        <!-- Grid items will be dynamically added here -->
    </div>    "," ","","","","","","","","","","","",""
"","null","html-keyboard-response","195","259322","0.0-11.0-0.35","vfw30xUkkg","65b965069a415587a755a7de","6617fad957f7c6a12ea16e26","6622cd267d02c0e44a20bdfc","fixation cross","null","","","","","","","","","","","",""
"","720","html-keyboard-response","196","260043","0.0-11.0-1.35","vfw30xUkkg","65b965069a415587a755a7de","6617fad957f7c6a12ea16e26","6622cd267d02c0e44a20bdfc","image grid","p","","","","","Phylogenetic_Distractor_Nonthreat_target","800","ongrid","p","8","Phylogenetic","true","experimental"
"","null","html-keyboard-response","197","260194","0.0-11.0-2.35","vfw30xUkkg","65b965069a415587a755a7de","6617fad957f7c6a12ea16e26","6622cd267d02c0e44a20bdfc","
    <div id=""grid-container"">
        <!-- Grid items will be dynamically added here -->
    </div>    ","null","","","","","","","","","","","",""
"","null","html-keyboard-response","198","260911","0.0-11.0-0.36","vfw30xUkkg","65b965069a415587a755a7de","6617fad957f7c6a12ea16e26","6622cd267d02c0e44a20bdfc","fixation cross","null","","","","","","","","","","","",""
"","732","html-keyboard-response","199","261643","0.0-11.0-1.36","vfw30xUkkg","65b965069a415587a755a7de","6617fad957f7c6a12ea16e26","6622cd267d02c0e44a20bdfc","image grid","p","","","","","Phylogenetic_Distractor_Nonthreat_target","800","ongrid","p","9","Phylogenetic","true","experimental"
"","null","html-keyboard-response","200","261800","0.0-11.0-2.36","vfw30xUkkg","65b965069a415587a755a7de","6617fad957f7c6a12ea16e26","6622cd267d02c0e44a20bdfc","
    <div id=""grid-container"">
        <!-- Grid items will be dynamically added here -->
    </div>    ","null","","","","","","","","","","","",""
"","null","html-keyboard-response","201","262503","0.0-11.0-0.37","vfw30xUkkg","65b965069a415587a755a7de","6617fad957f7c6a12ea16e26","6622cd267d02c0e44a20bdfc","fixation cross","null","","","","","","","","","","","",""
"","644","html-keyboard-response","202","263147","0.0-11.0-1.37","vfw30xUkkg","65b965069a415587a755a7de","6617fad957f7c6a12ea16e26","6622cd267d02c0e44a20bdfc","image grid","q","","","","","Phylogenetic_Distractor_Threat_target","800","ongrid","q","1","Phylogenetic","true","experimental"
"","null","html-keyboard-response","203","263299","0.0-11.0-2.37","vfw30xUkkg","65b965069a415587a755a7de","6617fad957f7c6a12ea16e26","6622cd267d02c0e44a20bdfc","
    <div id=""grid-container"">
        <!-- Grid items will be dynamically added here -->
    </div>    ","null","","","","","","","","","","","",""
"","null","html-keyboard-response","204","264027","0.0-11.0-0.38","vfw30xUkkg","65b965069a415587a755a7de","6617fad957f7c6a12ea16e26","6622cd267d02c0e44a20bdfc","fixation cross","null","","","","","","","","","","","",""
"","640","html-keyboard-response","205","264667","0.0-11.0-1.38","vfw30xUkkg","65b965069a415587a755a7de","6617fad957f7c6a12ea16e26","6622cd267d02c0e44a20bdfc","image grid","p","","","","","Phylogenetic_Distractor_Threat_target","800","ongrid","q","9","Phylogenetic","false","experimental"
"","null","html-keyboard-response","206","264819","0.0-11.0-2.38","vfw30xUkkg","65b965069a415587a755a7de","6617fad957f7c6a12ea16e26","6622cd267d02c0e44a20bdfc","
    <div id=""grid-container"">
        <!-- Grid items will be dynamically added here -->
    </div>    ","null","","","","","","","","","","","",""
"","null","html-keyboard-response","207","265534","0.0-11.0-0.39","vfw30xUkkg","65b965069a415587a755a7de","6617fad957f7c6a12ea16e26","6622cd267d02c0e44a20bdfc","fixation cross","null","","","","","","","","","","","",""
"","588","html-keyboard-response","208","266123","0.0-11.0-1.39","vfw30xUkkg","65b965069a415587a755a7de","6617fad957f7c6a12ea16e26","6622cd267d02c0e44a20bdfc","image grid","q","","","","","Phylogenetic_Distractor_Threat_target","800","ongrid","q","5","Phylogenetic","true","experimental"
"","null","html-keyboard-response","209","266277","0.0-11.0-2.39","vfw30xUkkg","65b965069a415587a755a7de","6617fad957f7c6a12ea16e26","6622cd267d02c0e44a20bdfc","
    <div id=""grid-container"">
        <!-- Grid items will be dynamically added here -->
    </div>    ","null","","","","","","","","","","","",""
"","15296","html-keyboard-response","210","281803","0.0-12.0","vfw30xUkkg","65b965069a415587a755a7de","6617fad957f7c6a12ea16e26","6622cd267d02c0e44a20bdfc","break screen","meta","","","","","","","","","","","",""
"","null","html-keyboard-response","211","284331","0.0-13.0-0.0","vfw30xUkkg","65b965069a415587a755a7de","6617fad957f7c6a12ea16e26","6622cd267d02c0e44a20bdfc","fixation cross","null","","","","","","","","","","","",""
"","2455","html-keyboard-response","212","286787","0.0-13.0-1.0","vfw30xUkkg","65b965069a415587a755a7de","6617fad957f7c6a12ea16e26","6622cd267d02c0e44a20bdfc","image grid","p","","","","","Ontogenetic_Distractor_Nonthreat_target","2500","ongrid","p","4","Ontogenetic","true","experimental"
"","null","html-keyboard-response","213","286950","0.0-13.0-2.0","vfw30xUkkg","65b965069a415587a755a7de","6617fad957f7c6a12ea16e26","6622cd267d02c0e44a20bdfc","
    <div id=""grid-container"">
        <!-- Grid items will be dynamically added here -->
    </div>    ","null","","","","","","","","","","","",""
"","null","html-keyboard-response","214","287665","0.0-13.0-0.1","vfw30xUkkg","65b965069a415587a755a7de","6617fad957f7c6a12ea16e26","6622cd267d02c0e44a20bdfc","fixation cross","null","","","","","","","","","","","",""
"","1570","html-keyboard-response","215","289235","0.0-13.0-1.1","vfw30xUkkg","65b965069a415587a755a7de","6617fad957f7c6a12ea16e26","6622cd267d02c0e44a20bdfc","image grid","p","","","","","Ontogenetic_Distractor_Nonthreat_target","2500","ongrid","p","7","Ontogenetic","true","experimental"
"","null","html-keyboard-response","216","289387","0.0-13.0-2.1","vfw30xUkkg","65b965069a415587a755a7de","6617fad957f7c6a12ea16e26","6622cd267d02c0e44a20bdfc","
    <div id=""grid-container"">
        <!-- Grid items will be dynamically added here -->
    </div>    ","null","","","","","","","","","","","",""
"","null","html-keyboard-response","217","290104","0.0-13.0-0.2","vfw30xUkkg","65b965069a415587a755a7de","6617fad957f7c6a12ea16e26","6622cd267d02c0e44a20bdfc","fixation cross","null","","","","","","","","","","","",""
"","1530","html-keyboard-response","218","291635","0.0-13.0-1.2","vfw30xUkkg","65b965069a415587a755a7de","6617fad957f7c6a12ea16e26","6622cd267d02c0e44a20bdfc","image grid"," ","","","","","Ontogenetic_Distractor_Nonthreat_target","2500","ongrid","p","5","Ontogenetic","false","experimental"
"","null","html-keyboard-response","219","291786","0.0-13.0-2.2","vfw30xUkkg","65b965069a415587a755a7de","6617fad957f7c6a12ea16e26","6622cd267d02c0e44a20bdfc","
    <div id=""grid-container"">
        <!-- Grid items will be dynamically added here -->
    </div>    ","null","","","","","","","","","","","",""
"","null","html-keyboard-response","220","292503","0.0-13.0-0.3","vfw30xUkkg","65b965069a415587a755a7de","6617fad957f7c6a12ea16e26","6622cd267d02c0e44a20bdfc","fixation cross","null","","","","","","","","","","","",""
"","1237","html-keyboard-response","221","293740","0.0-13.0-1.3","vfw30xUkkg","65b965069a415587a755a7de","6617fad957f7c6a12ea16e26","6622cd267d02c0e44a20bdfc","image grid","q","","","","","Ontogenetic_Distractor_Threat_target","2500","ongrid","q","7","Ontogenetic","true","experimental"
"","null","html-keyboard-response","222","293891","0.0-13.0-2.3","vfw30xUkkg","65b965069a415587a755a7de","6617fad957f7c6a12ea16e26","6622cd267d02c0e44a20bdfc","
    <div id=""grid-container"">
        <!-- Grid items will be dynamically added here -->
    </div>    ","null","","","","","","","","","","","",""
"","null","html-keyboard-response","223","294613","0.0-13.0-0.4","vfw30xUkkg","65b965069a415587a755a7de","6617fad957f7c6a12ea16e26","6622cd267d02c0e44a20bdfc","fixation cross","null","","","","","","","","","","","",""
"","789","html-keyboard-response","224","295403","0.0-13.0-1.4","vfw30xUkkg","65b965069a415587a755a7de","6617fad957f7c6a12ea16e26","6622cd267d02c0e44a20bdfc","image grid","q","","","","","Ontogenetic_Distractor_Threat_target","2500","ongrid","q","5","Ontogenetic","true","experimental"
"","null","html-keyboard-response","225","295565","0.0-13.0-2.4","vfw30xUkkg","65b965069a415587a755a7de","6617fad957f7c6a12ea16e26","6622cd267d02c0e44a20bdfc","
    <div id=""grid-container"">
        <!-- Grid items will be dynamically added here -->
    </div>    ","null","","","","","","","","","","","",""
"","null","html-keyboard-response","226","296282","0.0-13.0-0.5","vfw30xUkkg","65b965069a415587a755a7de","6617fad957f7c6a12ea16e26","6622cd267d02c0e44a20bdfc","fixation cross","null","","","","","","","","","","","",""
"","1688","html-keyboard-response","227","297971","0.0-13.0-1.5","vfw30xUkkg","65b965069a415587a755a7de","6617fad957f7c6a12ea16e26","6622cd267d02c0e44a20bdfc","image grid"," ","","","","","Ontogenetic_Distractor_notarget","2500","ongrid"," ","9","Ontogenetic","true","experimental"
"","null","html-keyboard-response","228","298131","0.0-13.0-2.5","vfw30xUkkg","65b965069a415587a755a7de","6617fad957f7c6a12ea16e26","6622cd267d02c0e44a20bdfc","
    <div id=""grid-container"">
        <!-- Grid items will be dynamically added here -->
    </div>    ","null","","","","","","","","","","","",""
"","null","html-keyboard-response","229","298848","0.0-13.0-0.6","vfw30xUkkg","65b965069a415587a755a7de","6617fad957f7c6a12ea16e26","6622cd267d02c0e44a20bdfc","fixation cross","null","","","","","","","","","","","",""
"","2068","html-keyboard-response","230","300916","0.0-13.0-1.6","vfw30xUkkg","65b965069a415587a755a7de","6617fad957f7c6a12ea16e26","6622cd267d02c0e44a20bdfc","image grid","p","","","","","Ontogenetic_Distractor_Nonthreat_target","2500","ongrid","p","3","Ontogenetic","true","experimental"
"","null","html-keyboard-response","231","301069","0.0-13.0-2.6","vfw30xUkkg","65b965069a415587a755a7de","6617fad957f7c6a12ea16e26","6622cd267d02c0e44a20bdfc","
    <div id=""grid-container"">
        <!-- Grid items will be dynamically added here -->
    </div>    ","null","","","","","","","","","","","",""
"","null","html-keyboard-response","232","301787","0.0-13.0-0.7","vfw30xUkkg","65b965069a415587a755a7de","6617fad957f7c6a12ea16e26","6622cd267d02c0e44a20bdfc","fixation cross","null","","","","","","","","","","","",""
"","1881","html-keyboard-response","233","303667","0.0-13.0-1.7","vfw30xUkkg","65b965069a415587a755a7de","6617fad957f7c6a12ea16e26","6622cd267d02c0e44a20bdfc","image grid","q","","","","","Ontogenetic_Distractor_Threat_target","2500","ongrid","q","7","Ontogenetic","true","experimental"
"","null","html-keyboard-response","234","303832","0.0-13.0-2.7","vfw30xUkkg","65b965069a415587a755a7de","6617fad957f7c6a12ea16e26","6622cd267d02c0e44a20bdfc","
    <div id=""grid-container"">
        <!-- Grid items will be dynamically added here -->
    </div>    ","null","","","","","","","","","","","",""
"","null","html-keyboard-response","235","304549","0.0-13.0-0.8","vfw30xUkkg","65b965069a415587a755a7de","6617fad957f7c6a12ea16e26","6622cd267d02c0e44a20bdfc","fixation cross","null","","","","","","","","","","","",""
"","1494","html-keyboard-response","236","306043","0.0-13.0-1.8","vfw30xUkkg","65b965069a415587a755a7de","6617fad957f7c6a12ea16e26","6622cd267d02c0e44a20bdfc","image grid","p","","","","","Ontogenetic_Distractor_Nonthreat_target","2500","ongrid","p","6","Ontogenetic","true","experimental"
"","null","html-keyboard-response","237","306202","0.0-13.0-2.8","vfw30xUkkg","65b965069a415587a755a7de","6617fad957f7c6a12ea16e26","6622cd267d02c0e44a20bdfc","
    <div id=""grid-container"">
        <!-- Grid items will be dynamically added here -->
    </div>    ","null","","","","","","","","","","","",""
"","null","html-keyboard-response","238","306915","0.0-13.0-0.9","vfw30xUkkg","65b965069a415587a755a7de","6617fad957f7c6a12ea16e26","6622cd267d02c0e44a20bdfc","fixation cross","null","","","","","","","","","","","",""
"","1807","html-keyboard-response","239","308723","0.0-13.0-1.9","vfw30xUkkg","65b965069a415587a755a7de","6617fad957f7c6a12ea16e26","6622cd267d02c0e44a20bdfc","image grid"," ","","","","","Ontogenetic_Distractor_Nonthreat_target","2500","ongrid","p","2","Ontogenetic","false","experimental"
"","null","html-keyboard-response","240","308877","0.0-13.0-2.9","vfw30xUkkg","65b965069a415587a755a7de","6617fad957f7c6a12ea16e26","6622cd267d02c0e44a20bdfc","
    <div id=""grid-container"">
        <!-- Grid items will be dynamically added here -->
    </div>    ","null","","","","","","","","","","","",""
"","null","html-keyboard-response","241","309582","0.0-13.0-0.10","vfw30xUkkg","65b965069a415587a755a7de","6617fad957f7c6a12ea16e26","6622cd267d02c0e44a20bdfc","fixation cross","null","","","","","","","","","","","",""
"","901","html-keyboard-response","242","310482","0.0-13.0-1.10","vfw30xUkkg","65b965069a415587a755a7de","6617fad957f7c6a12ea16e26","6622cd267d02c0e44a20bdfc","image grid","q","","","","","Ontogenetic_Distractor_Threat_target","2500","ongrid","q","2","Ontogenetic","true","experimental"
"","null","html-keyboard-response","243","310635","0.0-13.0-2.10","vfw30xUkkg","65b965069a415587a755a7de","6617fad957f7c6a12ea16e26","6622cd267d02c0e44a20bdfc","
    <div id=""grid-container"">
        <!-- Grid items will be dynamically added here -->
    </div>    ","null","","","","","","","","","","","",""
"","null","html-keyboard-response","244","311352","0.0-13.0-0.11","vfw30xUkkg","65b965069a415587a755a7de","6617fad957f7c6a12ea16e26","6622cd267d02c0e44a20bdfc","fixation cross","null","","","","","","","","","","","",""
"","1138","html-keyboard-response","245","312491","0.0-13.0-1.11","vfw30xUkkg","65b965069a415587a755a7de","6617fad957f7c6a12ea16e26","6622cd267d02c0e44a20bdfc","image grid","p","","","","","Ontogenetic_Distractor_Nonthreat_target","2500","ongrid","p","9","Ontogenetic","true","experimental"
"","null","html-keyboard-response","246","312645","0.0-13.0-2.11","vfw30xUkkg","65b965069a415587a755a7de","6617fad957f7c6a12ea16e26","6622cd267d02c0e44a20bdfc","
    <div id=""grid-container"">
        <!-- Grid items will be dynamically added here -->
    </div>    ","null","","","","","","","","","","","",""
"","null","html-keyboard-response","247","313372","0.0-13.0-0.12","vfw30xUkkg","65b965069a415587a755a7de","6617fad957f7c6a12ea16e26","6622cd267d02c0e44a20bdfc","fixation cross","null","","","","","","","","","","","",""
"","1078","html-keyboard-response","248","314451","0.0-13.0-1.12","vfw30xUkkg","65b965069a415587a755a7de","6617fad957f7c6a12ea16e26","6622cd267d02c0e44a20bdfc","image grid","p","","","","","Ontogenetic_Distractor_Nonthreat_target","2500","ongrid","p","8","Ontogenetic","true","experimental"
"","null","html-keyboard-response","249","314604","0.0-13.0-2.12","vfw30xUkkg","65b965069a415587a755a7de","6617fad957f7c6a12ea16e26","6622cd267d02c0e44a20bdfc","
    <div id=""grid-container"">
        <!-- Grid items will be dynamically added here -->
    </div>    ","null","","","","","","","","","","","",""
"","null","html-keyboard-response","250","315321","0.0-13.0-0.13","vfw30xUkkg","65b965069a415587a755a7de","6617fad957f7c6a12ea16e26","6622cd267d02c0e44a20bdfc","fixation cross","null","","","","","","","","","","","",""
"","null","html-keyboard-response","251","317823","0.0-13.0-1.13","vfw30xUkkg","65b965069a415587a755a7de","6617fad957f7c6a12ea16e26","6622cd267d02c0e44a20bdfc","
        <div id=""grid-container"">
        <!-- Grid items will be dynamically added here -->
    </div>    ","null","","","","","","","","","","","",""
"","2704","html-keyboard-response","252","318027","0.0-13.0-2.13","vfw30xUkkg","65b965069a415587a755a7de","6617fad957f7c6a12ea16e26","6622cd267d02c0e44a20bdfc","mask grid","p","","","","","Ontogenetic_Distractor_Nonthreat_target","2500","onmask","p","4","Ontogenetic","true","experimental"
"","null","html-keyboard-response","253","318740","0.0-13.0-0.14","vfw30xUkkg","65b965069a415587a755a7de","6617fad957f7c6a12ea16e26","6622cd267d02c0e44a20bdfc","fixation cross","null","","","","","","","","","","","",""
"","1438","html-keyboard-response","254","320179","0.0-13.0-1.14","vfw30xUkkg","65b965069a415587a755a7de","6617fad957f7c6a12ea16e26","6622cd267d02c0e44a20bdfc","image grid"," ","","","","","Ontogenetic_Distractor_notarget","2500","ongrid"," ","5","Ontogenetic","true","experimental"
"","null","html-keyboard-response","255","320331","0.0-13.0-2.14","vfw30xUkkg","65b965069a415587a755a7de","6617fad957f7c6a12ea16e26","6622cd267d02c0e44a20bdfc","
    <div id=""grid-container"">
        <!-- Grid items will be dynamically added here -->
    </div>    ","null","","","","","","","","","","","",""
"","null","html-keyboard-response","256","321045","0.0-13.0-0.15","vfw30xUkkg","65b965069a415587a755a7de","6617fad957f7c6a12ea16e26","6622cd267d02c0e44a20bdfc","fixation cross","null","","","","","","","","","","","",""
"","774","html-keyboard-response","257","321819","0.0-13.0-1.15","vfw30xUkkg","65b965069a415587a755a7de","6617fad957f7c6a12ea16e26","6622cd267d02c0e44a20bdfc","image grid","p","","","","","Ontogenetic_Distractor_Nonthreat_target","2500","ongrid","p","3","Ontogenetic","true","experimental"
"","null","html-keyboard-response","258","321981","0.0-13.0-2.15","vfw30xUkkg","65b965069a415587a755a7de","6617fad957f7c6a12ea16e26","6622cd267d02c0e44a20bdfc","
    <div id=""grid-container"">
        <!-- Grid items will be dynamically added here -->
    </div>    ","null","","","","","","","","","","","",""
"","null","html-keyboard-response","259","322697","0.0-13.0-0.16","vfw30xUkkg","65b965069a415587a755a7de","6617fad957f7c6a12ea16e26","6622cd267d02c0e44a20bdfc","fixation cross","null","","","","","","","","","","","",""
"","721","html-keyboard-response","260","323419","0.0-13.0-1.16","vfw30xUkkg","65b965069a415587a755a7de","6617fad957f7c6a12ea16e26","6622cd267d02c0e44a20bdfc","image grid","q","","","","","Ontogenetic_Distractor_Threat_target","2500","ongrid","q","1","Ontogenetic","true","experimental"
"","null","html-keyboard-response","261","323570","0.0-13.0-2.16","vfw30xUkkg","65b965069a415587a755a7de","6617fad957f7c6a12ea16e26","6622cd267d02c0e44a20bdfc","
    <div id=""grid-container"">
        <!-- Grid items will be dynamically added here -->
    </div>    ","null","","","","","","","","","","","",""
"","null","html-keyboard-response","262","324289","0.0-13.0-0.17","vfw30xUkkg","65b965069a415587a755a7de","6617fad957f7c6a12ea16e26","6622cd267d02c0e44a20bdfc","fixation cross","null","","","","","","","","","","","",""
"","809","html-keyboard-response","263","325099","0.0-13.0-1.17","vfw30xUkkg","65b965069a415587a755a7de","6617fad957f7c6a12ea16e26","6622cd267d02c0e44a20bdfc","image grid","p","","","","","Ontogenetic_Distractor_Nonthreat_target","2500","ongrid","p","5","Ontogenetic","true","experimental"
"","null","html-keyboard-response","264","325256","0.0-13.0-2.17","vfw30xUkkg","65b965069a415587a755a7de","6617fad957f7c6a12ea16e26","6622cd267d02c0e44a20bdfc","
    <div id=""grid-container"">
        <!-- Grid items will be dynamically added here -->
    </div>    ","null","","","","","","","","","","","",""
"","null","html-keyboard-response","265","325973","0.0-13.0-0.18","vfw30xUkkg","65b965069a415587a755a7de","6617fad957f7c6a12ea16e26","6622cd267d02c0e44a20bdfc","fixation cross","null","","","","","","","","","","","",""
"","1390","html-keyboard-response","266","327363","0.0-13.0-1.18","vfw30xUkkg","65b965069a415587a755a7de","6617fad957f7c6a12ea16e26","6622cd267d02c0e44a20bdfc","image grid"," ","","","","","Ontogenetic_Distractor_notarget","2500","ongrid"," ","5","Ontogenetic","true","experimental"
"","null","html-keyboard-response","267","327515","0.0-13.0-2.18","vfw30xUkkg","65b965069a415587a755a7de","6617fad957f7c6a12ea16e26","6622cd267d02c0e44a20bdfc","
    <div id=""grid-container"">
        <!-- Grid items will be dynamically added here -->
    </div>    ","null","","","","","","","","","","","",""
"","null","html-keyboard-response","268","328228","0.0-13.0-0.19","vfw30xUkkg","65b965069a415587a755a7de","6617fad957f7c6a12ea16e26","6622cd267d02c0e44a20bdfc","fixation cross","null","","","","","","","","","","","",""
"","1303","html-keyboard-response","269","329531","0.0-13.0-1.19","vfw30xUkkg","65b965069a415587a755a7de","6617fad957f7c6a12ea16e26","6622cd267d02c0e44a20bdfc","image grid"," ","","","","","Ontogenetic_Distractor_notarget","2500","ongrid"," ","3","Ontogenetic","true","experimental"
"","null","html-keyboard-response","270","329692","0.0-13.0-2.19","vfw30xUkkg","65b965069a415587a755a7de","6617fad957f7c6a12ea16e26","6622cd267d02c0e44a20bdfc","
    <div id=""grid-container"">
        <!-- Grid items will be dynamically added here -->
    </div>    ","null","","","","","","","","","","","",""
"","null","html-keyboard-response","271","330407","0.0-13.0-0.20","vfw30xUkkg","65b965069a415587a755a7de","6617fad957f7c6a12ea16e26","6622cd267d02c0e44a20bdfc","fixation cross","null","","","","","","","","","","","",""
"","1452","html-keyboard-response","272","331859","0.0-13.0-1.20","vfw30xUkkg","65b965069a415587a755a7de","6617fad957f7c6a12ea16e26","6622cd267d02c0e44a20bdfc","image grid","q","","","","","Ontogenetic_Distractor_Threat_target","2500","ongrid","q","9","Ontogenetic","true","experimental"
"","null","html-keyboard-response","273","332024","0.0-13.0-2.20","vfw30xUkkg","65b965069a415587a755a7de","6617fad957f7c6a12ea16e26","6622cd267d02c0e44a20bdfc","
    <div id=""grid-container"">
        <!-- Grid items will be dynamically added here -->
    </div>    ","null","","","","","","","","","","","",""
"","null","html-keyboard-response","274","332736","0.0-13.0-0.21","vfw30xUkkg","65b965069a415587a755a7de","6617fad957f7c6a12ea16e26","6622cd267d02c0e44a20bdfc","fixation cross","null","","","","","","","","","","","",""
"","1298","html-keyboard-response","275","334034","0.0-13.0-1.21","vfw30xUkkg","65b965069a415587a755a7de","6617fad957f7c6a12ea16e26","6622cd267d02c0e44a20bdfc","image grid","q","","","","","Ontogenetic_Distractor_Threat_target","2500","ongrid","q","2","Ontogenetic","true","experimental"
"","null","html-keyboard-response","276","334194","0.0-13.0-2.21","vfw30xUkkg","65b965069a415587a755a7de","6617fad957f7c6a12ea16e26","6622cd267d02c0e44a20bdfc","
    <div id=""grid-container"">
        <!-- Grid items will be dynamically added here -->
    </div>    ","null","","","","","","","","","","","",""
"","null","html-keyboard-response","277","334909","0.0-13.0-0.22","vfw30xUkkg","65b965069a415587a755a7de","6617fad957f7c6a12ea16e26","6622cd267d02c0e44a20bdfc","fixation cross","null","","","","","","","","","","","",""
"","1022","html-keyboard-response","278","335930","0.0-13.0-1.22","vfw30xUkkg","65b965069a415587a755a7de","6617fad957f7c6a12ea16e26","6622cd267d02c0e44a20bdfc","image grid","q","","","","","Ontogenetic_Distractor_Threat_target","2500","ongrid","q","8","Ontogenetic","true","experimental"
"","null","html-keyboard-response","279","336087","0.0-13.0-2.22","vfw30xUkkg","65b965069a415587a755a7de","6617fad957f7c6a12ea16e26","6622cd267d02c0e44a20bdfc","
    <div id=""grid-container"">
        <!-- Grid items will be dynamically added here -->
    </div>    ","null","","","","","","","","","","","",""
"","null","html-keyboard-response","280","336793","0.0-13.0-0.23","vfw30xUkkg","65b965069a415587a755a7de","6617fad957f7c6a12ea16e26","6622cd267d02c0e44a20bdfc","fixation cross","null","","","","","","","","","","","",""
"","1217","html-keyboard-response","281","338011","0.0-13.0-1.23","vfw30xUkkg","65b965069a415587a755a7de","6617fad957f7c6a12ea16e26","6622cd267d02c0e44a20bdfc","image grid","p","","","","","Ontogenetic_Distractor_Nonthreat_target","2500","ongrid","p","2","Ontogenetic","true","experimental"
"","null","html-keyboard-response","282","338167","0.0-13.0-2.23","vfw30xUkkg","65b965069a415587a755a7de","6617fad957f7c6a12ea16e26","6622cd267d02c0e44a20bdfc","
    <div id=""grid-container"">
        <!-- Grid items will be dynamically added here -->
    </div>    ","null","","","","","","","","","","","",""
"","null","html-keyboard-response","283","338871","0.0-13.0-0.24","vfw30xUkkg","65b965069a415587a755a7de","6617fad957f7c6a12ea16e26","6622cd267d02c0e44a20bdfc","fixation cross","null","","","","","","","","","","","",""
"","860","html-keyboard-response","284","339731","0.0-13.0-1.24","vfw30xUkkg","65b965069a415587a755a7de","6617fad957f7c6a12ea16e26","6622cd267d02c0e44a20bdfc","image grid","q","","","","","Ontogenetic_Distractor_Threat_target","2500","ongrid","q","5","Ontogenetic","true","experimental"
"","null","html-keyboard-response","285","339895","0.0-13.0-2.24","vfw30xUkkg","65b965069a415587a755a7de","6617fad957f7c6a12ea16e26","6622cd267d02c0e44a20bdfc","
    <div id=""grid-container"">
        <!-- Grid items will be dynamically added here -->
    </div>    ","null","","","","","","","","","","","",""
"","null","html-keyboard-response","286","340616","0.0-13.0-0.25","vfw30xUkkg","65b965069a415587a755a7de","6617fad957f7c6a12ea16e26","6622cd267d02c0e44a20bdfc","fixation cross","null","","","","","","","","","","","",""
"","1162","html-keyboard-response","287","341779","0.0-13.0-1.25","vfw30xUkkg","65b965069a415587a755a7de","6617fad957f7c6a12ea16e26","6622cd267d02c0e44a20bdfc","image grid","p","","","","","Ontogenetic_Distractor_Nonthreat_target","2500","ongrid","p","7","Ontogenetic","true","experimental"
"","null","html-keyboard-response","288","341938","0.0-13.0-2.25","vfw30xUkkg","65b965069a415587a755a7de","6617fad957f7c6a12ea16e26","6622cd267d02c0e44a20bdfc","
    <div id=""grid-container"">
        <!-- Grid items will be dynamically added here -->
    </div>    ","null","","","","","","","","","","","",""
"","null","html-keyboard-response","289","342655","0.0-13.0-0.26","vfw30xUkkg","65b965069a415587a755a7de","6617fad957f7c6a12ea16e26","6622cd267d02c0e44a20bdfc","fixation cross","null","","","","","","","","","","","",""
"","988","html-keyboard-response","290","343642","0.0-13.0-1.26","vfw30xUkkg","65b965069a415587a755a7de","6617fad957f7c6a12ea16e26","6622cd267d02c0e44a20bdfc","image grid","q","","","","","Ontogenetic_Distractor_Threat_target","2500","ongrid","q","8","Ontogenetic","true","experimental"
"","null","html-keyboard-response","291","343802","0.0-13.0-2.26","vfw30xUkkg","65b965069a415587a755a7de","6617fad957f7c6a12ea16e26","6622cd267d02c0e44a20bdfc","
    <div id=""grid-container"">
        <!-- Grid items will be dynamically added here -->
    </div>    ","null","","","","","","","","","","","",""
"","null","html-keyboard-response","292","344514","0.0-13.0-0.27","vfw30xUkkg","65b965069a415587a755a7de","6617fad957f7c6a12ea16e26","6622cd267d02c0e44a20bdfc","fixation cross","null","","","","","","","","","","","",""
"","1672","html-keyboard-response","293","346187","0.0-13.0-1.27","vfw30xUkkg","65b965069a415587a755a7de","6617fad957f7c6a12ea16e26","6622cd267d02c0e44a20bdfc","image grid","p","","","","","Ontogenetic_Distractor_Nonthreat_target","2500","ongrid","p","6","Ontogenetic","true","experimental"
"","null","html-keyboard-response","294","346341","0.0-13.0-2.27","vfw30xUkkg","65b965069a415587a755a7de","6617fad957f7c6a12ea16e26","6622cd267d02c0e44a20bdfc","
    <div id=""grid-container"">
        <!-- Grid items will be dynamically added here -->
    </div>    ","null","","","","","","","","","","","",""
"","null","html-keyboard-response","295","347070","0.0-13.0-0.28","vfw30xUkkg","65b965069a415587a755a7de","6617fad957f7c6a12ea16e26","6622cd267d02c0e44a20bdfc","fixation cross","null","","","","","","","","","","","",""
"","981","html-keyboard-response","296","348051","0.0-13.0-1.28","vfw30xUkkg","65b965069a415587a755a7de","6617fad957f7c6a12ea16e26","6622cd267d02c0e44a20bdfc","image grid","q","","","","","Ontogenetic_Distractor_Threat_target","2500","ongrid","q","8","Ontogenetic","true","experimental"
"","null","html-keyboard-response","297","348210","0.0-13.0-2.28","vfw30xUkkg","65b965069a415587a755a7de","6617fad957f7c6a12ea16e26","6622cd267d02c0e44a20bdfc","
    <div id=""grid-container"">
        <!-- Grid items will be dynamically added here -->
    </div>    ","null","","","","","","","","","","","",""
"","null","html-keyboard-response","298","348925","0.0-13.0-0.29","vfw30xUkkg","65b965069a415587a755a7de","6617fad957f7c6a12ea16e26","6622cd267d02c0e44a20bdfc","fixation cross","null","","","","","","","","","","","",""
"","1406","html-keyboard-response","299","350331","0.0-13.0-1.29","vfw30xUkkg","65b965069a415587a755a7de","6617fad957f7c6a12ea16e26","6622cd267d02c0e44a20bdfc","image grid","p","","","","","Ontogenetic_Distractor_Nonthreat_target","2500","ongrid","p","3","Ontogenetic","true","experimental"
"","null","html-keyboard-response","300","350492","0.0-13.0-2.29","vfw30xUkkg","65b965069a415587a755a7de","6617fad957f7c6a12ea16e26","6622cd267d02c0e44a20bdfc","
    <div id=""grid-container"">
        <!-- Grid items will be dynamically added here -->
    </div>    ","null","","","","","","","","","","","",""
"","null","html-keyboard-response","301","351206","0.0-13.0-0.30","vfw30xUkkg","65b965069a415587a755a7de","6617fad957f7c6a12ea16e26","6622cd267d02c0e44a20bdfc","fixation cross","null","","","","","","","","","","","",""
"","1524","html-keyboard-response","302","352730","0.0-13.0-1.30","vfw30xUkkg","65b965069a415587a755a7de","6617fad957f7c6a12ea16e26","6622cd267d02c0e44a20bdfc","image grid","p","","","","","Ontogenetic_Distractor_Nonthreat_target","2500","ongrid","p","7","Ontogenetic","true","experimental"
"","null","html-keyboard-response","303","352890","0.0-13.0-2.30","vfw30xUkkg","65b965069a415587a755a7de","6617fad957f7c6a12ea16e26","6622cd267d02c0e44a20bdfc","
    <div id=""grid-container"">
        <!-- Grid items will be dynamically added here -->
    </div>    ","null","","","","","","","","","","","",""
"","null","html-keyboard-response","304","353607","0.0-13.0-0.31","vfw30xUkkg","65b965069a415587a755a7de","6617fad957f7c6a12ea16e26","6622cd267d02c0e44a20bdfc","fixation cross","null","","","","","","","","","","","",""
"","811","html-keyboard-response","305","354419","0.0-13.0-1.31","vfw30xUkkg","65b965069a415587a755a7de","6617fad957f7c6a12ea16e26","6622cd267d02c0e44a20bdfc","image grid","q","","","","","Ontogenetic_Distractor_Threat_target","2500","ongrid","q","6","Ontogenetic","true","experimental"
"","null","html-keyboard-response","306","354573","0.0-13.0-2.31","vfw30xUkkg","65b965069a415587a755a7de","6617fad957f7c6a12ea16e26","6622cd267d02c0e44a20bdfc","
    <div id=""grid-container"">
        <!-- Grid items will be dynamically added here -->
    </div>    ","null","","","","","","","","","","","",""
"","null","html-keyboard-response","307","355290","0.0-13.0-0.32","vfw30xUkkg","65b965069a415587a755a7de","6617fad957f7c6a12ea16e26","6622cd267d02c0e44a20bdfc","fixation cross","null","","","","","","","","","","","",""
"","1112","html-keyboard-response","308","356403","0.0-13.0-1.32","vfw30xUkkg","65b965069a415587a755a7de","6617fad957f7c6a12ea16e26","6622cd267d02c0e44a20bdfc","image grid","q","","","","","Ontogenetic_Distractor_Threat_target","2500","ongrid","q","7","Ontogenetic","true","experimental"
"","null","html-keyboard-response","309","356562","0.0-13.0-2.32","vfw30xUkkg","65b965069a415587a755a7de","6617fad957f7c6a12ea16e26","6622cd267d02c0e44a20bdfc","
    <div id=""grid-container"">
        <!-- Grid items will be dynamically added here -->
    </div>    ","null","","","","","","","","","","","",""
"","null","html-keyboard-response","310","357282","0.0-13.0-0.33","vfw30xUkkg","65b965069a415587a755a7de","6617fad957f7c6a12ea16e26","6622cd267d02c0e44a20bdfc","fixation cross","null","","","","","","","","","","","",""
"","1224","html-keyboard-response","311","358507","0.0-13.0-1.33","vfw30xUkkg","65b965069a415587a755a7de","6617fad957f7c6a12ea16e26","6622cd267d02c0e44a20bdfc","image grid","p","","","","","Ontogenetic_Distractor_Nonthreat_target","2500","ongrid","p","9","Ontogenetic","true","experimental"
"","null","html-keyboard-response","312","358666","0.0-13.0-2.33","vfw30xUkkg","65b965069a415587a755a7de","6617fad957f7c6a12ea16e26","6622cd267d02c0e44a20bdfc","
    <div id=""grid-container"">
        <!-- Grid items will be dynamically added here -->
    </div>    ","null","","","","","","","","","","","",""
"","null","html-keyboard-response","313","359369","0.0-13.0-0.34","vfw30xUkkg","65b965069a415587a755a7de","6617fad957f7c6a12ea16e26","6622cd267d02c0e44a20bdfc","fixation cross","null","","","","","","","","","","","",""
"","1378","html-keyboard-response","314","360747","0.0-13.0-1.34","vfw30xUkkg","65b965069a415587a755a7de","6617fad957f7c6a12ea16e26","6622cd267d02c0e44a20bdfc","image grid","q","","","","","Ontogenetic_Distractor_Threat_target","2500","ongrid","q","4","Ontogenetic","true","experimental"
"","null","html-keyboard-response","315","360906","0.0-13.0-2.34","vfw30xUkkg","65b965069a415587a755a7de","6617fad957f7c6a12ea16e26","6622cd267d02c0e44a20bdfc","
    <div id=""grid-container"">
        <!-- Grid items will be dynamically added here -->
    </div>    ","null","","","","","","","","","","","",""
"","null","html-keyboard-response","316","361622","0.0-13.0-0.35","vfw30xUkkg","65b965069a415587a755a7de","6617fad957f7c6a12ea16e26","6622cd267d02c0e44a20bdfc","fixation cross","null","","","","","","","","","","","",""
"","1117","html-keyboard-response","317","362739","0.0-13.0-1.35","vfw30xUkkg","65b965069a415587a755a7de","6617fad957f7c6a12ea16e26","6622cd267d02c0e44a20bdfc","image grid","q","","","","","Ontogenetic_Distractor_Threat_target","2500","ongrid","q","8","Ontogenetic","true","experimental"
"","null","html-keyboard-response","318","362897","0.0-13.0-2.35","vfw30xUkkg","65b965069a415587a755a7de","6617fad957f7c6a12ea16e26","6622cd267d02c0e44a20bdfc","
    <div id=""grid-container"">
        <!-- Grid items will be dynamically added here -->
    </div>    ","null","","","","","","","","","","","",""
"","null","html-keyboard-response","319","363614","0.0-13.0-0.36","vfw30xUkkg","65b965069a415587a755a7de","6617fad957f7c6a12ea16e26","6622cd267d02c0e44a20bdfc","fixation cross","null","","","","","","","","","","","",""
"","732","html-keyboard-response","320","364346","0.0-13.0-1.36","vfw30xUkkg","65b965069a415587a755a7de","6617fad957f7c6a12ea16e26","6622cd267d02c0e44a20bdfc","image grid","q","","","","","Ontogenetic_Distractor_Threat_target","2500","ongrid","q","2","Ontogenetic","true","experimental"
"","null","html-keyboard-response","321","364500","0.0-13.0-2.36","vfw30xUkkg","65b965069a415587a755a7de","6617fad957f7c6a12ea16e26","6622cd267d02c0e44a20bdfc","
    <div id=""grid-container"">
        <!-- Grid items will be dynamically added here -->
    </div>    ","null","","","","","","","","","","","",""
"","null","html-keyboard-response","322","365227","0.0-13.0-0.37","vfw30xUkkg","65b965069a415587a755a7de","6617fad957f7c6a12ea16e26","6622cd267d02c0e44a20bdfc","fixation cross","null","","","","","","","","","","","",""
"","1255","html-keyboard-response","323","366483","0.0-13.0-1.37","vfw30xUkkg","65b965069a415587a755a7de","6617fad957f7c6a12ea16e26","6622cd267d02c0e44a20bdfc","image grid","q","","","","","Ontogenetic_Distractor_Threat_target","2500","ongrid","q","9","Ontogenetic","true","experimental"
"","null","html-keyboard-response","324","366639","0.0-13.0-2.37","vfw30xUkkg","65b965069a415587a755a7de","6617fad957f7c6a12ea16e26","6622cd267d02c0e44a20bdfc","
    <div id=""grid-container"">
        <!-- Grid items will be dynamically added here -->
    </div>    ","null","","","","","","","","","","","",""
"","null","html-keyboard-response","325","367342","0.0-13.0-0.38","vfw30xUkkg","65b965069a415587a755a7de","6617fad957f7c6a12ea16e26","6622cd267d02c0e44a20bdfc","fixation cross","null","","","","","","","","","","","",""
"","1756","html-keyboard-response","326","369098","0.0-13.0-1.38","vfw30xUkkg","65b965069a415587a755a7de","6617fad957f7c6a12ea16e26","6622cd267d02c0e44a20bdfc","image grid"," ","","","","","Ontogenetic_Distractor_Threat_target","2500","ongrid","q","2","Ontogenetic","false","experimental"
"","null","html-keyboard-response","327","369256","0.0-13.0-2.38","vfw30xUkkg","65b965069a415587a755a7de","6617fad957f7c6a12ea16e26","6622cd267d02c0e44a20bdfc","
    <div id=""grid-container"">
        <!-- Grid items will be dynamically added here -->
    </div>    ","null","","","","","","","","","","","",""
"","null","html-keyboard-response","328","369971","0.0-13.0-0.39","vfw30xUkkg","65b965069a415587a755a7de","6617fad957f7c6a12ea16e26","6622cd267d02c0e44a20bdfc","fixation cross","null","","","","","","","","","","","",""
"","2103","html-keyboard-response","329","372075","0.0-13.0-1.39","vfw30xUkkg","65b965069a415587a755a7de","6617fad957f7c6a12ea16e26","6622cd267d02c0e44a20bdfc","image grid","p","","","","","Ontogenetic_Distractor_Nonthreat_target","2500","ongrid","p","4","Ontogenetic","true","experimental"
"","null","html-keyboard-response","330","372240","0.0-13.0-2.39","vfw30xUkkg","65b965069a415587a755a7de","6617fad957f7c6a12ea16e26","6622cd267d02c0e44a20bdfc","
    <div id=""grid-container"">
        <!-- Grid items will be dynamically added here -->
    </div>    ","null","","","","","","","","","","","",""
"","7456","html-keyboard-response","331","379922","0.0-14.0","vfw30xUkkg","65b965069a415587a755a7de","6617fad957f7c6a12ea16e26","6622cd267d02c0e44a20bdfc","break screen"," ","","","","","","","","","","","",""
"","null","html-keyboard-response","332","382463","0.0-15.0-0.0","vfw30xUkkg","65b965069a415587a755a7de","6617fad957f7c6a12ea16e26","6622cd267d02c0e44a20bdfc","fixation cross","null","","","","","","","","","","","",""
"","null","html-keyboard-response","333","383277","0.0-15.0-1.0","vfw30xUkkg","65b965069a415587a755a7de","6617fad957f7c6a12ea16e26","6622cd267d02c0e44a20bdfc","
        <div id=""grid-container"">
        <!-- Grid items will be dynamically added here -->
    </div>    ","null","","","","","","","","","","","",""
"","1109","html-keyboard-response","334","383587","0.0-15.0-2.0","vfw30xUkkg","65b965069a415587a755a7de","6617fad957f7c6a12ea16e26","6622cd267d02c0e44a20bdfc","mask grid","q","","","","","Phylogenetic_Distractor_Threat_target","800","onmask","q","4","Phylogenetic","true","experimental"
"","null","html-keyboard-response","335","384292","0.0-15.0-0.1","vfw30xUkkg","65b965069a415587a755a7de","6617fad957f7c6a12ea16e26","6622cd267d02c0e44a20bdfc","fixation cross","null","","","","","","","","","","","",""
"","null","html-keyboard-response","336","385104","0.0-15.0-1.1","vfw30xUkkg","65b965069a415587a755a7de","6617fad957f7c6a12ea16e26","6622cd267d02c0e44a20bdfc","
        <div id=""grid-container"">
        <!-- Grid items will be dynamically added here -->
    </div>    ","null","","","","","","","","","","","",""
"","1282","html-keyboard-response","337","385586","0.0-15.0-2.1","vfw30xUkkg","65b965069a415587a755a7de","6617fad957f7c6a12ea16e26","6622cd267d02c0e44a20bdfc","mask grid"," ","","","","","Phylogenetic_Distractor_Nonthreat_target","800","onmask","p","4","Phylogenetic","false","experimental"
"","null","html-keyboard-response","338","386305","0.0-15.0-0.2","vfw30xUkkg","65b965069a415587a755a7de","6617fad957f7c6a12ea16e26","6622cd267d02c0e44a20bdfc","fixation cross","null","","","","","","","","","","","",""
"","721","html-keyboard-response","339","387026","0.0-15.0-1.2","vfw30xUkkg","65b965069a415587a755a7de","6617fad957f7c6a12ea16e26","6622cd267d02c0e44a20bdfc","image grid","p","","","","","Phylogenetic_Distractor_Nonthreat_target","800","ongrid","p","8","Phylogenetic","true","experimental"
"","null","html-keyboard-response","340","387188","0.0-15.0-2.2","vfw30xUkkg","65b965069a415587a755a7de","6617fad957f7c6a12ea16e26","6622cd267d02c0e44a20bdfc","
    <div id=""grid-container"">
        <!-- Grid items will be dynamically added here -->
    </div>    ","null","","","","","","","","","","","",""
"","null","html-keyboard-response","341","387903","0.0-15.0-0.3","vfw30xUkkg","65b965069a415587a755a7de","6617fad957f7c6a12ea16e26","6622cd267d02c0e44a20bdfc","fixation cross","null","","","","","","","","","","","",""
"","null","html-keyboard-response","342","388713","0.0-15.0-1.3","vfw30xUkkg","65b965069a415587a755a7de","6617fad957f7c6a12ea16e26","6622cd267d02c0e44a20bdfc","
        <div id=""grid-container"">
        <!-- Grid items will be dynamically added here -->
    </div>    ","null","","","","","","","","","","","",""
"","961","html-keyboard-response","343","388874","0.0-15.0-2.3","vfw30xUkkg","65b965069a415587a755a7de","6617fad957f7c6a12ea16e26","6622cd267d02c0e44a20bdfc","mask grid"," ","","","","","Phylogenetic_Distractor_notarget","800","onmask"," ","3","Phylogenetic","true","experimental"
"","null","html-keyboard-response","344","389600","0.0-15.0-0.4","vfw30xUkkg","65b965069a415587a755a7de","6617fad957f7c6a12ea16e26","6622cd267d02c0e44a20bdfc","fixation cross","null","","","","","","","","","","","",""
"","642","html-keyboard-response","345","390242","0.0-15.0-1.4","vfw30xUkkg","65b965069a415587a755a7de","6617fad957f7c6a12ea16e26","6622cd267d02c0e44a20bdfc","image grid"," ","","","","","Phylogenetic_Distractor_Nonthreat_target","800","ongrid","p","6","Phylogenetic","false","experimental"
"","null","html-keyboard-response","346","390396","0.0-15.0-2.4","vfw30xUkkg","65b965069a415587a755a7de","6617fad957f7c6a12ea16e26","6622cd267d02c0e44a20bdfc","
    <div id=""grid-container"">
        <!-- Grid items will be dynamically added here -->
    </div>    ","null","","","","","","","","","","","",""
"","null","html-keyboard-response","347","391108","0.0-15.0-0.5","vfw30xUkkg","65b965069a415587a755a7de","6617fad957f7c6a12ea16e26","6622cd267d02c0e44a20bdfc","fixation cross","null","","","","","","","","","","","",""
"","598","html-keyboard-response","348","391706","0.0-15.0-1.5","vfw30xUkkg","65b965069a415587a755a7de","6617fad957f7c6a12ea16e26","6622cd267d02c0e44a20bdfc","image grid","q","","","","","Phylogenetic_Distractor_Threat_target","800","ongrid","q","4","Phylogenetic","true","experimental"
"","null","html-keyboard-response","349","391868","0.0-15.0-2.5","vfw30xUkkg","65b965069a415587a755a7de","6617fad957f7c6a12ea16e26","6622cd267d02c0e44a20bdfc","
    <div id=""grid-container"">
        <!-- Grid items will be dynamically added here -->
    </div>    ","null","","","","","","","","","","","",""
"","null","html-keyboard-response","350","392584","0.0-15.0-0.6","vfw30xUkkg","65b965069a415587a755a7de","6617fad957f7c6a12ea16e26","6622cd267d02c0e44a20bdfc","fixation cross","null","","","","","","","","","","","",""
"","746","html-keyboard-response","351","393330","0.0-15.0-1.6","vfw30xUkkg","65b965069a415587a755a7de","6617fad957f7c6a12ea16e26","6622cd267d02c0e44a20bdfc","image grid"," ","","","","","Phylogenetic_Distractor_notarget","800","ongrid"," ","6","Phylogenetic","true","experimental"
"","null","html-keyboard-response","352","393487","0.0-15.0-2.6","vfw30xUkkg","65b965069a415587a755a7de","6617fad957f7c6a12ea16e26","6622cd267d02c0e44a20bdfc","
    <div id=""grid-container"">
        <!-- Grid items will be dynamically added here -->
    </div>    ","null","","","","","","","","","","","",""
"","null","html-keyboard-response","353","394203","0.0-15.0-0.7","vfw30xUkkg","65b965069a415587a755a7de","6617fad957f7c6a12ea16e26","6622cd267d02c0e44a20bdfc","fixation cross","null","","","","","","","","","","","",""
"","688","html-keyboard-response","354","394891","0.0-15.0-1.7","vfw30xUkkg","65b965069a415587a755a7de","6617fad957f7c6a12ea16e26","6622cd267d02c0e44a20bdfc","image grid","q","","","","","Phylogenetic_Distractor_Threat_target","800","ongrid","q","6","Phylogenetic","true","experimental"
"","null","html-keyboard-response","355","395054","0.0-15.0-2.7","vfw30xUkkg","65b965069a415587a755a7de","6617fad957f7c6a12ea16e26","6622cd267d02c0e44a20bdfc","
    <div id=""grid-container"">
        <!-- Grid items will be dynamically added here -->
    </div>    ","null","","","","","","","","","","","",""
"","null","html-keyboard-response","356","395769","0.0-15.0-0.8","vfw30xUkkg","65b965069a415587a755a7de","6617fad957f7c6a12ea16e26","6622cd267d02c0e44a20bdfc","fixation cross","null","","","","","","","","","","","",""
"","null","html-keyboard-response","357","396581","0.0-15.0-1.8","vfw30xUkkg","65b965069a415587a755a7de","6617fad957f7c6a12ea16e26","6622cd267d02c0e44a20bdfc","
        <div id=""grid-container"">
        <!-- Grid items will be dynamically added here -->
    </div>    ","null","","","","","","","","","","","",""
"","800","html-keyboard-response","358","401593","0.0-15.0-2.8","vfw30xUkkg","65b965069a415587a755a7de","6617fad957f7c6a12ea16e26","6622cd267d02c0e44a20bdfc","mask grid","null","","","","","Phylogenetic_Distractor_Threat_target","800","onmask","q","9","Phylogenetic","false","experimental"
"","null","html-keyboard-response","359","402322","0.0-15.0-0.9","vfw30xUkkg","65b965069a415587a755a7de","6617fad957f7c6a12ea16e26","6622cd267d02c0e44a20bdfc","fixation cross","null","","","","","","","","","","","",""
"","672","html-keyboard-response","360","402994","0.0-15.0-1.9","vfw30xUkkg","65b965069a415587a755a7de","6617fad957f7c6a12ea16e26","6622cd267d02c0e44a20bdfc","image grid"," ","","","","","Phylogenetic_Distractor_Nonthreat_target","800","ongrid","p","9","Phylogenetic","false","experimental"
"","null","html-keyboard-response","361","403146","0.0-15.0-2.9","vfw30xUkkg","65b965069a415587a755a7de","6617fad957f7c6a12ea16e26","6622cd267d02c0e44a20bdfc","
    <div id=""grid-container"">
        <!-- Grid items will be dynamically added here -->
    </div>    ","null","","","","","","","","","","","",""
"","null","html-keyboard-response","362","403862","0.0-15.0-0.10","vfw30xUkkg","65b965069a415587a755a7de","6617fad957f7c6a12ea16e26","6622cd267d02c0e44a20bdfc","fixation cross","null","","","","","","","","","","","",""
"","564","html-keyboard-response","363","404426","0.0-15.0-1.10","vfw30xUkkg","65b965069a415587a755a7de","6617fad957f7c6a12ea16e26","6622cd267d02c0e44a20bdfc","image grid","q","","","","","Phylogenetic_Distractor_Threat_target","800","ongrid","q","9","Phylogenetic","true","experimental"
"","null","html-keyboard-response","364","404590","0.0-15.0-2.10","vfw30xUkkg","65b965069a415587a755a7de","6617fad957f7c6a12ea16e26","6622cd267d02c0e44a20bdfc","
    <div id=""grid-container"">
        <!-- Grid items will be dynamically added here -->
    </div>    ","null","","","","","","","","","","","",""
"","null","html-keyboard-response","365","405304","0.0-15.0-0.11","vfw30xUkkg","65b965069a415587a755a7de","6617fad957f7c6a12ea16e26","6622cd267d02c0e44a20bdfc","fixation cross","null","","","","","","","","","","","",""
"","602","html-keyboard-response","366","405907","0.0-15.0-1.11","vfw30xUkkg","65b965069a415587a755a7de","6617fad957f7c6a12ea16e26","6622cd267d02c0e44a20bdfc","image grid","p","","","","","Phylogenetic_Distractor_Nonthreat_target","800","ongrid","p","3","Phylogenetic","true","experimental"
"","null","html-keyboard-response","367","406066","0.0-15.0-2.11","vfw30xUkkg","65b965069a415587a755a7de","6617fad957f7c6a12ea16e26","6622cd267d02c0e44a20bdfc","
    <div id=""grid-container"">
        <!-- Grid items will be dynamically added here -->
    </div>    ","null","","","","","","","","","","","",""
"","null","html-keyboard-response","368","406784","0.0-15.0-0.12","vfw30xUkkg","65b965069a415587a755a7de","6617fad957f7c6a12ea16e26","6622cd267d02c0e44a20bdfc","fixation cross","null","","","","","","","","","","","",""
"","650","html-keyboard-response","369","407434","0.0-15.0-1.12","vfw30xUkkg","65b965069a415587a755a7de","6617fad957f7c6a12ea16e26","6622cd267d02c0e44a20bdfc","image grid","p","","","","","Phylogenetic_Distractor_Nonthreat_target","800","ongrid","p","6","Phylogenetic","true","experimental"
"","null","html-keyboard-response","370","407593","0.0-15.0-2.12","vfw30xUkkg","65b965069a415587a755a7de","6617fad957f7c6a12ea16e26","6622cd267d02c0e44a20bdfc","
    <div id=""grid-container"">
