"success","rt","trial_type","trial_index","time_elapsed","internal_node_id","unique_identifier","subject_id","study_id","session_id","stimulus","response","timeout","failed_images","failed_audio","failed_video","task","time_manipulation","respondedwhen","correctresponse","targetimagelocation","blocktype","correct","roundtype"
"true","37749","fullscreen","0","38758","0.0-0.0","DEJIFkxr5s","644ff5cdfdce8f493ccc6ca9","6617fad957f7c6a12ea16e26","6622cf21c230f86477d59bb6","","","","","","","","","","","","","",""
"","7581","html-keyboard-response","1","46341","0.0-1.0","DEJIFkxr5s","644ff5cdfdce8f493ccc6ca9","6617fad957f7c6a12ea16e26","6622cf21c230f86477d59bb6","instruction screen 0","control","","","","","","","","","","","",""
"true","","preload","2","49022","0.0-2.0","DEJIFkxr5s","644ff5cdfdce8f493ccc6ca9","6617fad957f7c6a12ea16e26","6622cf21c230f86477d59bb6","","","false","[]","[]","[]","","","","","","","",""
"","14693","html-keyboard-response","3","63717","0.0-3.0","DEJIFkxr5s","644ff5cdfdce8f493ccc6ca9","6617fad957f7c6a12ea16e26","6622cf21c230f86477d59bb6","instruction screen 1","k","","","","","","","","","","","",""
"","22840","html-keyboard-response","4","86581","0.0-4.0","DEJIFkxr5s","644ff5cdfdce8f493ccc6ca9","6617fad957f7c6a12ea16e26","6622cf21c230f86477d59bb6","instruction screen 2","q","","","","","","","","","","","",""
"","21125","html-keyboard-response","5","107733","0.0-5.0","DEJIFkxr5s","644ff5cdfdce8f493ccc6ca9","6617fad957f7c6a12ea16e26","6622cf21c230f86477d59bb6","instruction screen 3","p","","","","","","","","","","","",""
"","15399","html-keyboard-response","6","123144","0.0-6.0","DEJIFkxr5s","644ff5cdfdce8f493ccc6ca9","6617fad957f7c6a12ea16e26","6622cf21c230f86477d59bb6","instruction screen 4"," ","","","","","","","","","","","",""
"","16279","html-keyboard-response","7","139448","0.0-7.0","DEJIFkxr5s","644ff5cdfdce8f493ccc6ca9","6617fad957f7c6a12ea16e26","6622cf21c230f86477d59bb6","instruction screen 5","p","","","","","","","","","","","",""
"","null","html-keyboard-response","8","139976","0.0-8.0","DEJIFkxr5s","644ff5cdfdce8f493ccc6ca9","6617fad957f7c6a12ea16e26","6622cf21c230f86477d59bb6","fixation cross","null","","","","","","","","","","","",""
"","null","html-keyboard-response","9","140476","0.0-9.0-0.0","DEJIFkxr5s","644ff5cdfdce8f493ccc6ca9","6617fad957f7c6a12ea16e26","6622cf21c230f86477d59bb6","fixation cross","null","","","","","","","","","","","",""
"","2138","html-keyboard-response","10","142615","0.0-9.0-1.0","DEJIFkxr5s","644ff5cdfdce8f493ccc6ca9","6617fad957f7c6a12ea16e26","6622cf21c230f86477d59bb6","image grid","p","","","","","Phylogenetic_Distractor_Nonthreat_target","3000","ongrid","p","5","Ontogenetic","true","practice"
"","null","html-keyboard-response","11","142776","0.0-9.0-2.0","DEJIFkxr5s","644ff5cdfdce8f493ccc6ca9","6617fad957f7c6a12ea16e26","6622cf21c230f86477d59bb6","
    <div id=""grid-container"">
        <!-- Grid items will be dynamically added here -->
    </div>    ","null","","","","","","","","","","","",""
"","null","html-keyboard-response","12","143991","0.0-9.0-3.0","DEJIFkxr5s","644ff5cdfdce8f493ccc6ca9","6617fad957f7c6a12ea16e26","6622cf21c230f86477d59bb6","feedback screen","null","","","","","","","","","","","",""
"","null","html-keyboard-response","13","144515","0.0-9.0-0.1","DEJIFkxr5s","644ff5cdfdce8f493ccc6ca9","6617fad957f7c6a12ea16e26","6622cf21c230f86477d59bb6","fixation cross","null","","","","","","","","","","","",""
"","1795","html-keyboard-response","14","146311","0.0-9.0-1.1","DEJIFkxr5s","644ff5cdfdce8f493ccc6ca9","6617fad957f7c6a12ea16e26","6622cf21c230f86477d59bb6","image grid","p","","","","","Phylogenetic_Distractor_Nonthreat_target","2900","ongrid","p","7","Ontogenetic","true","practice"
"","null","html-keyboard-response","15","146466","0.0-9.0-2.1","DEJIFkxr5s","644ff5cdfdce8f493ccc6ca9","6617fad957f7c6a12ea16e26","6622cf21c230f86477d59bb6","
    <div id=""grid-container"">
        <!-- Grid items will be dynamically added here -->
    </div>    ","null","","","","","","","","","","","",""
"","null","html-keyboard-response","16","147694","0.0-9.0-3.1","DEJIFkxr5s","644ff5cdfdce8f493ccc6ca9","6617fad957f7c6a12ea16e26","6622cf21c230f86477d59bb6","feedback screen","null","","","","","","","","","","","",""
"","null","html-keyboard-response","17","148202","0.0-9.0-0.2","DEJIFkxr5s","644ff5cdfdce8f493ccc6ca9","6617fad957f7c6a12ea16e26","6622cf21c230f86477d59bb6","fixation cross","null","","","","","","","","","","","",""
"","1165","html-keyboard-response","18","149367","0.0-9.0-1.2","DEJIFkxr5s","644ff5cdfdce8f493ccc6ca9","6617fad957f7c6a12ea16e26","6622cf21c230f86477d59bb6","image grid","q","","","","","Ontogenetic_Distractor_Threat_target","2800","ongrid","q","8","Ontogenetic","true","practice"
"","null","html-keyboard-response","19","149526","0.0-9.0-2.2","DEJIFkxr5s","644ff5cdfdce8f493ccc6ca9","6617fad957f7c6a12ea16e26","6622cf21c230f86477d59bb6","
    <div id=""grid-container"">
        <!-- Grid items will be dynamically added here -->
    </div>    ","null","","","","","","","","","","","",""
"","null","html-keyboard-response","20","150728","0.0-9.0-3.2","DEJIFkxr5s","644ff5cdfdce8f493ccc6ca9","6617fad957f7c6a12ea16e26","6622cf21c230f86477d59bb6","feedback screen","null","","","","","","","","","","","",""
"","null","html-keyboard-response","21","151245","0.0-9.0-0.3","DEJIFkxr5s","644ff5cdfdce8f493ccc6ca9","6617fad957f7c6a12ea16e26","6622cf21c230f86477d59bb6","fixation cross","null","","","","","","","","","","","",""
"","1306","html-keyboard-response","22","152551","0.0-9.0-1.3","DEJIFkxr5s","644ff5cdfdce8f493ccc6ca9","6617fad957f7c6a12ea16e26","6622cf21c230f86477d59bb6","image grid","p","","","","","Ontogenetic_Distractor_Nonthreat_target","2700","ongrid","p","4","Ontogenetic","true","practice"
"","null","html-keyboard-response","23","152709","0.0-9.0-2.3","DEJIFkxr5s","644ff5cdfdce8f493ccc6ca9","6617fad957f7c6a12ea16e26","6622cf21c230f86477d59bb6","
    <div id=""grid-container"">
        <!-- Grid items will be dynamically added here -->
    </div>    ","null","","","","","","","","","","","",""
"","null","html-keyboard-response","24","153933","0.0-9.0-3.3","DEJIFkxr5s","644ff5cdfdce8f493ccc6ca9","6617fad957f7c6a12ea16e26","6622cf21c230f86477d59bb6","feedback screen","null","","","","","","","","","","","",""
"","null","html-keyboard-response","25","154450","0.0-9.0-0.4","DEJIFkxr5s","644ff5cdfdce8f493ccc6ca9","6617fad957f7c6a12ea16e26","6622cf21c230f86477d59bb6","fixation cross","null","","","","","","","","","","","",""
"","885","html-keyboard-response","26","155335","0.0-9.0-1.4","DEJIFkxr5s","644ff5cdfdce8f493ccc6ca9","6617fad957f7c6a12ea16e26","6622cf21c230f86477d59bb6","image grid","q","","","","","Ontogenetic_Distractor_Threat_target","2600","ongrid","q","4","Ontogenetic","true","practice"
"","null","html-keyboard-response","27","155491","0.0-9.0-2.4","DEJIFkxr5s","644ff5cdfdce8f493ccc6ca9","6617fad957f7c6a12ea16e26","6622cf21c230f86477d59bb6","
    <div id=""grid-container"">
        <!-- Grid items will be dynamically added here -->
    </div>    ","null","","","","","","","","","","","",""
"","null","html-keyboard-response","28","156709","0.0-9.0-3.4","DEJIFkxr5s","644ff5cdfdce8f493ccc6ca9","6617fad957f7c6a12ea16e26","6622cf21c230f86477d59bb6","feedback screen","null","","","","","","","","","","","",""
"","null","html-keyboard-response","29","157217","0.0-9.0-0.5","DEJIFkxr5s","644ff5cdfdce8f493ccc6ca9","6617fad957f7c6a12ea16e26","6622cf21c230f86477d59bb6","fixation cross","null","","","","","","","","","","","",""
"","902","html-keyboard-response","30","158119","0.0-9.0-1.5","DEJIFkxr5s","644ff5cdfdce8f493ccc6ca9","6617fad957f7c6a12ea16e26","6622cf21c230f86477d59bb6","image grid","p","","","","","Ontogenetic_Distractor_Nonthreat_target","2500","ongrid","p","4","Ontogenetic","true","practice"
"","null","html-keyboard-response","31","158272","0.0-9.0-2.5","DEJIFkxr5s","644ff5cdfdce8f493ccc6ca9","6617fad957f7c6a12ea16e26","6622cf21c230f86477d59bb6","
    <div id=""grid-container"">
        <!-- Grid items will be dynamically added here -->
    </div>    ","null","","","","","","","","","","","",""
"","null","html-keyboard-response","32","159490","0.0-9.0-3.5","DEJIFkxr5s","644ff5cdfdce8f493ccc6ca9","6617fad957f7c6a12ea16e26","6622cf21c230f86477d59bb6","feedback screen","null","","","","","","","","","","","",""
"","null","html-keyboard-response","33","160008","0.0-9.0-0.6","DEJIFkxr5s","644ff5cdfdce8f493ccc6ca9","6617fad957f7c6a12ea16e26","6622cf21c230f86477d59bb6","fixation cross","null","","","","","","","","","","","",""
"","1471","html-keyboard-response","34","161479","0.0-9.0-1.6","DEJIFkxr5s","644ff5cdfdce8f493ccc6ca9","6617fad957f7c6a12ea16e26","6622cf21c230f86477d59bb6","image grid"," ","","","","","Phylogenetic_Distractor_notarget","2400","ongrid"," ","7","Ontogenetic","true","practice"
"","null","html-keyboard-response","35","161646","0.0-9.0-2.6","DEJIFkxr5s","644ff5cdfdce8f493ccc6ca9","6617fad957f7c6a12ea16e26","6622cf21c230f86477d59bb6","
    <div id=""grid-container"">
        <!-- Grid items will be dynamically added here -->
    </div>    ","null","","","","","","","","","","","",""
"","null","html-keyboard-response","36","162864","0.0-9.0-3.6","DEJIFkxr5s","644ff5cdfdce8f493ccc6ca9","6617fad957f7c6a12ea16e26","6622cf21c230f86477d59bb6","feedback screen","null","","","","","","","","","","","",""
"","null","html-keyboard-response","37","163380","0.0-9.0-0.7","DEJIFkxr5s","644ff5cdfdce8f493ccc6ca9","6617fad957f7c6a12ea16e26","6622cf21c230f86477d59bb6","fixation cross","null","","","","","","","","","","","",""
"","1123","html-keyboard-response","38","164503","0.0-9.0-1.7","DEJIFkxr5s","644ff5cdfdce8f493ccc6ca9","6617fad957f7c6a12ea16e26","6622cf21c230f86477d59bb6","image grid","q","","","","","Ontogenetic_Distractor_Threat_target","2300","ongrid","q","1","Ontogenetic","true","practice"
"","null","html-keyboard-response","39","164661","0.0-9.0-2.7","DEJIFkxr5s","644ff5cdfdce8f493ccc6ca9","6617fad957f7c6a12ea16e26","6622cf21c230f86477d59bb6","
    <div id=""grid-container"">
        <!-- Grid items will be dynamically added here -->
    </div>    ","null","","","","","","","","","","","",""
"","null","html-keyboard-response","40","165892","0.0-9.0-3.7","DEJIFkxr5s","644ff5cdfdce8f493ccc6ca9","6617fad957f7c6a12ea16e26","6622cf21c230f86477d59bb6","feedback screen","null","","","","","","","","","","","",""
"","null","html-keyboard-response","41","166409","0.0-9.0-0.8","DEJIFkxr5s","644ff5cdfdce8f493ccc6ca9","6617fad957f7c6a12ea16e26","6622cf21c230f86477d59bb6","fixation cross","null","","","","","","","","","","","",""
"","1582","html-keyboard-response","42","167991","0.0-9.0-1.8","DEJIFkxr5s","644ff5cdfdce8f493ccc6ca9","6617fad957f7c6a12ea16e26","6622cf21c230f86477d59bb6","image grid","q","","","","","Phylogenetic_Distractor_Threat_target","2200","ongrid","q","8","Ontogenetic","true","practice"
"","null","html-keyboard-response","43","168147","0.0-9.0-2.8","DEJIFkxr5s","644ff5cdfdce8f493ccc6ca9","6617fad957f7c6a12ea16e26","6622cf21c230f86477d59bb6","
    <div id=""grid-container"">
        <!-- Grid items will be dynamically added here -->
    </div>    ","null","","","","","","","","","","","",""
"","null","html-keyboard-response","44","169361","0.0-9.0-3.8","DEJIFkxr5s","644ff5cdfdce8f493ccc6ca9","6617fad957f7c6a12ea16e26","6622cf21c230f86477d59bb6","feedback screen","null","","","","","","","","","","","",""
"","null","html-keyboard-response","45","169876","0.0-9.0-0.9","DEJIFkxr5s","644ff5cdfdce8f493ccc6ca9","6617fad957f7c6a12ea16e26","6622cf21c230f86477d59bb6","fixation cross","null","","","","","","","","","","","",""
"","867","html-keyboard-response","46","170743","0.0-9.0-1.9","DEJIFkxr5s","644ff5cdfdce8f493ccc6ca9","6617fad957f7c6a12ea16e26","6622cf21c230f86477d59bb6","image grid","p","","","","","Ontogenetic_Distractor_Nonthreat_target","2100","ongrid","p","5","Ontogenetic","true","practice"
"","null","html-keyboard-response","47","170899","0.0-9.0-2.9","DEJIFkxr5s","644ff5cdfdce8f493ccc6ca9","6617fad957f7c6a12ea16e26","6622cf21c230f86477d59bb6","
    <div id=""grid-container"">
        <!-- Grid items will be dynamically added here -->
    </div>    ","null","","","","","","","","","","","",""
"","null","html-keyboard-response","48","172102","0.0-9.0-3.9","DEJIFkxr5s","644ff5cdfdce8f493ccc6ca9","6617fad957f7c6a12ea16e26","6622cf21c230f86477d59bb6","feedback screen","null","","","","","","","","","","","",""
"","null","html-keyboard-response","49","172624","0.0-9.0-0.10","DEJIFkxr5s","644ff5cdfdce8f493ccc6ca9","6617fad957f7c6a12ea16e26","6622cf21c230f86477d59bb6","fixation cross","null","","","","","","","","","","","",""
"","1286","html-keyboard-response","50","173911","0.0-9.0-1.10","DEJIFkxr5s","644ff5cdfdce8f493ccc6ca9","6617fad957f7c6a12ea16e26","6622cf21c230f86477d59bb6","image grid"," ","","","","","Phylogenetic_Distractor_Threat_target","2000","ongrid","q","2","Ontogenetic","false","practice"
"","null","html-keyboard-response","51","174073","0.0-9.0-2.10","DEJIFkxr5s","644ff5cdfdce8f493ccc6ca9","6617fad957f7c6a12ea16e26","6622cf21c230f86477d59bb6","
    <div id=""grid-container"">
        <!-- Grid items will be dynamically added here -->
    </div>    ","null","","","","","","","","","","","",""
"","null","html-keyboard-response","52","175292","0.0-9.0-3.10","DEJIFkxr5s","644ff5cdfdce8f493ccc6ca9","6617fad957f7c6a12ea16e26","6622cf21c230f86477d59bb6","feedback screen","null","","","","","","","","","","","",""
"","null","html-keyboard-response","53","175808","0.0-9.0-0.11","DEJIFkxr5s","644ff5cdfdce8f493ccc6ca9","6617fad957f7c6a12ea16e26","6622cf21c230f86477d59bb6","fixation cross","null","","","","","","","","","","","",""
"","null","html-keyboard-response","54","177710","0.0-9.0-1.11","DEJIFkxr5s","644ff5cdfdce8f493ccc6ca9","6617fad957f7c6a12ea16e26","6622cf21c230f86477d59bb6","
        <div id=""grid-container"">
        <!-- Grid items will be dynamically added here -->
    </div>    ","null","","","","","","","","","","","",""
"","1957","html-keyboard-response","55","177767","0.0-9.0-2.11","DEJIFkxr5s","644ff5cdfdce8f493ccc6ca9","6617fad957f7c6a12ea16e26","6622cf21c230f86477d59bb6","mask grid","p","","","","","Phylogenetic_Distractor_Nonthreat_target","1900","onmask","p","5","Ontogenetic","true","practice"
"","null","html-keyboard-response","56","178999","0.0-9.0-3.11","DEJIFkxr5s","644ff5cdfdce8f493ccc6ca9","6617fad957f7c6a12ea16e26","6622cf21c230f86477d59bb6","feedback screen","null","","","","","","","","","","","",""
"","null","html-keyboard-response","57","179515","0.0-9.0-0.12","DEJIFkxr5s","644ff5cdfdce8f493ccc6ca9","6617fad957f7c6a12ea16e26","6622cf21c230f86477d59bb6","fixation cross","null","","","","","","","","","","","",""
"","1003","html-keyboard-response","58","180519","0.0-9.0-1.12","DEJIFkxr5s","644ff5cdfdce8f493ccc6ca9","6617fad957f7c6a12ea16e26","6622cf21c230f86477d59bb6","image grid","q","","","","","Ontogenetic_Distractor_Threat_target","1800","ongrid","q","6","Ontogenetic","true","practice"
"","null","html-keyboard-response","59","180670","0.0-9.0-2.12","DEJIFkxr5s","644ff5cdfdce8f493ccc6ca9","6617fad957f7c6a12ea16e26","6622cf21c230f86477d59bb6","
    <div id=""grid-container"">
        <!-- Grid items will be dynamically added here -->
    </div>    ","null","","","","","","","","","","","",""
"","null","html-keyboard-response","60","181897","0.0-9.0-3.12","DEJIFkxr5s","644ff5cdfdce8f493ccc6ca9","6617fad957f7c6a12ea16e26","6622cf21c230f86477d59bb6","feedback screen","null","","","","","","","","","","","",""
"","null","html-keyboard-response","61","182414","0.0-9.0-0.13","DEJIFkxr5s","644ff5cdfdce8f493ccc6ca9","6617fad957f7c6a12ea16e26","6622cf21c230f86477d59bb6","fixation cross","null","","","","","","","","","","","",""
"","1289","html-keyboard-response","62","183701","0.0-9.0-1.13","DEJIFkxr5s","644ff5cdfdce8f493ccc6ca9","6617fad957f7c6a12ea16e26","6622cf21c230f86477d59bb6","image grid","q","","","","","Phylogenetic_Distractor_Nonthreat_target","1700","ongrid","p","2","Ontogenetic","false","practice"
"","null","html-keyboard-response","63","183856","0.0-9.0-2.13","DEJIFkxr5s","644ff5cdfdce8f493ccc6ca9","6617fad957f7c6a12ea16e26","6622cf21c230f86477d59bb6","
    <div id=""grid-container"">
        <!-- Grid items will be dynamically added here -->
    </div>    ","null","","","","","","","","","","","",""
"","null","html-keyboard-response","64","185074","0.0-9.0-3.13","DEJIFkxr5s","644ff5cdfdce8f493ccc6ca9","6617fad957f7c6a12ea16e26","6622cf21c230f86477d59bb6","feedback screen","null","","","","","","","","","","","",""
"","81","html-keyboard-response","65","185590","0.0-9.0-0.14","DEJIFkxr5s","644ff5cdfdce8f493ccc6ca9","6617fad957f7c6a12ea16e26","6622cf21c230f86477d59bb6","fixation cross","p","","","","","","","","","","","",""
"","1503","html-keyboard-response","66","187093","0.0-9.0-1.14","DEJIFkxr5s","644ff5cdfdce8f493ccc6ca9","6617fad957f7c6a12ea16e26","6622cf21c230f86477d59bb6","image grid","p","","","","","Ontogenetic_Distractor_Nonthreat_target","1600","ongrid","p","3","Ontogenetic","true","practice"
"","null","html-keyboard-response","67","187246","0.0-9.0-2.14","DEJIFkxr5s","644ff5cdfdce8f493ccc6ca9","6617fad957f7c6a12ea16e26","6622cf21c230f86477d59bb6","
    <div id=""grid-container"">
        <!-- Grid items will be dynamically added here -->
    </div>    ","null","","","","","","","","","","","",""
"","null","html-keyboard-response","68","188474","0.0-9.0-3.14","DEJIFkxr5s","644ff5cdfdce8f493ccc6ca9","6617fad957f7c6a12ea16e26","6622cf21c230f86477d59bb6","feedback screen","null","","","","","","","","","","","",""
"","null","html-keyboard-response","69","188980","0.0-9.0-0.15","DEJIFkxr5s","644ff5cdfdce8f493ccc6ca9","6617fad957f7c6a12ea16e26","6622cf21c230f86477d59bb6","fixation cross","null","","","","","","","","","","","",""
"","null","html-keyboard-response","70","190483","0.0-9.0-1.15","DEJIFkxr5s","644ff5cdfdce8f493ccc6ca9","6617fad957f7c6a12ea16e26","6622cf21c230f86477d59bb6","
        <div id=""grid-container"">
        <!-- Grid items will be dynamically added here -->
    </div>    ","null","","","","","","","","","","","",""
"","2062","html-keyboard-response","71","191046","0.0-9.0-2.15","DEJIFkxr5s","644ff5cdfdce8f493ccc6ca9","6617fad957f7c6a12ea16e26","6622cf21c230f86477d59bb6","mask grid","p","","","","","Phylogenetic_Distractor_Threat_target","1500","onmask","q","1","Ontogenetic","false","practice"
"","null","html-keyboard-response","72","192270","0.0-9.0-3.15","DEJIFkxr5s","644ff5cdfdce8f493ccc6ca9","6617fad957f7c6a12ea16e26","6622cf21c230f86477d59bb6","feedback screen","null","","","","","","","","","","","",""
"","null","html-keyboard-response","73","192779","0.0-9.0-0.16","DEJIFkxr5s","644ff5cdfdce8f493ccc6ca9","6617fad957f7c6a12ea16e26","6622cf21c230f86477d59bb6","fixation cross","null","","","","","","","","","","","",""
"","null","html-keyboard-response","74","194181","0.0-9.0-1.16","DEJIFkxr5s","644ff5cdfdce8f493ccc6ca9","6617fad957f7c6a12ea16e26","6622cf21c230f86477d59bb6","
        <div id=""grid-container"">
        <!-- Grid items will be dynamically added here -->
    </div>    ","null","","","","","","","","","","","",""
"","1671","html-keyboard-response","75","194453","0.0-9.0-2.16","DEJIFkxr5s","644ff5cdfdce8f493ccc6ca9","6617fad957f7c6a12ea16e26","6622cf21c230f86477d59bb6","mask grid","q","","","","","Ontogenetic_Distractor_notarget","1400","onmask"," ","1","Ontogenetic","false","practice"
"","null","html-keyboard-response","76","195664","0.0-9.0-3.16","DEJIFkxr5s","644ff5cdfdce8f493ccc6ca9","6617fad957f7c6a12ea16e26","6622cf21c230f86477d59bb6","feedback screen","null","","","","","","","","","","","",""
"","null","html-keyboard-response","77","196181","0.0-9.0-0.17","DEJIFkxr5s","644ff5cdfdce8f493ccc6ca9","6617fad957f7c6a12ea16e26","6622cf21c230f86477d59bb6","fixation cross","null","","","","","","","","","","","",""
"","null","html-keyboard-response","78","197497","0.0-9.0-1.17","DEJIFkxr5s","644ff5cdfdce8f493ccc6ca9","6617fad957f7c6a12ea16e26","6622cf21c230f86477d59bb6","
        <div id=""grid-container"">
        <!-- Grid items will be dynamically added here -->
    </div>    ","null","","","","","","","","","","","",""
"","2816","html-keyboard-response","79","199013","0.0-9.0-2.17","DEJIFkxr5s","644ff5cdfdce8f493ccc6ca9","6617fad957f7c6a12ea16e26","6622cf21c230f86477d59bb6","mask grid","p","","","","","Phylogenetic_Distractor_notarget","1300","onmask"," ","3","Ontogenetic","false","practice"
"","null","html-keyboard-response","80","200224","0.0-9.0-3.17","DEJIFkxr5s","644ff5cdfdce8f493ccc6ca9","6617fad957f7c6a12ea16e26","6622cf21c230f86477d59bb6","feedback screen","null","","","","","","","","","","","",""
"","null","html-keyboard-response","81","200739","0.0-9.0-0.18","DEJIFkxr5s","644ff5cdfdce8f493ccc6ca9","6617fad957f7c6a12ea16e26","6622cf21c230f86477d59bb6","fixation cross","null","","","","","","","","","","","",""
"","null","html-keyboard-response","82","201942","0.0-9.0-1.18","DEJIFkxr5s","644ff5cdfdce8f493ccc6ca9","6617fad957f7c6a12ea16e26","6622cf21c230f86477d59bb6","
        <div id=""grid-container"">
        <!-- Grid items will be dynamically added here -->
    </div>    ","null","","","","","","","","","","","",""
"","1855","html-keyboard-response","83","202598","0.0-9.0-2.18","DEJIFkxr5s","644ff5cdfdce8f493ccc6ca9","6617fad957f7c6a12ea16e26","6622cf21c230f86477d59bb6","mask grid","p","","","","","Ontogenetic_Distractor_notarget","1200","onmask"," ","7","Ontogenetic","false","practice"
"","643","html-keyboard-response","84","203445","0.0-9.0-3.18","DEJIFkxr5s","644ff5cdfdce8f493ccc6ca9","6617fad957f7c6a12ea16e26","6622cf21c230f86477d59bb6","feedback screen"," ","","","","","","","","","","","",""
"","null","html-keyboard-response","85","203959","0.0-9.0-0.19","DEJIFkxr5s","644ff5cdfdce8f493ccc6ca9","6617fad957f7c6a12ea16e26","6622cf21c230f86477d59bb6","fixation cross","null","","","","","","","","","","","",""
"","null","html-keyboard-response","86","205063","0.0-9.0-1.19","DEJIFkxr5s","644ff5cdfdce8f493ccc6ca9","6617fad957f7c6a12ea16e26","6622cf21c230f86477d59bb6","
        <div id=""grid-container"">
        <!-- Grid items will be dynamically added here -->
    </div>    ","null","","","","","","","","","","","",""
"","1802","html-keyboard-response","87","205765","0.0-9.0-2.19","DEJIFkxr5s","644ff5cdfdce8f493ccc6ca9","6617fad957f7c6a12ea16e26","6622cf21c230f86477d59bb6","mask grid","q","","","","","Phylogenetic_Distractor_Threat_target","1100","onmask","q","3","Ontogenetic","true","practice"
"","null","html-keyboard-response","88","206981","0.0-9.0-3.19","DEJIFkxr5s","644ff5cdfdce8f493ccc6ca9","6617fad957f7c6a12ea16e26","6622cf21c230f86477d59bb6","feedback screen","null","","","","","","","","","","","",""
"","30533","html-keyboard-response","89","237542","0.0-10.0","DEJIFkxr5s","644ff5cdfdce8f493ccc6ca9","6617fad957f7c6a12ea16e26","6622cf21c230f86477d59bb6","pre-experimental_briefing","p","","","","","","","","","","","",""
"","null","html-keyboard-response","90","240082","0.0-11.0-0.0","DEJIFkxr5s","644ff5cdfdce8f493ccc6ca9","6617fad957f7c6a12ea16e26","6622cf21c230f86477d59bb6","fixation cross","null","","","","","","","","","","","",""
"","1218","html-keyboard-response","91","241301","0.0-11.0-1.0","DEJIFkxr5s","644ff5cdfdce8f493ccc6ca9","6617fad957f7c6a12ea16e26","6622cf21c230f86477d59bb6","image grid","q","","","","","Ontogenetic_Distractor_Threat_target","2500","ongrid","q","4","Ontogenetic","true","experimental"
"","null","html-keyboard-response","92","241465","0.0-11.0-2.0","DEJIFkxr5s","644ff5cdfdce8f493ccc6ca9","6617fad957f7c6a12ea16e26","6622cf21c230f86477d59bb6","
    <div id=""grid-container"">
        <!-- Grid items will be dynamically added here -->
    </div>    ","null","","","","","","","","","","","",""
"","null","html-keyboard-response","93","242183","0.0-11.0-0.1","DEJIFkxr5s","644ff5cdfdce8f493ccc6ca9","6617fad957f7c6a12ea16e26","6622cf21c230f86477d59bb6","fixation cross","null","","","","","","","","","","","",""
"","1166","html-keyboard-response","94","243349","0.0-11.0-1.1","DEJIFkxr5s","644ff5cdfdce8f493ccc6ca9","6617fad957f7c6a12ea16e26","6622cf21c230f86477d59bb6","image grid","p","","","","","Ontogenetic_Distractor_Nonthreat_target","2500","ongrid","p","7","Ontogenetic","true","experimental"
"","null","html-keyboard-response","95","243505","0.0-11.0-2.1","DEJIFkxr5s","644ff5cdfdce8f493ccc6ca9","6617fad957f7c6a12ea16e26","6622cf21c230f86477d59bb6","
    <div id=""grid-container"">
        <!-- Grid items will be dynamically added here -->
    </div>    ","null","","","","","","","","","","","",""
"","null","html-keyboard-response","96","244220","0.0-11.0-0.2","DEJIFkxr5s","644ff5cdfdce8f493ccc6ca9","6617fad957f7c6a12ea16e26","6622cf21c230f86477d59bb6","fixation cross","null","","","","","","","","","","","",""
"","1510","html-keyboard-response","97","245731","0.0-11.0-1.2","DEJIFkxr5s","644ff5cdfdce8f493ccc6ca9","6617fad957f7c6a12ea16e26","6622cf21c230f86477d59bb6","image grid","p","","","","","Ontogenetic_Distractor_Threat_target","2500","ongrid","q","2","Ontogenetic","false","experimental"
"","null","html-keyboard-response","98","245894","0.0-11.0-2.2","DEJIFkxr5s","644ff5cdfdce8f493ccc6ca9","6617fad957f7c6a12ea16e26","6622cf21c230f86477d59bb6","
    <div id=""grid-container"">
        <!-- Grid items will be dynamically added here -->
    </div>    ","null","","","","","","","","","","","",""
"","null","html-keyboard-response","99","246622","0.0-11.0-0.3","DEJIFkxr5s","644ff5cdfdce8f493ccc6ca9","6617fad957f7c6a12ea16e26","6622cf21c230f86477d59bb6","fixation cross","null","","","","","","","","","","","",""
"","1157","html-keyboard-response","100","247780","0.0-11.0-1.3","DEJIFkxr5s","644ff5cdfdce8f493ccc6ca9","6617fad957f7c6a12ea16e26","6622cf21c230f86477d59bb6","image grid","q","","","","","Ontogenetic_Distractor_Threat_target","2500","ongrid","q","3","Ontogenetic","true","experimental"
"","null","html-keyboard-response","101","247940","0.0-11.0-2.3","DEJIFkxr5s","644ff5cdfdce8f493ccc6ca9","6617fad957f7c6a12ea16e26","6622cf21c230f86477d59bb6","
    <div id=""grid-container"">
        <!-- Grid items will be dynamically added here -->
    </div>    ","null","","","","","","","","","","","",""
"","null","html-keyboard-response","102","248656","0.0-11.0-0.4","DEJIFkxr5s","644ff5cdfdce8f493ccc6ca9","6617fad957f7c6a12ea16e26","6622cf21c230f86477d59bb6","fixation cross","null","","","","","","","","","","","",""
"","1091","html-keyboard-response","103","249747","0.0-11.0-1.4","DEJIFkxr5s","644ff5cdfdce8f493ccc6ca9","6617fad957f7c6a12ea16e26","6622cf21c230f86477d59bb6","image grid","q","","","","","Ontogenetic_Distractor_Threat_target","2500","ongrid","q","7","Ontogenetic","true","experimental"
"","null","html-keyboard-response","104","249905","0.0-11.0-2.4","DEJIFkxr5s","644ff5cdfdce8f493ccc6ca9","6617fad957f7c6a12ea16e26","6622cf21c230f86477d59bb6","
    <div id=""grid-container"">
        <!-- Grid items will be dynamically added here -->
    </div>    ","null","","","","","","","","","","","",""
"","null","html-keyboard-response","105","250628","0.0-11.0-0.5","DEJIFkxr5s","644ff5cdfdce8f493ccc6ca9","6617fad957f7c6a12ea16e26","6622cf21c230f86477d59bb6","fixation cross","null","","","","","","","","","","","",""
"","1423","html-keyboard-response","106","252051","0.0-11.0-1.5","DEJIFkxr5s","644ff5cdfdce8f493ccc6ca9","6617fad957f7c6a12ea16e26","6622cf21c230f86477d59bb6","image grid","q","","","","","Ontogenetic_Distractor_Threat_target","2500","ongrid","q","3","Ontogenetic","true","experimental"
"","null","html-keyboard-response","107","252207","0.0-11.0-2.5","DEJIFkxr5s","644ff5cdfdce8f493ccc6ca9","6617fad957f7c6a12ea16e26","6622cf21c230f86477d59bb6","
    <div id=""grid-container"">
        <!-- Grid items will be dynamically added here -->
    </div>    ","null","","","","","","","","","","","",""
"","null","html-keyboard-response","108","252958","0.0-11.0-0.6","DEJIFkxr5s","644ff5cdfdce8f493ccc6ca9","6617fad957f7c6a12ea16e26","6622cf21c230f86477d59bb6","fixation cross","null","","","","","","","","","","","",""
"","1061","html-keyboard-response","109","254019","0.0-11.0-1.6","DEJIFkxr5s","644ff5cdfdce8f493ccc6ca9","6617fad957f7c6a12ea16e26","6622cf21c230f86477d59bb6","image grid","q","","","","","Ontogenetic_Distractor_Threat_target","2500","ongrid","q","8","Ontogenetic","true","experimental"
"","null","html-keyboard-response","110","254179","0.0-11.0-2.6","DEJIFkxr5s","644ff5cdfdce8f493ccc6ca9","6617fad957f7c6a12ea16e26","6622cf21c230f86477d59bb6","
    <div id=""grid-container"">
        <!-- Grid items will be dynamically added here -->
    </div>    ","null","","","","","","","","","","","",""
"","null","html-keyboard-response","111","254909","0.0-11.0-0.7","DEJIFkxr5s","644ff5cdfdce8f493ccc6ca9","6617fad957f7c6a12ea16e26","6622cf21c230f86477d59bb6","fixation cross","null","","","","","","","","","","","",""
"","901","html-keyboard-response","112","255811","0.0-11.0-1.7","DEJIFkxr5s","644ff5cdfdce8f493ccc6ca9","6617fad957f7c6a12ea16e26","6622cf21c230f86477d59bb6","image grid","p","","","","","Ontogenetic_Distractor_Nonthreat_target","2500","ongrid","p","1","Ontogenetic","true","experimental"
"","null","html-keyboard-response","113","255966","0.0-11.0-2.7","DEJIFkxr5s","644ff5cdfdce8f493ccc6ca9","6617fad957f7c6a12ea16e26","6622cf21c230f86477d59bb6","
    <div id=""grid-container"">
        <!-- Grid items will be dynamically added here -->
    </div>    ","null","","","","","","","","","","","",""
"","null","html-keyboard-response","114","256682","0.0-11.0-0.8","DEJIFkxr5s","644ff5cdfdce8f493ccc6ca9","6617fad957f7c6a12ea16e26","6622cf21c230f86477d59bb6","fixation cross","null","","","","","","","","","","","",""
"","1193","html-keyboard-response","115","257876","0.0-11.0-1.8","DEJIFkxr5s","644ff5cdfdce8f493ccc6ca9","6617fad957f7c6a12ea16e26","6622cf21c230f86477d59bb6","image grid","q","","","","","Ontogenetic_Distractor_Threat_target","2500","ongrid","q","2","Ontogenetic","true","experimental"
"","null","html-keyboard-response","116","258049","0.0-11.0-2.8","DEJIFkxr5s","644ff5cdfdce8f493ccc6ca9","6617fad957f7c6a12ea16e26","6622cf21c230f86477d59bb6","
    <div id=""grid-container"">
        <!-- Grid items will be dynamically added here -->
    </div>    ","null","","","","","","","","","","","",""
"","null","html-keyboard-response","117","258750","0.0-11.0-0.9","DEJIFkxr5s","644ff5cdfdce8f493ccc6ca9","6617fad957f7c6a12ea16e26","6622cf21c230f86477d59bb6","fixation cross","null","","","","","","","","","","","",""
"","1860","html-keyboard-response","118","260611","0.0-11.0-1.9","DEJIFkxr5s","644ff5cdfdce8f493ccc6ca9","6617fad957f7c6a12ea16e26","6622cf21c230f86477d59bb6","image grid","p","","","","","Ontogenetic_Distractor_Nonthreat_target","2500","ongrid","p","4","Ontogenetic","true","experimental"
"","null","html-keyboard-response","119","260770","0.0-11.0-2.9","DEJIFkxr5s","644ff5cdfdce8f493ccc6ca9","6617fad957f7c6a12ea16e26","6622cf21c230f86477d59bb6","
    <div id=""grid-container"">
        <!-- Grid items will be dynamically added here -->
    </div>    ","null","","","","","","","","","","","",""
"","null","html-keyboard-response","120","261485","0.0-11.0-0.10","DEJIFkxr5s","644ff5cdfdce8f493ccc6ca9","6617fad957f7c6a12ea16e26","6622cf21c230f86477d59bb6","fixation cross","null","","","","","","","","","","","",""
"","1173","html-keyboard-response","121","262659","0.0-11.0-1.10","DEJIFkxr5s","644ff5cdfdce8f493ccc6ca9","6617fad957f7c6a12ea16e26","6622cf21c230f86477d59bb6","image grid","p","","","","","Ontogenetic_Distractor_Nonthreat_target","2500","ongrid","p","3","Ontogenetic","true","experimental"
"","null","html-keyboard-response","122","262816","0.0-11.0-2.10","DEJIFkxr5s","644ff5cdfdce8f493ccc6ca9","6617fad957f7c6a12ea16e26","6622cf21c230f86477d59bb6","
    <div id=""grid-container"">
        <!-- Grid items will be dynamically added here -->
    </div>    ","null","","","","","","","","","","","",""
"","null","html-keyboard-response","123","263534","0.0-11.0-0.11","DEJIFkxr5s","644ff5cdfdce8f493ccc6ca9","6617fad957f7c6a12ea16e26","6622cf21c230f86477d59bb6","fixation cross","null","","","","","","","","","","","",""
"","1893","html-keyboard-response","124","265427","0.0-11.0-1.11","DEJIFkxr5s","644ff5cdfdce8f493ccc6ca9","6617fad957f7c6a12ea16e26","6622cf21c230f86477d59bb6","image grid"," ","","","","","Ontogenetic_Distractor_Nonthreat_target","2500","ongrid","p","9","Ontogenetic","false","experimental"
"","null","html-keyboard-response","125","265591","0.0-11.0-2.11","DEJIFkxr5s","644ff5cdfdce8f493ccc6ca9","6617fad957f7c6a12ea16e26","6622cf21c230f86477d59bb6","
    <div id=""grid-container"">
        <!-- Grid items will be dynamically added here -->
    </div>    ","null","","","","","","","","","","","",""
"","null","html-keyboard-response","126","266294","0.0-11.0-0.12","DEJIFkxr5s","644ff5cdfdce8f493ccc6ca9","6617fad957f7c6a12ea16e26","6622cf21c230f86477d59bb6","fixation cross","null","","","","","","","","","","","",""
"","1373","html-keyboard-response","127","267667","0.0-11.0-1.12","DEJIFkxr5s","644ff5cdfdce8f493ccc6ca9","6617fad957f7c6a12ea16e26","6622cf21c230f86477d59bb6","image grid","q","","","","","Ontogenetic_Distractor_Threat_target","2500","ongrid","q","9","Ontogenetic","true","experimental"
"","null","html-keyboard-response","128","267832","0.0-11.0-2.12","DEJIFkxr5s","644ff5cdfdce8f493ccc6ca9","6617fad957f7c6a12ea16e26","6622cf21c230f86477d59bb6","
    <div id=""grid-container"">
        <!-- Grid items will be dynamically added here -->
    </div>    ","null","","","","","","","","","","","",""
"","null","html-keyboard-response","129","268552","0.0-11.0-0.13","DEJIFkxr5s","644ff5cdfdce8f493ccc6ca9","6617fad957f7c6a12ea16e26","6622cf21c230f86477d59bb6","fixation cross","null","","","","","","","","","","","",""
"","971","html-keyboard-response","130","269524","0.0-11.0-1.13","DEJIFkxr5s","644ff5cdfdce8f493ccc6ca9","6617fad957f7c6a12ea16e26","6622cf21c230f86477d59bb6","image grid","q","","","","","Ontogenetic_Distractor_Threat_target","2500","ongrid","q","1","Ontogenetic","true","experimental"
"","null","html-keyboard-response","131","269683","0.0-11.0-2.13","DEJIFkxr5s","644ff5cdfdce8f493ccc6ca9","6617fad957f7c6a12ea16e26","6622cf21c230f86477d59bb6","
    <div id=""grid-container"">
        <!-- Grid items will be dynamically added here -->
    </div>    ","null","","","","","","","","","","","",""
"","null","html-keyboard-response","132","270387","0.0-11.0-0.14","DEJIFkxr5s","644ff5cdfdce8f493ccc6ca9","6617fad957f7c6a12ea16e26","6622cf21c230f86477d59bb6","fixation cross","null","","","","","","","","","","","",""
"","1408","html-keyboard-response","133","271795","0.0-11.0-1.14","DEJIFkxr5s","644ff5cdfdce8f493ccc6ca9","6617fad957f7c6a12ea16e26","6622cf21c230f86477d59bb6","image grid","p","","","","","Ontogenetic_Distractor_Nonthreat_target","2500","ongrid","p","7","Ontogenetic","true","experimental"
"","null","html-keyboard-response","134","271957","0.0-11.0-2.14","DEJIFkxr5s","644ff5cdfdce8f493ccc6ca9","6617fad957f7c6a12ea16e26","6622cf21c230f86477d59bb6","
    <div id=""grid-container"">
        <!-- Grid items will be dynamically added here -->
    </div>    ","null","","","","","","","","","","","",""
"","null","html-keyboard-response","135","272660","0.0-11.0-0.15","DEJIFkxr5s","644ff5cdfdce8f493ccc6ca9","6617fad957f7c6a12ea16e26","6622cf21c230f86477d59bb6","fixation cross","null","","","","","","","","","","","",""
"","991","html-keyboard-response","136","273651","0.0-11.0-1.15","DEJIFkxr5s","644ff5cdfdce8f493ccc6ca9","6617fad957f7c6a12ea16e26","6622cf21c230f86477d59bb6","image grid","q","","","","","Ontogenetic_Distractor_Threat_target","2500","ongrid","q","9","Ontogenetic","true","experimental"
"","null","html-keyboard-response","137","273811","0.0-11.0-2.15","DEJIFkxr5s","644ff5cdfdce8f493ccc6ca9","6617fad957f7c6a12ea16e26","6622cf21c230f86477d59bb6","
    <div id=""grid-container"">
        <!-- Grid items will be dynamically added here -->
    </div>    ","null","","","","","","","","","","","",""
"","null","html-keyboard-response","138","274515","0.0-11.0-0.16","DEJIFkxr5s","644ff5cdfdce8f493ccc6ca9","6617fad957f7c6a12ea16e26","6622cf21c230f86477d59bb6","fixation cross","null","","","","","","","","","","","",""
"","1328","html-keyboard-response","139","275843","0.0-11.0-1.16","DEJIFkxr5s","644ff5cdfdce8f493ccc6ca9","6617fad957f7c6a12ea16e26","6622cf21c230f86477d59bb6","image grid","p","","","","","Ontogenetic_Distractor_Nonthreat_target","2500","ongrid","p","7","Ontogenetic","true","experimental"
"","null","html-keyboard-response","140","276002","0.0-11.0-2.16","DEJIFkxr5s","644ff5cdfdce8f493ccc6ca9","6617fad957f7c6a12ea16e26","6622cf21c230f86477d59bb6","
    <div id=""grid-container"">
        <!-- Grid items will be dynamically added here -->
    </div>    ","null","","","","","","","","","","","",""
"","null","html-keyboard-response","141","276718","0.0-11.0-0.17","DEJIFkxr5s","644ff5cdfdce8f493ccc6ca9","6617fad957f7c6a12ea16e26","6622cf21c230f86477d59bb6","fixation cross","null","","","","","","","","","","","",""
"","996","html-keyboard-response","142","277715","0.0-11.0-1.17","DEJIFkxr5s","644ff5cdfdce8f493ccc6ca9","6617fad957f7c6a12ea16e26","6622cf21c230f86477d59bb6","image grid","p","","","","","Ontogenetic_Distractor_Nonthreat_target","2500","ongrid","p","4","Ontogenetic","true","experimental"
"","null","html-keyboard-response","143","277889","0.0-11.0-2.17","DEJIFkxr5s","644ff5cdfdce8f493ccc6ca9","6617fad957f7c6a12ea16e26","6622cf21c230f86477d59bb6","
    <div id=""grid-container"">
        <!-- Grid items will be dynamically added here -->
    </div>    ","null","","","","","","","","","","","",""
"","null","html-keyboard-response","144","278621","0.0-11.0-0.18","DEJIFkxr5s","644ff5cdfdce8f493ccc6ca9","6617fad957f7c6a12ea16e26","6622cf21c230f86477d59bb6","fixation cross","null","","","","","","","","","","","",""
"","1766","html-keyboard-response","145","280387","0.0-11.0-1.18","DEJIFkxr5s","644ff5cdfdce8f493ccc6ca9","6617fad957f7c6a12ea16e26","6622cf21c230f86477d59bb6","image grid"," ","","","","","Ontogenetic_Distractor_notarget","2500","ongrid"," ","9","Ontogenetic","true","experimental"
"","null","html-keyboard-response","146","280550","0.0-11.0-2.18","DEJIFkxr5s","644ff5cdfdce8f493ccc6ca9","6617fad957f7c6a12ea16e26","6622cf21c230f86477d59bb6","
    <div id=""grid-container"">
        <!-- Grid items will be dynamically added here -->
    </div>    ","null","","","","","","","","","","","",""
"","null","html-keyboard-response","147","281269","0.0-11.0-0.19","DEJIFkxr5s","644ff5cdfdce8f493ccc6ca9","6617fad957f7c6a12ea16e26","6622cf21c230f86477d59bb6","fixation cross","null","","","","","","","","","","","",""
"","1005","html-keyboard-response","148","282275","0.0-11.0-1.19","DEJIFkxr5s","644ff5cdfdce8f493ccc6ca9","6617fad957f7c6a12ea16e26","6622cf21c230f86477d59bb6","image grid","q","","","","","Ontogenetic_Distractor_Threat_target","2500","ongrid","q","3","Ontogenetic","true","experimental"
"","null","html-keyboard-response","149","282428","0.0-11.0-2.19","DEJIFkxr5s","644ff5cdfdce8f493ccc6ca9","6617fad957f7c6a12ea16e26","6622cf21c230f86477d59bb6","
    <div id=""grid-container"">
        <!-- Grid items will be dynamically added here -->
    </div>    ","null","","","","","","","","","","","",""
"","null","html-keyboard-response","150","283144","0.0-11.0-0.20","DEJIFkxr5s","644ff5cdfdce8f493ccc6ca9","6617fad957f7c6a12ea16e26","6622cf21c230f86477d59bb6","fixation cross","null","","","","","","","","","","","",""
"","1243","html-keyboard-response","151","284387","0.0-11.0-1.20","DEJIFkxr5s","644ff5cdfdce8f493ccc6ca9","6617fad957f7c6a12ea16e26","6622cf21c230f86477d59bb6","image grid","q","","","","","Ontogenetic_Distractor_Threat_target","2500","ongrid","q","4","Ontogenetic","true","experimental"
"","null","html-keyboard-response","152","284548","0.0-11.0-2.20","DEJIFkxr5s","644ff5cdfdce8f493ccc6ca9","6617fad957f7c6a12ea16e26","6622cf21c230f86477d59bb6","
    <div id=""grid-container"">
        <!-- Grid items will be dynamically added here -->
    </div>    ","null","","","","","","","","","","","",""
"","null","html-keyboard-response","153","285281","0.0-11.0-0.21","DEJIFkxr5s","644ff5cdfdce8f493ccc6ca9","6617fad957f7c6a12ea16e26","6622cf21c230f86477d59bb6","fixation cross","null","","","","","","","","","","","",""
"","994","html-keyboard-response","154","286275","0.0-11.0-1.21","DEJIFkxr5s","644ff5cdfdce8f493ccc6ca9","6617fad957f7c6a12ea16e26","6622cf21c230f86477d59bb6","image grid","q","","","","","Ontogenetic_Distractor_Threat_target","2500","ongrid","q","1","Ontogenetic","true","experimental"
"","null","html-keyboard-response","155","286434","0.0-11.0-2.21","DEJIFkxr5s","644ff5cdfdce8f493ccc6ca9","6617fad957f7c6a12ea16e26","6622cf21c230f86477d59bb6","
    <div id=""grid-container"">
        <!-- Grid items will be dynamically added here -->
    </div>    ","null","","","","","","","","","","","",""
"","null","html-keyboard-response","156","287151","0.0-11.0-0.22","DEJIFkxr5s","644ff5cdfdce8f493ccc6ca9","6617fad957f7c6a12ea16e26","6622cf21c230f86477d59bb6","fixation cross","null","","","","","","","","","","","",""
"","884","html-keyboard-response","157","288035","0.0-11.0-1.22","DEJIFkxr5s","644ff5cdfdce8f493ccc6ca9","6617fad957f7c6a12ea16e26","6622cf21c230f86477d59bb6","image grid","q","","","","","Ontogenetic_Distractor_Threat_target","2500","ongrid","q","1","Ontogenetic","true","experimental"
"","null","html-keyboard-response","158","288205","0.0-11.0-2.22","DEJIFkxr5s","644ff5cdfdce8f493ccc6ca9","6617fad957f7c6a12ea16e26","6622cf21c230f86477d59bb6","
    <div id=""grid-container"">
        <!-- Grid items will be dynamically added here -->
    </div>    ","null","","","","","","","","","","","",""
"","null","html-keyboard-response","159","288926","0.0-11.0-0.23","DEJIFkxr5s","644ff5cdfdce8f493ccc6ca9","6617fad957f7c6a12ea16e26","6622cf21c230f86477d59bb6","fixation cross","null","","","","","","","","","","","",""
"","869","html-keyboard-response","160","289795","0.0-11.0-1.23","DEJIFkxr5s","644ff5cdfdce8f493ccc6ca9","6617fad957f7c6a12ea16e26","6622cf21c230f86477d59bb6","image grid","q","","","","","Ontogenetic_Distractor_Threat_target","2500","ongrid","q","9","Ontogenetic","true","experimental"
"","null","html-keyboard-response","161","289955","0.0-11.0-2.23","DEJIFkxr5s","644ff5cdfdce8f493ccc6ca9","6617fad957f7c6a12ea16e26","6622cf21c230f86477d59bb6","
    <div id=""grid-container"">
        <!-- Grid items will be dynamically added here -->
    </div>    ","null","","","","","","","","","","","",""
"","null","html-keyboard-response","162","290675","0.0-11.0-0.24","DEJIFkxr5s","644ff5cdfdce8f493ccc6ca9","6617fad957f7c6a12ea16e26","6622cf21c230f86477d59bb6","fixation cross","null","","","","","","","","","","","",""
"","1072","html-keyboard-response","163","291747","0.0-11.0-1.24","DEJIFkxr5s","644ff5cdfdce8f493ccc6ca9","6617fad957f7c6a12ea16e26","6622cf21c230f86477d59bb6","image grid","p","","","","","Ontogenetic_Distractor_Nonthreat_target","2500","ongrid","p","2","Ontogenetic","true","experimental"
"","null","html-keyboard-response","164","291910","0.0-11.0-2.24","DEJIFkxr5s","644ff5cdfdce8f493ccc6ca9","6617fad957f7c6a12ea16e26","6622cf21c230f86477d59bb6","
    <div id=""grid-container"">
        <!-- Grid items will be dynamically added here -->
    </div>    ","null","","","","","","","","","","","",""
"","null","html-keyboard-response","165","292627","0.0-11.0-0.25","DEJIFkxr5s","644ff5cdfdce8f493ccc6ca9","6617fad957f7c6a12ea16e26","6622cf21c230f86477d59bb6","fixation cross","null","","","","","","","","","","","",""
"","1264","html-keyboard-response","166","293891","0.0-11.0-1.25","DEJIFkxr5s","644ff5cdfdce8f493ccc6ca9","6617fad957f7c6a12ea16e26","6622cf21c230f86477d59bb6","image grid","p","","","","","Ontogenetic_Distractor_Nonthreat_target","2500","ongrid","p","8","Ontogenetic","true","experimental"
"","null","html-keyboard-response","167","294044","0.0-11.0-2.25","DEJIFkxr5s","644ff5cdfdce8f493ccc6ca9","6617fad957f7c6a12ea16e26","6622cf21c230f86477d59bb6","
    <div id=""grid-container"">
        <!-- Grid items will be dynamically added here -->
    </div>    ","null","","","","","","","","","","","",""
"","null","html-keyboard-response","168","294769","0.0-11.0-0.26","DEJIFkxr5s","644ff5cdfdce8f493ccc6ca9","6617fad957f7c6a12ea16e26","6622cf21c230f86477d59bb6","fixation cross","null","","","","","","","","","","","",""
"","1282","html-keyboard-response","169","296051","0.0-11.0-1.26","DEJIFkxr5s","644ff5cdfdce8f493ccc6ca9","6617fad957f7c6a12ea16e26","6622cf21c230f86477d59bb6","image grid","p","","","","","Ontogenetic_Distractor_Nonthreat_target","2500","ongrid","p","9","Ontogenetic","true","experimental"
"","null","html-keyboard-response","170","296211","0.0-11.0-2.26","DEJIFkxr5s","644ff5cdfdce8f493ccc6ca9","6617fad957f7c6a12ea16e26","6622cf21c230f86477d59bb6","
    <div id=""grid-container"">
        <!-- Grid items will be dynamically added here -->
    </div>    ","null","","","","","","","","","","","",""
"","null","html-keyboard-response","171","296925","0.0-11.0-0.27","DEJIFkxr5s","644ff5cdfdce8f493ccc6ca9","6617fad957f7c6a12ea16e26","6622cf21c230f86477d59bb6","fixation cross","null","","","","","","","","","","","",""
"","933","html-keyboard-response","172","297859","0.0-11.0-1.27","DEJIFkxr5s","644ff5cdfdce8f493ccc6ca9","6617fad957f7c6a12ea16e26","6622cf21c230f86477d59bb6","image grid","p","","","","","Ontogenetic_Distractor_Nonthreat_target","2500","ongrid","p","1","Ontogenetic","true","experimental"
"","null","html-keyboard-response","173","298019","0.0-11.0-2.27","DEJIFkxr5s","644ff5cdfdce8f493ccc6ca9","6617fad957f7c6a12ea16e26","6622cf21c230f86477d59bb6","
    <div id=""grid-container"">
        <!-- Grid items will be dynamically added here -->
    </div>    ","null","","","","","","","","","","","",""
"","null","html-keyboard-response","174","298754","0.0-11.0-0.28","DEJIFkxr5s","644ff5cdfdce8f493ccc6ca9","6617fad957f7c6a12ea16e26","6622cf21c230f86477d59bb6","fixation cross","null","","","","","","","","","","","",""
"","961","html-keyboard-response","175","299715","0.0-11.0-1.28","DEJIFkxr5s","644ff5cdfdce8f493ccc6ca9","6617fad957f7c6a12ea16e26","6622cf21c230f86477d59bb6","image grid","q","","","","","Ontogenetic_Distractor_Threat_target","2500","ongrid","q","3","Ontogenetic","true","experimental"
"","null","html-keyboard-response","176","299879","0.0-11.0-2.28","DEJIFkxr5s","644ff5cdfdce8f493ccc6ca9","6617fad957f7c6a12ea16e26","6622cf21c230f86477d59bb6","
    <div id=""grid-container"">
        <!-- Grid items will be dynamically added here -->
    </div>    ","null","","","","","","","","","","","",""
"","null","html-keyboard-response","177","300597","0.0-11.0-0.29","DEJIFkxr5s","644ff5cdfdce8f493ccc6ca9","6617fad957f7c6a12ea16e26","6622cf21c230f86477d59bb6","fixation cross","null","","","","","","","","","","","",""
"","830","html-keyboard-response","178","301427","0.0-11.0-1.29","DEJIFkxr5s","644ff5cdfdce8f493ccc6ca9","6617fad957f7c6a12ea16e26","6622cf21c230f86477d59bb6","image grid","p","","","","","Ontogenetic_Distractor_Nonthreat_target","2500","ongrid","p","8","Ontogenetic","true","experimental"
"","null","html-keyboard-response","179","301582","0.0-11.0-2.29","DEJIFkxr5s","644ff5cdfdce8f493ccc6ca9","6617fad957f7c6a12ea16e26","6622cf21c230f86477d59bb6","
    <div id=""grid-container"">
        <!-- Grid items will be dynamically added here -->
    </div>    ","null","","","","","","","","","","","",""
"","null","html-keyboard-response","180","302298","0.0-11.0-0.30","DEJIFkxr5s","644ff5cdfdce8f493ccc6ca9","6617fad957f7c6a12ea16e26","6622cf21c230f86477d59bb6","fixation cross","null","","","","","","","","","","","",""
"","1016","html-keyboard-response","181","303315","0.0-11.0-1.30","DEJIFkxr5s","644ff5cdfdce8f493ccc6ca9","6617fad957f7c6a12ea16e26","6622cf21c230f86477d59bb6","image grid","p","","","","","Ontogenetic_Distractor_Nonthreat_target","2500","ongrid","p","2","Ontogenetic","true","experimental"
"","null","html-keyboard-response","182","303474","0.0-11.0-2.30","DEJIFkxr5s","644ff5cdfdce8f493ccc6ca9","6617fad957f7c6a12ea16e26","6622cf21c230f86477d59bb6","
    <div id=""grid-container"">
        <!-- Grid items will be dynamically added here -->
    </div>    ","null","","","","","","","","","","","",""
"","null","html-keyboard-response","183","304192","0.0-11.0-0.31","DEJIFkxr5s","644ff5cdfdce8f493ccc6ca9","6617fad957f7c6a12ea16e26","6622cf21c230f86477d59bb6","fixation cross","null","","","","","","","","","","","",""
"","851","html-keyboard-response","184","305043","0.0-11.0-1.31","DEJIFkxr5s","644ff5cdfdce8f493ccc6ca9","6617fad957f7c6a12ea16e26","6622cf21c230f86477d59bb6","image grid","q","","","","","Ontogenetic_Distractor_Threat_target","2500","ongrid","q","3","Ontogenetic","true","experimental"
"","null","html-keyboard-response","185","305206","0.0-11.0-2.31","DEJIFkxr5s","644ff5cdfdce8f493ccc6ca9","6617fad957f7c6a12ea16e26","6622cf21c230f86477d59bb6","
    <div id=""grid-container"">
        <!-- Grid items will be dynamically added here -->
    </div>    ","null","","","","","","","","","","","",""
"","null","html-keyboard-response","186","305931","0.0-11.0-0.32","DEJIFkxr5s","644ff5cdfdce8f493ccc6ca9","6617fad957f7c6a12ea16e26","6622cf21c230f86477d59bb6","fixation cross","null","","","","","","","","","","","",""
"","865","html-keyboard-response","187","306796","0.0-11.0-1.32","DEJIFkxr5s","644ff5cdfdce8f493ccc6ca9","6617fad957f7c6a12ea16e26","6622cf21c230f86477d59bb6","image grid","p","","","","","Ontogenetic_Distractor_Nonthreat_target","2500","ongrid","p","6","Ontogenetic","true","experimental"
"","null","html-keyboard-response","188","306948","0.0-11.0-2.32","DEJIFkxr5s","644ff5cdfdce8f493ccc6ca9","6617fad957f7c6a12ea16e26","6622cf21c230f86477d59bb6","
    <div id=""grid-container"">
        <!-- Grid items will be dynamically added here -->
    </div>    ","null","","","","","","","","","","","",""
"","null","html-keyboard-response","189","307664","0.0-11.0-0.33","DEJIFkxr5s","644ff5cdfdce8f493ccc6ca9","6617fad957f7c6a12ea16e26","6622cf21c230f86477d59bb6","fixation cross","null","","","","","","","","","","","",""
"","1026","html-keyboard-response","190","308691","0.0-11.0-1.33","DEJIFkxr5s","644ff5cdfdce8f493ccc6ca9","6617fad957f7c6a12ea16e26","6622cf21c230f86477d59bb6","image grid","q","","","","","Ontogenetic_Distractor_Threat_target","2500","ongrid","q","9","Ontogenetic","true","experimental"
"","null","html-keyboard-response","191","308847","0.0-11.0-2.33","DEJIFkxr5s","644ff5cdfdce8f493ccc6ca9","6617fad957f7c6a12ea16e26","6622cf21c230f86477d59bb6","
    <div id=""grid-container"">
        <!-- Grid items will be dynamically added here -->
    </div>    ","null","","","","","","","","","","","",""
"","null","html-keyboard-response","192","309551","0.0-11.0-0.34","DEJIFkxr5s","644ff5cdfdce8f493ccc6ca9","6617fad957f7c6a12ea16e26","6622cf21c230f86477d59bb6","fixation cross","null","","","","","","","","","","","",""
"","788","html-keyboard-response","193","310339","0.0-11.0-1.34","DEJIFkxr5s","644ff5cdfdce8f493ccc6ca9","6617fad957f7c6a12ea16e26","6622cf21c230f86477d59bb6","image grid","p","","","","","Ontogenetic_Distractor_Nonthreat_target","2500","ongrid","p","4","Ontogenetic","true","experimental"
"","null","html-keyboard-response","194","310519","0.0-11.0-2.34","DEJIFkxr5s","644ff5cdfdce8f493ccc6ca9","6617fad957f7c6a12ea16e26","6622cf21c230f86477d59bb6","
    <div id=""grid-container"">
        <!-- Grid items will be dynamically added here -->
    </div>    ","null","","","","","","","","","","","",""
"","null","html-keyboard-response","195","311238","0.0-11.0-0.35","DEJIFkxr5s","644ff5cdfdce8f493ccc6ca9","6617fad957f7c6a12ea16e26","6622cf21c230f86477d59bb6","fixation cross","null","","","","","","","","","","","",""
"","1581","html-keyboard-response","196","312819","0.0-11.0-1.35","DEJIFkxr5s","644ff5cdfdce8f493ccc6ca9","6617fad957f7c6a12ea16e26","6622cf21c230f86477d59bb6","image grid"," ","","","","","Ontogenetic_Distractor_notarget","2500","ongrid"," ","4","Ontogenetic","true","experimental"
"","null","html-keyboard-response","197","312970","0.0-11.0-2.35","DEJIFkxr5s","644ff5cdfdce8f493ccc6ca9","6617fad957f7c6a12ea16e26","6622cf21c230f86477d59bb6","
    <div id=""grid-container"">
        <!-- Grid items will be dynamically added here -->
    </div>    ","null","","","","","","","","","","","",""
"","null","html-keyboard-response","198","313691","0.0-11.0-0.36","DEJIFkxr5s","644ff5cdfdce8f493ccc6ca9","6617fad957f7c6a12ea16e26","6622cf21c230f86477d59bb6","fixation cross","null","","","","","","","","","","","",""
"","1720","html-keyboard-response","199","315411","0.0-11.0-1.36","DEJIFkxr5s","644ff5cdfdce8f493ccc6ca9","6617fad957f7c6a12ea16e26","6622cf21c230f86477d59bb6","image grid"," ","","","","","Ontogenetic_Distractor_notarget","2500","ongrid"," ","8","Ontogenetic","true","experimental"
"","null","html-keyboard-response","200","315573","0.0-11.0-2.36","DEJIFkxr5s","644ff5cdfdce8f493ccc6ca9","6617fad957f7c6a12ea16e26","6622cf21c230f86477d59bb6","
    <div id=""grid-container"">
        <!-- Grid items will be dynamically added here -->
    </div>    ","null","","","","","","","","","","","",""
"","null","html-keyboard-response","201","316289","0.0-11.0-0.37","DEJIFkxr5s","644ff5cdfdce8f493ccc6ca9","6617fad957f7c6a12ea16e26","6622cf21c230f86477d59bb6","fixation cross","null","","","","","","","","","","","",""
"","978","html-keyboard-response","202","317267","0.0-11.0-1.37","DEJIFkxr5s","644ff5cdfdce8f493ccc6ca9","6617fad957f7c6a12ea16e26","6622cf21c230f86477d59bb6","image grid","p","","","","","Ontogenetic_Distractor_Nonthreat_target","2500","ongrid","p","3","Ontogenetic","true","experimental"
"","null","html-keyboard-response","203","317425","0.0-11.0-2.37","DEJIFkxr5s","644ff5cdfdce8f493ccc6ca9","6617fad957f7c6a12ea16e26","6622cf21c230f86477d59bb6","
    <div id=""grid-container"">
        <!-- Grid items will be dynamically added here -->
    </div>    ","null","","","","","","","","","","","",""
"","null","html-keyboard-response","204","318146","0.0-11.0-0.38","DEJIFkxr5s","644ff5cdfdce8f493ccc6ca9","6617fad957f7c6a12ea16e26","6622cf21c230f86477d59bb6","fixation cross","null","","","","","","","","","","","",""
"","1249","html-keyboard-response","205","319395","0.0-11.0-1.38","DEJIFkxr5s","644ff5cdfdce8f493ccc6ca9","6617fad957f7c6a12ea16e26","6622cf21c230f86477d59bb6","image grid"," ","","","","","Ontogenetic_Distractor_notarget","2500","ongrid"," ","8","Ontogenetic","true","experimental"
"","null","html-keyboard-response","206","319549","0.0-11.0-2.38","DEJIFkxr5s","644ff5cdfdce8f493ccc6ca9","6617fad957f7c6a12ea16e26","6622cf21c230f86477d59bb6","
    <div id=""grid-container"">
        <!-- Grid items will be dynamically added here -->
    </div>    ","null","","","","","","","","","","","",""
"","null","html-keyboard-response","207","320269","0.0-11.0-0.39","DEJIFkxr5s","644ff5cdfdce8f493ccc6ca9","6617fad957f7c6a12ea16e26","6622cf21c230f86477d59bb6","fixation cross","null","","","","","","","","","","","",""
"","1126","html-keyboard-response","208","321395","0.0-11.0-1.39","DEJIFkxr5s","644ff5cdfdce8f493ccc6ca9","6617fad957f7c6a12ea16e26","6622cf21c230f86477d59bb6","image grid","p","","","","","Ontogenetic_Distractor_Nonthreat_target","2500","ongrid","p","7","Ontogenetic","true","experimental"
"","null","html-keyboard-response","209","321551","0.0-11.0-2.39","DEJIFkxr5s","644ff5cdfdce8f493ccc6ca9","6617fad957f7c6a12ea16e26","6622cf21c230f86477d59bb6","
    <div id=""grid-container"">
        <!-- Grid items will be dynamically added here -->
    </div>    ","null","","","","","","","","","","","",""
"","3137","html-keyboard-response","210","324915","0.0-12.0","DEJIFkxr5s","644ff5cdfdce8f493ccc6ca9","6617fad957f7c6a12ea16e26","6622cf21c230f86477d59bb6","break screen"," ","","","","","","","","","","","",""
"","null","html-keyboard-response","211","327442","0.0-13.0-0.0","DEJIFkxr5s","644ff5cdfdce8f493ccc6ca9","6617fad957f7c6a12ea16e26","6622cf21c230f86477d59bb6","fixation cross","null","","","","","","","","","","","",""
"","null","html-keyboard-response","212","328260","0.0-13.0-1.0","DEJIFkxr5s","644ff5cdfdce8f493ccc6ca9","6617fad957f7c6a12ea16e26","6622cf21c230f86477d59bb6","
        <div id=""grid-container"">
        <!-- Grid items will be dynamically added here -->
    </div>    ","null","","","","","","","","","","","",""
"","943","html-keyboard-response","213","328403","0.0-13.0-2.0","DEJIFkxr5s","644ff5cdfdce8f493ccc6ca9","6617fad957f7c6a12ea16e26","6622cf21c230f86477d59bb6","mask grid","q","","","","","Ontogenetic_Distractor_Threat_target","800","onmask","q","3","Ontogenetic","true","experimental"
"","null","html-keyboard-response","214","329122","0.0-13.0-0.1","DEJIFkxr5s","644ff5cdfdce8f493ccc6ca9","6617fad957f7c6a12ea16e26","6622cf21c230f86477d59bb6","fixation cross","null","","","","","","","","","","","",""
"","null","html-keyboard-response","215","329925","0.0-13.0-1.1","DEJIFkxr5s","644ff5cdfdce8f493ccc6ca9","6617fad957f7c6a12ea16e26","6622cf21c230f86477d59bb6","
        <div id=""grid-container"">
        <!-- Grid items will be dynamically added here -->
    </div>    ","null","","","","","","","","","","","",""
"","1262","html-keyboard-response","216","330387","0.0-13.0-2.1","DEJIFkxr5s","644ff5cdfdce8f493ccc6ca9","6617fad957f7c6a12ea16e26","6622cf21c230f86477d59bb6","mask grid","q","","","","","Ontogenetic_Distractor_notarget","800","onmask"," ","7","Ontogenetic","false","experimental"
"","null","html-keyboard-response","217","331097","0.0-13.0-0.2","DEJIFkxr5s","644ff5cdfdce8f493ccc6ca9","6617fad957f7c6a12ea16e26","6622cf21c230f86477d59bb6","fixation cross","null","","","","","","","","","","","",""
"","null","html-keyboard-response","218","331910","0.0-13.0-1.2","DEJIFkxr5s","644ff5cdfdce8f493ccc6ca9","6617fad957f7c6a12ea16e26","6622cf21c230f86477d59bb6","
        <div id=""grid-container"">
        <!-- Grid items will be dynamically added here -->
    </div>    ","null","","","","","","","","","","","",""
"","1437","html-keyboard-response","219","332547","0.0-13.0-2.2","DEJIFkxr5s","644ff5cdfdce8f493ccc6ca9","6617fad957f7c6a12ea16e26","6622cf21c230f86477d59bb6","mask grid","p","","","","","Ontogenetic_Distractor_Nonthreat_target","800","onmask","p","9","Ontogenetic","true","experimental"
"","null","html-keyboard-response","220","333270","0.0-13.0-0.3","DEJIFkxr5s","644ff5cdfdce8f493ccc6ca9","6617fad957f7c6a12ea16e26","6622cf21c230f86477d59bb6","fixation cross","null","","","","","","","","","","","",""
"","null","html-keyboard-response","221","334079","0.0-13.0-1.3","DEJIFkxr5s","644ff5cdfdce8f493ccc6ca9","6617fad957f7c6a12ea16e26","6622cf21c230f86477d59bb6","
        <div id=""grid-container"">
        <!-- Grid items will be dynamically added here -->
    </div>    ","null","","","","","","","","","","","",""
"","979","html-keyboard-response","222","334259","0.0-13.0-2.3","DEJIFkxr5s","644ff5cdfdce8f493ccc6ca9","6617fad957f7c6a12ea16e26","6622cf21c230f86477d59bb6","mask grid","q","","","","","Ontogenetic_Distractor_Threat_target","800","onmask","q","2","Ontogenetic","true","experimental"
"","null","html-keyboard-response","223","334979","0.0-13.0-0.4","DEJIFkxr5s","644ff5cdfdce8f493ccc6ca9","6617fad957f7c6a12ea16e26","6622cf21c230f86477d59bb6","fixation cross","null","","","","","","","","","","","",""
"","null","html-keyboard-response","224","335781","0.0-13.0-1.4","DEJIFkxr5s","644ff5cdfdce8f493ccc6ca9","6617fad957f7c6a12ea16e26","6622cf21c230f86477d59bb6","
        <div id=""grid-container"">
        <!-- Grid items will be dynamically added here -->
    </div>    ","null","","","","","","","","","","","",""
"","877","html-keyboard-response","225","335859","0.0-13.0-2.4","DEJIFkxr5s","644ff5cdfdce8f493ccc6ca9","6617fad957f7c6a12ea16e26","6622cf21c230f86477d59bb6","mask grid","p","","","","","Ontogenetic_Distractor_Nonthreat_target","800","onmask","p","3","Ontogenetic","true","experimental"
"","null","html-keyboard-response","226","336566","0.0-13.0-0.5","DEJIFkxr5s","644ff5cdfdce8f493ccc6ca9","6617fad957f7c6a12ea16e26","6622cf21c230f86477d59bb6","fixation cross","null","","","","","","","","","","","",""
"","null","html-keyboard-response","227","337368","0.0-13.0-1.5","DEJIFkxr5s","644ff5cdfdce8f493ccc6ca9","6617fad957f7c6a12ea16e26","6622cf21c230f86477d59bb6","
        <div id=""grid-container"">
        <!-- Grid items will be dynamically added here -->
    </div>    ","null","","","","","","","","","","","",""
"","955","html-keyboard-response","228","337523","0.0-13.0-2.5","DEJIFkxr5s","644ff5cdfdce8f493ccc6ca9","6617fad957f7c6a12ea16e26","6622cf21c230f86477d59bb6","mask grid","q","","","","","Ontogenetic_Distractor_Threat_target","800","onmask","q","7","Ontogenetic","true","experimental"
"","null","html-keyboard-response","229","338230","0.0-13.0-0.6","DEJIFkxr5s","644ff5cdfdce8f493ccc6ca9","6617fad957f7c6a12ea16e26","6622cf21c230f86477d59bb6","fixation cross","null","","","","","","","","","","","",""
"","null","html-keyboard-response","230","339035","0.0-13.0-1.6","DEJIFkxr5s","644ff5cdfdce8f493ccc6ca9","6617fad957f7c6a12ea16e26","6622cf21c230f86477d59bb6","
        <div id=""grid-container"">
        <!-- Grid items will be dynamically added here -->
    </div>    ","null","","","","","","","","","","","",""
"","815","html-keyboard-response","231","339050","0.0-13.0-2.6","DEJIFkxr5s","644ff5cdfdce8f493ccc6ca9","6617fad957f7c6a12ea16e26","6622cf21c230f86477d59bb6","mask grid","p","","","","","Ontogenetic_Distractor_Nonthreat_target","800","onmask","p","1","Ontogenetic","true","experimental"
"","null","html-keyboard-response","232","339756","0.0-13.0-0.7","DEJIFkxr5s","644ff5cdfdce8f493ccc6ca9","6617fad957f7c6a12ea16e26","6622cf21c230f86477d59bb6","fixation cross","null","","","","","","","","","","","",""
"","742","html-keyboard-response","233","340499","0.0-13.0-1.7","DEJIFkxr5s","644ff5cdfdce8f493ccc6ca9","6617fad957f7c6a12ea16e26","6622cf21c230f86477d59bb6","image grid","p","","","","","Ontogenetic_Distractor_Nonthreat_target","800","ongrid","p","1","Ontogenetic","true","experimental"
"","null","html-keyboard-response","234","340658","0.0-13.0-2.7","DEJIFkxr5s","644ff5cdfdce8f493ccc6ca9","6617fad957f7c6a12ea16e26","6622cf21c230f86477d59bb6","
    <div id=""grid-container"">
        <!-- Grid items will be dynamically added here -->
    </div>    ","null","","","","","","","","","","","",""
"","null","html-keyboard-response","235","341390","0.0-13.0-0.8","DEJIFkxr5s","644ff5cdfdce8f493ccc6ca9","6617fad957f7c6a12ea16e26","6622cf21c230f86477d59bb6","fixation cross","null","","","","","","","","","","","",""
"","null","html-keyboard-response","236","342191","0.0-13.0-1.8","DEJIFkxr5s","644ff5cdfdce8f493ccc6ca9","6617fad957f7c6a12ea16e26","6622cf21c230f86477d59bb6","
        <div id=""grid-container"">
        <!-- Grid items will be dynamically added here -->
    </div>    ","null","","","","","","","","","","","",""
"","852","html-keyboard-response","237","342243","0.0-13.0-2.8","DEJIFkxr5s","644ff5cdfdce8f493ccc6ca9","6617fad957f7c6a12ea16e26","6622cf21c230f86477d59bb6","mask grid","p","","","","","Ontogenetic_Distractor_Threat_target","800","onmask","q","4","Ontogenetic","false","experimental"
"","null","html-keyboard-response","238","342962","0.0-13.0-0.9","DEJIFkxr5s","644ff5cdfdce8f493ccc6ca9","6617fad957f7c6a12ea16e26","6622cf21c230f86477d59bb6","fixation cross","null","","","","","","","","","","","",""
"","null","html-keyboard-response","239","343778","0.0-13.0-1.9","DEJIFkxr5s","644ff5cdfdce8f493ccc6ca9","6617fad957f7c6a12ea16e26","6622cf21c230f86477d59bb6","
        <div id=""grid-container"">
        <!-- Grid items will be dynamically added here -->
    </div>    ","null","","","","","","","","","","","",""
"","961","html-keyboard-response","240","343939","0.0-13.0-2.9","DEJIFkxr5s","644ff5cdfdce8f493ccc6ca9","6617fad957f7c6a12ea16e26","6622cf21c230f86477d59bb6","mask grid","p","","","","","Ontogenetic_Distractor_Nonthreat_target","800","onmask","p","1","Ontogenetic","true","experimental"
"","null","html-keyboard-response","241","344660","0.0-13.0-0.10","DEJIFkxr5s","644ff5cdfdce8f493ccc6ca9","6617fad957f7c6a12ea16e26","6622cf21c230f86477d59bb6","fixation cross","null","","","","","","","","","","","",""
"","734","html-keyboard-response","242","345395","0.0-13.0-1.10","DEJIFkxr5s","644ff5cdfdce8f493ccc6ca9","6617fad957f7c6a12ea16e26","6622cf21c230f86477d59bb6","image grid","p","","","","","Ontogenetic_Distractor_Nonthreat_target","800","ongrid","p","7","Ontogenetic","true","experimental"
"","null","html-keyboard-response","243","345555","0.0-13.0-2.10","DEJIFkxr5s","644ff5cdfdce8f493ccc6ca9","6617fad957f7c6a12ea16e26","6622cf21c230f86477d59bb6","
    <div id=""grid-container"">
        <!-- Grid items will be dynamically added here -->
    </div>    ","null","","","","","","","","","","","",""
"","null","html-keyboard-response","244","346281","0.0-13.0-0.11","DEJIFkxr5s","644ff5cdfdce8f493ccc6ca9","6617fad957f7c6a12ea16e26","6622cf21c230f86477d59bb6","fixation cross","null","","","","","","","","","","","",""
"","null","html-keyboard-response","245","347084","0.0-13.0-1.11","DEJIFkxr5s","644ff5cdfdce8f493ccc6ca9","6617fad957f7c6a12ea16e26","6622cf21c230f86477d59bb6","
        <div id=""grid-container"">
        <!-- Grid items will be dynamically added here -->
    </div>    ","null","","","","","","","","","","","",""
"","823","html-keyboard-response","246","347107","0.0-13.0-2.11","DEJIFkxr5s","644ff5cdfdce8f493ccc6ca9","6617fad957f7c6a12ea16e26","6622cf21c230f86477d59bb6","mask grid","q","","","","","Ontogenetic_Distractor_Threat_target","800","onmask","q","2","Ontogenetic","true","experimental"
"","null","html-keyboard-response","247","347832","0.0-13.0-0.12","DEJIFkxr5s","644ff5cdfdce8f493ccc6ca9","6617fad957f7c6a12ea16e26","6622cf21c230f86477d59bb6","fixation cross","null","","","","","","","","","","","",""
"","null","html-keyboard-response","248","348647","0.0-13.0-1.12","DEJIFkxr5s","644ff5cdfdce8f493ccc6ca9","6617fad957f7c6a12ea16e26","6622cf21c230f86477d59bb6","
        <div id=""grid-container"">
        <!-- Grid items will be dynamically added here -->
    </div>    ","null","","","","","","","","","","","",""
"","907","html-keyboard-response","249","348755","0.0-13.0-2.12","DEJIFkxr5s","644ff5cdfdce8f493ccc6ca9","6617fad957f7c6a12ea16e26","6622cf21c230f86477d59bb6","mask grid","p","","","","","Ontogenetic_Distractor_Nonthreat_target","800","onmask","p","9","Ontogenetic","true","experimental"
"","null","html-keyboard-response","250","349471","0.0-13.0-0.13","DEJIFkxr5s","644ff5cdfdce8f493ccc6ca9","6617fad957f7c6a12ea16e26","6622cf21c230f86477d59bb6","fixation cross","null","","","","","","","","","","","",""
"","null","html-keyboard-response","251","350284","0.0-13.0-1.13","DEJIFkxr5s","644ff5cdfdce8f493ccc6ca9","6617fad957f7c6a12ea16e26","6622cf21c230f86477d59bb6","
        <div id=""grid-container"">
        <!-- Grid items will be dynamically added here -->
    </div>    ","null","","","","","","","","","","","",""
"","951","html-keyboard-response","252","350435","0.0-13.0-2.13","DEJIFkxr5s","644ff5cdfdce8f493ccc6ca9","6617fad957f7c6a12ea16e26","6622cf21c230f86477d59bb6","mask grid","p","","","","","Ontogenetic_Distractor_Nonthreat_target","800","onmask","p","2","Ontogenetic","true","experimental"
"","null","html-keyboard-response","253","351150","0.0-13.0-0.14","DEJIFkxr5s","644ff5cdfdce8f493ccc6ca9","6617fad957f7c6a12ea16e26","6622cf21c230f86477d59bb6","fixation cross","null","","","","","","","","","","","",""
"","null","html-keyboard-response","254","351973","0.0-13.0-1.14","DEJIFkxr5s","644ff5cdfdce8f493ccc6ca9","6617fad957f7c6a12ea16e26","6622cf21c230f86477d59bb6","
        <div id=""grid-container"">
        <!-- Grid items will be dynamically added here -->
    </div>    ","null","","","","","","","","","","","",""
"","846","html-keyboard-response","255","352019","0.0-13.0-2.14","DEJIFkxr5s","644ff5cdfdce8f493ccc6ca9","6617fad957f7c6a12ea16e26","6622cf21c230f86477d59bb6","mask grid","p","","","","","Ontogenetic_Distractor_notarget","800","onmask"," ","3","Ontogenetic","false","experimental"
"","null","html-keyboard-response","256","352754","0.0-13.0-0.15","DEJIFkxr5s","644ff5cdfdce8f493ccc6ca9","6617fad957f7c6a12ea16e26","6622cf21c230f86477d59bb6","fixation cross","null","","","","","","","","","","","",""
"","721","html-keyboard-response","257","353475","0.0-13.0-1.15","DEJIFkxr5s","644ff5cdfdce8f493ccc6ca9","6617fad957f7c6a12ea16e26","6622cf21c230f86477d59bb6","image grid","q","","","","","Ontogenetic_Distractor_Nonthreat_target","800","ongrid","p","1","Ontogenetic","false","experimental"
"","null","html-keyboard-response","258","353627","0.0-13.0-2.15","DEJIFkxr5s","644ff5cdfdce8f493ccc6ca9","6617fad957f7c6a12ea16e26","6622cf21c230f86477d59bb6","
    <div id=""grid-container"">
        <!-- Grid items will be dynamically added here -->
    </div>    ","null","","","","","","","","","","","",""
"","null","html-keyboard-response","259","354349","0.0-13.0-0.16","DEJIFkxr5s","644ff5cdfdce8f493ccc6ca9","6617fad957f7c6a12ea16e26","6622cf21c230f86477d59bb6","fixation cross","null","","","","","","","","","","","",""
"","null","html-keyboard-response","260","355151","0.0-13.0-1.16","DEJIFkxr5s","644ff5cdfdce8f493ccc6ca9","6617fad957f7c6a12ea16e26","6622cf21c230f86477d59bb6","
        <div id=""grid-container"">
        <!-- Grid items will be dynamically added here -->
    </div>    ","null","","","","","","","","","","","",""
"","996","html-keyboard-response","261","355347","0.0-13.0-2.16","DEJIFkxr5s","644ff5cdfdce8f493ccc6ca9","6617fad957f7c6a12ea16e26","6622cf21c230f86477d59bb6","mask grid","p","","","","","Ontogenetic_Distractor_Nonthreat_target","800","onmask","p","8","Ontogenetic","true","experimental"
"","null","html-keyboard-response","262","356053","0.0-13.0-0.17","DEJIFkxr5s","644ff5cdfdce8f493ccc6ca9","6617fad957f7c6a12ea16e26","6622cf21c230f86477d59bb6","fixation cross","null","","","","","","","","","","","",""
"","734","html-keyboard-response","263","356787","0.0-13.0-1.17","DEJIFkxr5s","644ff5cdfdce8f493ccc6ca9","6617fad957f7c6a12ea16e26","6622cf21c230f86477d59bb6","image grid","p","","","","","Ontogenetic_Distractor_Nonthreat_target","800","ongrid","p","5","Ontogenetic","true","experimental"
"","null","html-keyboard-response","264","356954","0.0-13.0-2.17","DEJIFkxr5s","644ff5cdfdce8f493ccc6ca9","6617fad957f7c6a12ea16e26","6622cf21c230f86477d59bb6","
    <div id=""grid-container"">
        <!-- Grid items will be dynamically added here -->
    </div>    ","null","","","","","","","","","","","",""
"","null","html-keyboard-response","265","357676","0.0-13.0-0.18","DEJIFkxr5s","644ff5cdfdce8f493ccc6ca9","6617fad957f7c6a12ea16e26","6622cf21c230f86477d59bb6","fixation cross","null","","","","","","","","","","","",""
"","759","html-keyboard-response","266","358435","0.0-13.0-1.18","DEJIFkxr5s","644ff5cdfdce8f493ccc6ca9","6617fad957f7c6a12ea16e26","6622cf21c230f86477d59bb6","image grid","q","","","","","Ontogenetic_Distractor_Threat_target","800","ongrid","q","2","Ontogenetic","true","experimental"
"","null","html-keyboard-response","267","358592","0.0-13.0-2.18","DEJIFkxr5s","644ff5cdfdce8f493ccc6ca9","6617fad957f7c6a12ea16e26","6622cf21c230f86477d59bb6","
    <div id=""grid-container"">
        <!-- Grid items will be dynamically added here -->
    </div>    ","null","","","","","","","","","","","",""
"","null","html-keyboard-response","268","359316","0.0-13.0-0.19","DEJIFkxr5s","644ff5cdfdce8f493ccc6ca9","6617fad957f7c6a12ea16e26","6622cf21c230f86477d59bb6","fixation cross","null","","","","","","","","","","","",""
"","686","html-keyboard-response","269","360003","0.0-13.0-1.19","DEJIFkxr5s","644ff5cdfdce8f493ccc6ca9","6617fad957f7c6a12ea16e26","6622cf21c230f86477d59bb6","image grid","p","","","","","Ontogenetic_Distractor_Nonthreat_target","800","ongrid","p","8","Ontogenetic","true","experimental"
"","null","html-keyboard-response","270","360163","0.0-13.0-2.19","DEJIFkxr5s","644ff5cdfdce8f493ccc6ca9","6617fad957f7c6a12ea16e26","6622cf21c230f86477d59bb6","
    <div id=""grid-container"">
        <!-- Grid items will be dynamically added here -->
    </div>    ","null","","","","","","","","","","","",""
"","null","html-keyboard-response","271","360895","0.0-13.0-0.20","DEJIFkxr5s","644ff5cdfdce8f493ccc6ca9","6617fad957f7c6a12ea16e26","6622cf21c230f86477d59bb6","fixation cross","null","","","","","","","","","","","",""
"","724","html-keyboard-response","272","361619","0.0-13.0-1.20","DEJIFkxr5s","644ff5cdfdce8f493ccc6ca9","6617fad957f7c6a12ea16e26","6622cf21c230f86477d59bb6","image grid","p","","","","","Ontogenetic_Distractor_notarget","800","ongrid"," ","5","Ontogenetic","false","experimental"
"","null","html-keyboard-response","273","361778","0.0-13.0-2.20","DEJIFkxr5s","644ff5cdfdce8f493ccc6ca9","6617fad957f7c6a12ea16e26","6622cf21c230f86477d59bb6","
    <div id=""grid-container"">
        <!-- Grid items will be dynamically added here -->
    </div>    ","null","","","","","","","","","","","",""
"","null","html-keyboard-response","274","362503","0.0-13.0-0.21","DEJIFkxr5s","644ff5cdfdce8f493ccc6ca9","6617fad957f7c6a12ea16e26","6622cf21c230f86477d59bb6","fixation cross","null","","","","","","","","","","","",""
"","null","html-keyboard-response","275","363311","0.0-13.0-1.21","DEJIFkxr5s","644ff5cdfdce8f493ccc6ca9","6617fad957f7c6a12ea16e26","6622cf21c230f86477d59bb6","
        <div id=""grid-container"">
        <!-- Grid items will be dynamically added here -->
    </div>    ","null","","","","","","","","","","","",""
"","979","html-keyboard-response","276","363491","0.0-13.0-2.21","DEJIFkxr5s","644ff5cdfdce8f493ccc6ca9","6617fad957f7c6a12ea16e26","6622cf21c230f86477d59bb6","mask grid"," ","","","","","Ontogenetic_Distractor_Nonthreat_target","800","onmask","p","3","Ontogenetic","false","experimental"
"","null","html-keyboard-response","277","364197","0.0-13.0-0.22","DEJIFkxr5s","644ff5cdfdce8f493ccc6ca9","6617fad957f7c6a12ea16e26","6622cf21c230f86477d59bb6","fixation cross","null","","","","","","","","","","","",""
"","717","html-keyboard-response","278","364915","0.0-13.0-1.22","DEJIFkxr5s","644ff5cdfdce8f493ccc6ca9","6617fad957f7c6a12ea16e26","6622cf21c230f86477d59bb6","image grid","p","","","","","Ontogenetic_Distractor_Nonthreat_target","800","ongrid","p","7","Ontogenetic","true","experimental"
"","null","html-keyboard-response","279","365069","0.0-13.0-2.22","DEJIFkxr5s","644ff5cdfdce8f493ccc6ca9","6617fad957f7c6a12ea16e26","6622cf21c230f86477d59bb6","
    <div id=""grid-container"">
        <!-- Grid items will be dynamically added here -->
    </div>    ","null","","","","","","","","","","","",""
"","null","html-keyboard-response","280","365770","0.0-13.0-0.23","DEJIFkxr5s","644ff5cdfdce8f493ccc6ca9","6617fad957f7c6a12ea16e26","6622cf21c230f86477d59bb6","fixation cross","null","","","","","","","","","","","",""
"","null","html-keyboard-response","281","366572","0.0-13.0-1.23","DEJIFkxr5s","644ff5cdfdce8f493ccc6ca9","6617fad957f7c6a12ea16e26","6622cf21c230f86477d59bb6","
        <div id=""grid-container"">
        <!-- Grid items will be dynamically added here -->
    </div>    ","null","","","","","","","","","","","",""
"","903","html-keyboard-response","282","366675","0.0-13.0-2.23","DEJIFkxr5s","644ff5cdfdce8f493ccc6ca9","6617fad957f7c6a12ea16e26","6622cf21c230f86477d59bb6","mask grid","q","","","","","Ontogenetic_Distractor_Threat_target","800","onmask","q","1","Ontogenetic","true","experimental"
"","null","html-keyboard-response","283","367393","0.0-13.0-0.24","DEJIFkxr5s","644ff5cdfdce8f493ccc6ca9","6617fad957f7c6a12ea16e26","6622cf21c230f86477d59bb6","fixation cross","null","","","","","","","","","","","",""
"","770","html-keyboard-response","284","368163","0.0-13.0-1.24","DEJIFkxr5s","644ff5cdfdce8f493ccc6ca9","6617fad957f7c6a12ea16e26","6622cf21c230f86477d59bb6","image grid","p","","","","","Ontogenetic_Distractor_Nonthreat_target","800","ongrid","p","3","Ontogenetic","true","experimental"
"","null","html-keyboard-response","285","368314","0.0-13.0-2.24","DEJIFkxr5s","644ff5cdfdce8f493ccc6ca9","6617fad957f7c6a12ea16e26","6622cf21c230f86477d59bb6","
    <div id=""grid-container"">
        <!-- Grid items will be dynamically added here -->
    </div>    ","null","","","","","","","","","","","",""
"","null","html-keyboard-response","286","369030","0.0-13.0-0.25","DEJIFkxr5s","644ff5cdfdce8f493ccc6ca9","6617fad957f7c6a12ea16e26","6622cf21c230f86477d59bb6","fixation cross","null","","","","","","","","","","","",""
"","null","html-keyboard-response","287","369833","0.0-13.0-1.25","DEJIFkxr5s","644ff5cdfdce8f493ccc6ca9","6617fad957f7c6a12ea16e26","6622cf21c230f86477d59bb6","
        <div id=""grid-container"">
        <!-- Grid items will be dynamically added here -->
    </div>    ","null","","","","","","","","","","","",""
"","890","html-keyboard-response","288","369923","0.0-13.0-2.25","DEJIFkxr5s","644ff5cdfdce8f493ccc6ca9","6617fad957f7c6a12ea16e26","6622cf21c230f86477d59bb6","mask grid","p","","","","","Ontogenetic_Distractor_Threat_target","800","onmask","q","2","Ontogenetic","false","experimental"
"","null","html-keyboard-response","289","370645","0.0-13.0-0.26","DEJIFkxr5s","644ff5cdfdce8f493ccc6ca9","6617fad957f7c6a12ea16e26","6622cf21c230f86477d59bb6","fixation cross","null","","","","","","","","","","","",""
"","750","html-keyboard-response","290","371395","0.0-13.0-1.26","DEJIFkxr5s","644ff5cdfdce8f493ccc6ca9","6617fad957f7c6a12ea16e26","6622cf21c230f86477d59bb6","image grid","q","","","","","Ontogenetic_Distractor_Threat_target","800","ongrid","q","2","Ontogenetic","true","experimental"
"","null","html-keyboard-response","291","371549","0.0-13.0-2.26","DEJIFkxr5s","644ff5cdfdce8f493ccc6ca9","6617fad957f7c6a12ea16e26","6622cf21c230f86477d59bb6","
    <div id=""grid-container"">
        <!-- Grid items will be dynamically added here -->
    </div>    ","null","","","","","","","","","","","",""
"","null","html-keyboard-response","292","372266","0.0-13.0-0.27","DEJIFkxr5s","644ff5cdfdce8f493ccc6ca9","6617fad957f7c6a12ea16e26","6622cf21c230f86477d59bb6","fixation cross","null","","","","","","","","","","","",""
"","null","html-keyboard-response","293","373088","0.0-13.0-1.27","DEJIFkxr5s","644ff5cdfdce8f493ccc6ca9","6617fad957f7c6a12ea16e26","6622cf21c230f86477d59bb6","
        <div id=""grid-container"">
        <!-- Grid items will be dynamically added here -->
    </div>    ","null","","","","","","","","","","","",""
"","867","html-keyboard-response","294","373155","0.0-13.0-2.27","DEJIFkxr5s","644ff5cdfdce8f493ccc6ca9","6617fad957f7c6a12ea16e26","6622cf21c230f86477d59bb6","mask grid"," ","","","","","Ontogenetic_Distractor_Threat_target","800","onmask","q","7","Ontogenetic","false","experimental"
"","null","html-keyboard-response","295","373874","0.0-13.0-0.28","DEJIFkxr5s","644ff5cdfdce8f493ccc6ca9","6617fad957f7c6a12ea16e26","6622cf21c230f86477d59bb6","fixation cross","null","","","","","","","","","","","",""
"","null","html-keyboard-response","296","374691","0.0-13.0-1.28","DEJIFkxr5s","644ff5cdfdce8f493ccc6ca9","6617fad957f7c6a12ea16e26","6622cf21c230f86477d59bb6","
        <div id=""grid-container"">
        <!-- Grid items will be dynamically added here -->
    </div>    ","null","","","","","","","","","","","",""
"","1327","html-keyboard-response","297","375219","0.0-13.0-2.28","DEJIFkxr5s","644ff5cdfdce8f493ccc6ca9","6617fad957f7c6a12ea16e26","6622cf21c230f86477d59bb6","mask grid"," ","","","","","Ontogenetic_Distractor_Threat_target","800","onmask","q","4","Ontogenetic","false","experimental"
"","null","html-keyboard-response","298","375925","0.0-13.0-0.29","DEJIFkxr5s","644ff5cdfdce8f493ccc6ca9","6617fad957f7c6a12ea16e26","6622cf21c230f86477d59bb6","fixation cross","null","","","","","","","","","","","",""
"","null","html-keyboard-response","299","376726","0.0-13.0-1.29","DEJIFkxr5s","644ff5cdfdce8f493ccc6ca9","6617fad957f7c6a12ea16e26","6622cf21c230f86477d59bb6","
        <div id=""grid-container"">
        <!-- Grid items will be dynamically added here -->
    </div>    ","null","","","","","","","","","","","",""
"","1004","html-keyboard-response","300","376931","0.0-13.0-2.29","DEJIFkxr5s","644ff5cdfdce8f493ccc6ca9","6617fad957f7c6a12ea16e26","6622cf21c230f86477d59bb6","mask grid","q","","","","","Ontogenetic_Distractor_Nonthreat_target","800","onmask","p","3","Ontogenetic","false","experimental"
"","null","html-keyboard-response","301","377643","0.0-13.0-0.30","DEJIFkxr5s","644ff5cdfdce8f493ccc6ca9","6617fad957f7c6a12ea16e26","6622cf21c230f86477d59bb6","fixation cross","null","","","","","","","","","","","",""
"","null","html-keyboard-response","302","378457","0.0-13.0-1.30","DEJIFkxr5s","644ff5cdfdce8f493ccc6ca9","6617fad957f7c6a12ea16e26","6622cf21c230f86477d59bb6","
        <div id=""grid-container"">
        <!-- Grid items will be dynamically added here -->
    </div>    ","null","","","","","","","","","","","",""
"","969","html-keyboard-response","303","378626","0.0-13.0-2.30","DEJIFkxr5s","644ff5cdfdce8f493ccc6ca9","6617fad957f7c6a12ea16e26","6622cf21c230f86477d59bb6","mask grid","q","","","","","Ontogenetic_Distractor_Threat_target","800","onmask","q","6","Ontogenetic","true","experimental"
"","null","html-keyboard-response","304","379332","0.0-13.0-0.31","DEJIFkxr5s","644ff5cdfdce8f493ccc6ca9","6617fad957f7c6a12ea16e26","6622cf21c230f86477d59bb6","fixation cross","null","","","","","","","","","","","",""
"","null","html-keyboard-response","305","380148","0.0-13.0-1.31","DEJIFkxr5s","644ff5cdfdce8f493ccc6ca9","6617fad957f7c6a12ea16e26","6622cf21c230f86477d59bb6","
        <div id=""grid-container"">
        <!-- Grid items will be dynamically added here -->
    </div>    ","null","","","","","","","","","","","",""
"","1246","html-keyboard-response","306","380594","0.0-13.0-2.31","DEJIFkxr5s","644ff5cdfdce8f493ccc6ca9","6617fad957f7c6a12ea16e26","6622cf21c230f86477d59bb6","mask grid","q","","","","","Ontogenetic_Distractor_Threat_target","800","onmask","q","3","Ontogenetic","true","experimental"
"","null","html-keyboard-response","307","381318","0.0-13.0-0.32","DEJIFkxr5s","644ff5cdfdce8f493ccc6ca9","6617fad957f7c6a12ea16e26","6622cf21c230f86477d59bb6","fixation cross","null","","","","","","","","","","","",""
"","781","html-keyboard-response","308","382099","0.0-13.0-1.32","DEJIFkxr5s","644ff5cdfdce8f493ccc6ca9","6617fad957f7c6a12ea16e26","6622cf21c230f86477d59bb6","image grid","q","","","","","Ontogenetic_Distractor_Threat_target","800","ongrid","q","6","Ontogenetic","true","experimental"
"","null","html-keyboard-response","309","382251","0.0-13.0-2.32","DEJIFkxr5s","644ff5cdfdce8f493ccc6ca9","6617fad957f7c6a12ea16e26","6622cf21c230f86477d59bb6","
    <div id=""grid-container"">
        <!-- Grid items will be dynamically added here -->
    </div>    ","null","","","","","","","","","","","",""
"","null","html-keyboard-response","310","382982","0.0-13.0-0.33","DEJIFkxr5s","644ff5cdfdce8f493ccc6ca9","6617fad957f7c6a12ea16e26","6622cf21c230f86477d59bb6","fixation cross","null","","","","","","","","","","","",""
"","null","html-keyboard-response","311","383798","0.0-13.0-1.33","DEJIFkxr5s","644ff5cdfdce8f493ccc6ca9","6617fad957f7c6a12ea16e26","6622cf21c230f86477d59bb6","
        <div id=""grid-container"">
        <!-- Grid items will be dynamically added here -->
    </div>    ","null","","","","","","","","","","","",""
"","1004","html-keyboard-response","312","384003","0.0-13.0-2.33","DEJIFkxr5s","644ff5cdfdce8f493ccc6ca9","6617fad957f7c6a12ea16e26","6622cf21c230f86477d59bb6","mask grid","p","","","","","Ontogenetic_Distractor_Nonthreat_target","800","onmask","p","4","Ontogenetic","true","experimental"
"","null","html-keyboard-response","313","384738","0.0-13.0-0.34","DEJIFkxr5s","644ff5cdfdce8f493ccc6ca9","6617fad957f7c6a12ea16e26","6622cf21c230f86477d59bb6","fixation cross","null","","","","","","","","","","","",""
"","null","html-keyboard-response","314","385551","0.0-13.0-1.34","DEJIFkxr5s","644ff5cdfdce8f493ccc6ca9","6617fad957f7c6a12ea16e26","6622cf21c230f86477d59bb6","
        <div id=""grid-container"">
        <!-- Grid items will be dynamically added here -->
    </div>    ","null","","","","","","","","","","","",""
"","1075","html-keyboard-response","315","385827","0.0-13.0-2.34","DEJIFkxr5s","644ff5cdfdce8f493ccc6ca9","6617fad957f7c6a12ea16e26","6622cf21c230f86477d59bb6","mask grid"," ","","","","","Ontogenetic_Distractor_notarget","800","onmask"," ","1","Ontogenetic","true","experimental"
"","null","html-keyboard-response","316","386542","0.0-13.0-0.35","DEJIFkxr5s","644ff5cdfdce8f493ccc6ca9","6617fad957f7c6a12ea16e26","6622cf21c230f86477d59bb6","fixation cross","null","","","","","","","","","","","",""
"","null","html-keyboard-response","317","387358","0.0-13.0-1.35","DEJIFkxr5s","644ff5cdfdce8f493ccc6ca9","6617fad957f7c6a12ea16e26","6622cf21c230f86477d59bb6","
        <div id=""grid-container"">
        <!-- Grid items will be dynamically added here -->
    </div>    ","null","","","","","","","","","","","",""
"","852","html-keyboard-response","318","387411","0.0-13.0-2.35","DEJIFkxr5s","644ff5cdfdce8f493ccc6ca9","6617fad957f7c6a12ea16e26","6622cf21c230f86477d59bb6","mask grid","q","","","","","Ontogenetic_Distractor_Threat_target","800","onmask","q","5","Ontogenetic","true","experimental"
"","null","html-keyboard-response","319","388120","0.0-13.0-0.36","DEJIFkxr5s","644ff5cdfdce8f493ccc6ca9","6617fad957f7c6a12ea16e26","6622cf21c230f86477d59bb6","fixation cross","null","","","","","","","","","","","",""
"","794","html-keyboard-response","320","388915","0.0-13.0-1.36","DEJIFkxr5s","644ff5cdfdce8f493ccc6ca9","6617fad957f7c6a12ea16e26","6622cf21c230f86477d59bb6","image grid","q","","","","","Ontogenetic_Distractor_Threat_target","800","ongrid","q","2","Ontogenetic","true","experimental"
"","null","html-keyboard-response","321","389066","0.0-13.0-2.36","DEJIFkxr5s","644ff5cdfdce8f493ccc6ca9","6617fad957f7c6a12ea16e26","6622cf21c230f86477d59bb6","
    <div id=""grid-container"">
        <!-- Grid items will be dynamically added here -->
    </div>    ","null","","","","","","","","","","","",""
"","null","html-keyboard-response","322","389785","0.0-13.0-0.37","DEJIFkxr5s","644ff5cdfdce8f493ccc6ca9","6617fad957f7c6a12ea16e26","6622cf21c230f86477d59bb6","fixation cross","null","","","","","","","","","","","",""
"","null","html-keyboard-response","323","390598","0.0-13.0-1.37","DEJIFkxr5s","644ff5cdfdce8f493ccc6ca9","6617fad957f7c6a12ea16e26","6622cf21c230f86477d59bb6","
        <div id=""grid-container"">
        <!-- Grid items will be dynamically added here -->
    </div>    ","null","","","","","","","","","","","",""
"","815","html-keyboard-response","324","390614","0.0-13.0-2.37","DEJIFkxr5s","644ff5cdfdce8f493ccc6ca9","6617fad957f7c6a12ea16e26","6622cf21c230f86477d59bb6","mask grid","p","","","","","Ontogenetic_Distractor_Nonthreat_target","800","onmask","p","2","Ontogenetic","true","experimental"
"","null","html-keyboard-response","325","391345","0.0-13.0-0.38","DEJIFkxr5s","644ff5cdfdce8f493ccc6ca9","6617fad957f7c6a12ea16e26","6622cf21c230f86477d59bb6","fixation cross","null","","","","","","","","","","","",""
"","null","html-keyboard-response","326","392159","0.0-13.0-1.38","DEJIFkxr5s","644ff5cdfdce8f493ccc6ca9","6617fad957f7c6a12ea16e26","6622cf21c230f86477d59bb6","
        <div id=""grid-container"">
        <!-- Grid items will be dynamically added here -->
    </div>    ","null","","","","","","","","","","","",""
"","899","html-keyboard-response","327","392259","0.0-13.0-2.38","DEJIFkxr5s","644ff5cdfdce8f493ccc6ca9","6617fad957f7c6a12ea16e26","6622cf21c230f86477d59bb6","mask grid","q","","","","","Ontogenetic_Distractor_Threat_target","800","onmask","q","2","Ontogenetic","true","experimental"
"","null","html-keyboard-response","328","392978","0.0-13.0-0.39","DEJIFkxr5s","644ff5cdfdce8f493ccc6ca9","6617fad957f7c6a12ea16e26","6622cf21c230f86477d59bb6","fixation cross","null","","","","","","","","","","","",""
"","753","html-keyboard-response","329","393731","0.0-13.0-1.39","DEJIFkxr5s","644ff5cdfdce8f493ccc6ca9","6617fad957f7c6a12ea16e26","6622cf21c230f86477d59bb6","image grid","q","","","","","Ontogenetic_Distractor_Threat_target","800","ongrid","q","6","Ontogenetic","true","experimental"
"","null","html-keyboard-response","330","393890","0.0-13.0-2.39","DEJIFkxr5s","644ff5cdfdce8f493ccc6ca9","6617fad957f7c6a12ea16e26","6622cf21c230f86477d59bb6","
    <div id=""grid-container"">
        <!-- Grid items will be dynamically added here -->
    </div>    ","null","","","","","","","","","","","",""
"","2243","html-keyboard-response","331","396339","0.0-14.0","DEJIFkxr5s","644ff5cdfdce8f493ccc6ca9","6617fad957f7c6a12ea16e26","6622cf21c230f86477d59bb6","break screen"," ","","","","","","","","","","","",""
"","null","html-keyboard-response","332","398847","0.0-15.0-0.0","DEJIFkxr5s","644ff5cdfdce8f493ccc6ca9","6617fad957f7c6a12ea16e26","6622cf21c230f86477d59bb6","fixation cross","null","","","","","","","","","","","",""
"","1587","html-keyboard-response","333","400434","0.0-15.0-1.0","DEJIFkxr5s","644ff5cdfdce8f493ccc6ca9","6617fad957f7c6a12ea16e26","6622cf21c230f86477d59bb6","image grid"," ","","","","","Phylogenetic_Distractor_notarget","2500","ongrid"," ","5","Phylogenetic","true","experimental"
"","null","html-keyboard-response","334","400595","0.0-15.0-2.0","DEJIFkxr5s","644ff5cdfdce8f493ccc6ca9","6617fad957f7c6a12ea16e26","6622cf21c230f86477d59bb6","
    <div id=""grid-container"">
        <!-- Grid items will be dynamically added here -->
    </div>    ","null","","","","","","","","","","","",""
"","null","html-keyboard-response","335","401316","0.0-15.0-0.1","DEJIFkxr5s","644ff5cdfdce8f493ccc6ca9","6617fad957f7c6a12ea16e26","6622cf21c230f86477d59bb6","fixation cross","null","","","","","","","","","","","",""
"","1150","html-keyboard-response","336","402466","0.0-15.0-1.1","DEJIFkxr5s","644ff5cdfdce8f493ccc6ca9","6617fad957f7c6a12ea16e26","6622cf21c230f86477d59bb6","image grid"," ","","","","","Phylogenetic_Distractor_Nonthreat_target","2500","ongrid","p","8","Phylogenetic","false","experimental"
"","null","html-keyboard-response","337","402626","0.0-15.0-2.1","DEJIFkxr5s","644ff5cdfdce8f493ccc6ca9","6617fad957f7c6a12ea16e26","6622cf21c230f86477d59bb6","
    <div id=""grid-container"">
        <!-- Grid items will be dynamically added here -->
    </div>    ","null","","","","","","","","","","","",""
"","null","html-keyboard-response","338","403336","0.0-15.0-0.2","DEJIFkxr5s","644ff5cdfdce8f493ccc6ca9","6617fad957f7c6a12ea16e26","6622cf21c230f86477d59bb6","fixation cross","null","","","","","","","","","","","",""
"","1738","html-keyboard-response","339","405074","0.0-15.0-1.2","DEJIFkxr5s","644ff5cdfdce8f493ccc6ca9","6617fad957f7c6a12ea16e26","6622cf21c230f86477d59bb6","image grid"," ","","","","","Phylogenetic_Distractor_notarget","2500","ongrid"," ","2","Phylogenetic","true","experimental"
"","null","html-keyboard-response","340","405241","0.0-15.0-2.2","DEJIFkxr5s","644ff5cdfdce8f493ccc6ca9","6617fad957f7c6a12ea16e26","6622cf21c230f86477d59bb6","
    <div id=""grid-container"">
        <!-- Grid items will be dynamically added here -->
    </div>    ","null","","","","","","","","","","","",""
"","null","html-keyboard-response","341","405972","0.0-15.0-0.3","DEJIFkxr5s","644ff5cdfdce8f493ccc6ca9","6617fad957f7c6a12ea16e26","6622cf21c230f86477d59bb6","fixation cross","null","","","","","","","","","","","",""
"","1071","html-keyboard-response","342","407043","0.0-15.0-1.3","DEJIFkxr5s","644ff5cdfdce8f493ccc6ca9","6617fad957f7c6a12ea16e26","6622cf21c230f86477d59bb6","image grid","q","","","","","Phylogenetic_Distractor_Threat_target","2500","ongrid","q","6","Phylogenetic","true","experimental"
"","null","html-keyboard-response","343","407196","0.0-15.0-2.3","DEJIFkxr5s","644ff5cdfdce8f493ccc6ca9","6617fad957f7c6a12ea16e26","6622cf21c230f86477d59bb6","
    <div id=""grid-container"">
        <!-- Grid items will be dynamically added here -->
    </div>    ","null","","","","","","","","","","","",""
"","null","html-keyboard-response","344","407932","0.0-15.0-0.4","DEJIFkxr5s","644ff5cdfdce8f493ccc6ca9","6617fad957f7c6a12ea16e26","6622cf21c230f86477d59bb6","fixation cross","null","","","","","","","","","","","",""
"","966","html-keyboard-response","345","408898","0.0-15.0-1.4","DEJIFkxr5s","644ff5cdfdce8f493ccc6ca9","6617fad957f7c6a12ea16e26","6622cf21c230f86477d59bb6","image grid","q","","","","","Phylogenetic_Distractor_Threat_target","2500","ongrid","q","4","Phylogenetic","true","experimental"
"","null","html-keyboard-response","346","409062","0.0-15.0-2.4","DEJIFkxr5s","644ff5cdfdce8f493ccc6ca9","6617fad957f7c6a12ea16e26","6622cf21c230f86477d59bb6","
    <div id=""grid-container"">
        <!-- Grid items will be dynamically added here -->
    </div>    ","null","","","","","","","","","","","",""
"","null","html-keyboard-response","347","409784","0.0-15.0-0.5","DEJIFkxr5s","644ff5cdfdce8f493ccc6ca9","6617fad957f7c6a12ea16e26","6622cf21c230f86477d59bb6","fixation cross","null","","","","","","","","","","","",""
"","986","html-keyboard-response","348","410770","0.0-15.0-1.5","DEJIFkxr5s","644ff5cdfdce8f493ccc6ca9","6617fad957f7c6a12ea16e26","6622cf21c230f86477d59bb6","image grid","q","","","","","Phylogenetic_Distractor_Threat_target","2500","ongrid","q","7","Phylogenetic","true","experimental"
"","null","html-keyboard-response","349","410926","0.0-15.0-2.5","DEJIFkxr5s","644ff5cdfdce8f493ccc6ca9","6617fad957f7c6a12ea16e26","6622cf21c230f86477d59bb6","
    <div id=""grid-container"">
        <!-- Grid items will be dynamically added here -->
    </div>    ","null","","","","","","","","","","","",""
"","null","html-keyboard-response","350","411644","0.0-15.0-0.6","DEJIFkxr5s","644ff5cdfdce8f493ccc6ca9","6617fad957f7c6a12ea16e26","6622cf21c230f86477d59bb6","fixation cross","null","","","","","","","","","","","",""
"","1206","html-keyboard-response","351","412850","0.0-15.0-1.6","DEJIFkxr5s","644ff5cdfdce8f493ccc6ca9","6617fad957f7c6a12ea16e26","6622cf21c230f86477d59bb6","image grid"," ","","","","","Phylogenetic_Distractor_Nonthreat_target","2500","ongrid","p","6","Phylogenetic","false","experimental"
"","null","html-keyboard-response","352","413006","0.0-15.0-2.6","DEJIFkxr5s","644ff5cdfdce8f493ccc6ca9","6617fad957f7c6a12ea16e26","6622cf21c230f86477d59bb6","
    <div id=""grid-container"">
        <!-- Grid items will be dynamically added here -->
    </div>    ","null","","","","","","","","","","","",""
"","null","html-keyboard-response","353","413723","0.0-15.0-0.7","DEJIFkxr5s","644ff5cdfdce8f493ccc6ca9","6617fad957f7c6a12ea16e26","6622cf21c230f86477d59bb6","fixation cross","null","","","","","","","","","","","",""
"","999","html-keyboard-response","354","414722","0.0-15.0-1.7","DEJIFkxr5s","644ff5cdfdce8f493ccc6ca9","6617fad957f7c6a12ea16e26","6622cf21c230f86477d59bb6","image grid","q","","","","","Phylogenetic_Distractor_Threat_target","2500","ongrid","q","5","Phylogenetic","true","experimental"
"","null","html-keyboard-response","355","414875","0.0-15.0-2.7","DEJIFkxr5s","644ff5cdfdce8f493ccc6ca9","6617fad957f7c6a12ea16e26","6622cf21c230f86477d59bb6","
    <div id=""grid-container"">
        <!-- Grid items will be dynamically added here -->
    </div>    ","null","","","","","","","","","","","",""
"","null","html-keyboard-response","356","415594","0.0-15.0-0.8","DEJIFkxr5s","644ff5cdfdce8f493ccc6ca9","6617fad957f7c6a12ea16e26","6622cf21c230f86477d59bb6","fixation cross","null","","","","","","","","","","","",""
"","1512","html-keyboard-response","357","417107","0.0-15.0-1.8","DEJIFkxr5s","644ff5cdfdce8f493ccc6ca9","6617fad957f7c6a12ea16e26","6622cf21c230f86477d59bb6","image grid"," ","","","","","Phylogenetic_Distractor_Threat_target","2500","ongrid","q","6","Phylogenetic","false","experimental"
"","null","html-keyboard-response","358","417259","0.0-15.0-2.8","DEJIFkxr5s","644ff5cdfdce8f493ccc6ca9","6617fad957f7c6a12ea16e26","6622cf21c230f86477d59bb6","
    <div id=""grid-container"">
        <!-- Grid items will be dynamically added here -->
    </div>    ","null","","","","","","","","","","","",""
"","null","html-keyboard-response","359","417987","0.0-15.0-0.9","DEJIFkxr5s","644ff5cdfdce8f493ccc6ca9","6617fad957f7c6a12ea16e26","6622cf21c230f86477d59bb6","fixation cross","null","","","","","","","","","","","",""
"","1951","html-keyboard-response","360","419938","0.0-15.0-1.9","DEJIFkxr5s","644ff5cdfdce8f493ccc6ca9","6617fad957f7c6a12ea16e26","6622cf21c230f86477d59bb6","image grid","p","","","","","Phylogenetic_Distractor_Nonthreat_target","2500","ongrid","p","7","Phylogenetic","true","experimental"
"","null","html-keyboard-response","361","420101","0.0-15.0-2.9","DEJIFkxr5s","644ff5cdfdce8f493ccc6ca9","6617fad957f7c6a12ea16e26","6622cf21c230f86477d59bb6","
    <div id=""grid-container"">
        <!-- Grid items will be dynamically added here -->
    </div>    ","null","","","","","","","","","","","",""
"","null","html-keyboard-response","362","420802","0.0-15.0-0.10","DEJIFkxr5s","644ff5cdfdce8f493ccc6ca9","6617fad957f7c6a12ea16e26","6622cf21c230f86477d59bb6","fixation cross","null","","","","","","","","","","","",""
"","1008","html-keyboard-response","363","421810","0.0-15.0-1.10","DEJIFkxr5s","644ff5cdfdce8f493ccc6ca9","6617fad957f7c6a12ea16e26","6622cf21c230f86477d59bb6","image grid","p","","","","","Phylogenetic_Distractor_Nonthreat_target","2500","ongrid","p","8","Phylogenetic","true","experimental"
"","null","html-keyboard-response","364","421974","0.0-15.0-2.10","DEJIFkxr5s","644ff5cdfdce8f493ccc6ca9","6617fad957f7c6a12ea16e26","6622cf21c230f86477d59bb6","
    <div id=""grid-container"">
        <!-- Grid items will be dynamically added here -->
    </div>    ","null","","","","","","","","","","","",""
"","null","html-keyboard-response","365","422703","0.0-15.0-0.11","DEJIFkxr5s","644ff5cdfdce8f493ccc6ca9","6617fad957f7c6a12ea16e26","6622cf21c230f86477d59bb6","fixation cross","null","","","","","","","","","","","",""
"","1331","html-keyboard-response","366","424034","0.0-15.0-1.11","DEJIFkxr5s","644ff5cdfdce8f493ccc6ca9","6617fad957f7c6a12ea16e26","6622cf21c230f86477d59bb6","image grid","p","","","","","Phylogenetic_Distractor_Nonthreat_target","2500","ongrid","p","4","Phylogenetic","true","experimental"
"","null","html-keyboard-response","367","424204","0.0-15.0-2.11","DEJIFkxr5s","644ff5cdfdce8f493ccc6ca9","6617fad957f7c6a12ea16e26","6622cf21c230f86477d59bb6","
    <div id=""grid-container"">
        <!-- Grid items will be dynamically added here -->
    </div>    ","null","","","","","","","","","","","",""
"","null","html-keyboard-response","368","424921","0.0-15.0-0.12","DEJIFkxr5s","644ff5cdfdce8f493ccc6ca9","6617fad957f7c6a12ea16e26","6622cf21c230f86477d59bb6","fixation cross","null","","","","","","","","","","","",""
"","1049","html-keyboard-response","369","425970","0.0-15.0-1.12","DEJIFkxr5s","644ff5cdfdce8f493ccc6ca9","6617fad957f7c6a12ea16e26","6622cf21c230f86477d59bb6","image grid","q","","","","","Phylogenetic_Distractor_Threat_target","2500","ongrid","q","3","Phylogenetic","true","experimental"
"","null","html-keyboard-response","370","426123","0.0-15.0-2.12","DEJIFkxr5s","644ff5cdfdce8f493ccc6ca9","6617fad957f7c6a12ea16e26","6622cf21c230f86477d59bb6","
    <div id=""grid-container"">
        <!-- Grid items will be dynamically added here -->
