"success","rt","trial_type","trial_index","time_elapsed","internal_node_id","unique_identifier","subject_id","study_id","session_id","stimulus","response","timeout","failed_images","failed_audio","failed_video","task","time_manipulation","respondedwhen","correctresponse","targetimagelocation","blocktype","correct","roundtype"
"true","5895","fullscreen","0","6900","0.0-0.0","WtEekY5gOT","632f7bec7eb646908138c15c","6617fad957f7c6a12ea16e26","6622cfcda82597f8f8d99aaa","","","","","","","","","","","","","",""
"","11945","html-keyboard-response","1","18846","0.0-1.0","WtEekY5gOT","632f7bec7eb646908138c15c","6617fad957f7c6a12ea16e26","6622cfcda82597f8f8d99aaa","instruction screen 0"," ","","","","","","","","","","","",""
"true","","preload","2","20730","0.0-2.0","WtEekY5gOT","632f7bec7eb646908138c15c","6617fad957f7c6a12ea16e26","6622cfcda82597f8f8d99aaa","","","false","[]","[]","[]","","","","","","","",""
"","15231","html-keyboard-response","3","35962","0.0-3.0","WtEekY5gOT","632f7bec7eb646908138c15c","6617fad957f7c6a12ea16e26","6622cfcda82597f8f8d99aaa","instruction screen 1"," ","","","","","","","","","","","",""
"","17679","html-keyboard-response","4","53646","0.0-4.0","WtEekY5gOT","632f7bec7eb646908138c15c","6617fad957f7c6a12ea16e26","6622cfcda82597f8f8d99aaa","instruction screen 2","q","","","","","","","","","","","",""
"","5406","html-keyboard-response","5","59057","0.0-5.0","WtEekY5gOT","632f7bec7eb646908138c15c","6617fad957f7c6a12ea16e26","6622cfcda82597f8f8d99aaa","instruction screen 3","p","","","","","","","","","","","",""
"","5495","html-keyboard-response","6","64554","0.0-6.0","WtEekY5gOT","632f7bec7eb646908138c15c","6617fad957f7c6a12ea16e26","6622cfcda82597f8f8d99aaa","instruction screen 4"," ","","","","","","","","","","","",""
"","10690","html-keyboard-response","7","75265","0.0-7.0","WtEekY5gOT","632f7bec7eb646908138c15c","6617fad957f7c6a12ea16e26","6622cfcda82597f8f8d99aaa","instruction screen 5","q","","","","","","","","","","","",""
"","null","html-keyboard-response","8","75799","0.0-8.0","WtEekY5gOT","632f7bec7eb646908138c15c","6617fad957f7c6a12ea16e26","6622cfcda82597f8f8d99aaa","fixation cross","null","","","","","","","","","","","",""
"","null","html-keyboard-response","9","76311","0.0-9.0-0.0","WtEekY5gOT","632f7bec7eb646908138c15c","6617fad957f7c6a12ea16e26","6622cfcda82597f8f8d99aaa","fixation cross","null","","","","","","","","","","","",""
"","2233","html-keyboard-response","10","78545","0.0-9.0-1.0","WtEekY5gOT","632f7bec7eb646908138c15c","6617fad957f7c6a12ea16e26","6622cfcda82597f8f8d99aaa","image grid","q","","","","","Ontogenetic_Distractor_Threat_target","3000","ongrid","q","7","Ontogenetic","true","practice"
"","null","html-keyboard-response","11","78702","0.0-9.0-2.0","WtEekY5gOT","632f7bec7eb646908138c15c","6617fad957f7c6a12ea16e26","6622cfcda82597f8f8d99aaa","
    <div id=""grid-container"">
        <!-- Grid items will be dynamically added here -->
    </div>    ","null","","","","","","","","","","","",""
"","null","html-keyboard-response","12","79930","0.0-9.0-3.0","WtEekY5gOT","632f7bec7eb646908138c15c","6617fad957f7c6a12ea16e26","6622cfcda82597f8f8d99aaa","feedback screen","null","","","","","","","","","","","",""
"","null","html-keyboard-response","13","80447","0.0-9.0-0.1","WtEekY5gOT","632f7bec7eb646908138c15c","6617fad957f7c6a12ea16e26","6622cfcda82597f8f8d99aaa","fixation cross","null","","","","","","","","","","","",""
"","1204","html-keyboard-response","14","81653","0.0-9.0-1.1","WtEekY5gOT","632f7bec7eb646908138c15c","6617fad957f7c6a12ea16e26","6622cfcda82597f8f8d99aaa","image grid","p","","","","","Ontogenetic_Distractor_Nonthreat_target","2900","ongrid","p","6","Ontogenetic","true","practice"
"","null","html-keyboard-response","15","81819","0.0-9.0-2.1","WtEekY5gOT","632f7bec7eb646908138c15c","6617fad957f7c6a12ea16e26","6622cfcda82597f8f8d99aaa","
    <div id=""grid-container"">
        <!-- Grid items will be dynamically added here -->
    </div>    ","null","","","","","","","","","","","",""
"","null","html-keyboard-response","16","83049","0.0-9.0-3.1","WtEekY5gOT","632f7bec7eb646908138c15c","6617fad957f7c6a12ea16e26","6622cfcda82597f8f8d99aaa","feedback screen","null","","","","","","","","","","","",""
"","null","html-keyboard-response","17","83571","0.0-9.0-0.2","WtEekY5gOT","632f7bec7eb646908138c15c","6617fad957f7c6a12ea16e26","6622cfcda82597f8f8d99aaa","fixation cross","null","","","","","","","","","","","",""
"","1442","html-keyboard-response","18","85012","0.0-9.0-1.2","WtEekY5gOT","632f7bec7eb646908138c15c","6617fad957f7c6a12ea16e26","6622cfcda82597f8f8d99aaa","image grid","p","","","","","Phylogenetic_Distractor_Nonthreat_target","2800","ongrid","p","6","Ontogenetic","true","practice"
"","null","html-keyboard-response","19","85175","0.0-9.0-2.2","WtEekY5gOT","632f7bec7eb646908138c15c","6617fad957f7c6a12ea16e26","6622cfcda82597f8f8d99aaa","
    <div id=""grid-container"">
        <!-- Grid items will be dynamically added here -->
    </div>    ","null","","","","","","","","","","","",""
"","null","html-keyboard-response","20","86404","0.0-9.0-3.2","WtEekY5gOT","632f7bec7eb646908138c15c","6617fad957f7c6a12ea16e26","6622cfcda82597f8f8d99aaa","feedback screen","null","","","","","","","","","","","",""
"","null","html-keyboard-response","21","86925","0.0-9.0-0.3","WtEekY5gOT","632f7bec7eb646908138c15c","6617fad957f7c6a12ea16e26","6622cfcda82597f8f8d99aaa","fixation cross","null","","","","","","","","","","","",""
"","1383","html-keyboard-response","22","88309","0.0-9.0-1.3","WtEekY5gOT","632f7bec7eb646908138c15c","6617fad957f7c6a12ea16e26","6622cfcda82597f8f8d99aaa","image grid"," ","","","","","Ontogenetic_Distractor_notarget","2700","ongrid"," ","3","Ontogenetic","true","practice"
"","null","html-keyboard-response","23","88463","0.0-9.0-2.3","WtEekY5gOT","632f7bec7eb646908138c15c","6617fad957f7c6a12ea16e26","6622cfcda82597f8f8d99aaa","
    <div id=""grid-container"">
        <!-- Grid items will be dynamically added here -->
    </div>    ","null","","","","","","","","","","","",""
"","null","html-keyboard-response","24","89679","0.0-9.0-3.3","WtEekY5gOT","632f7bec7eb646908138c15c","6617fad957f7c6a12ea16e26","6622cfcda82597f8f8d99aaa","feedback screen","null","","","","","","","","","","","",""
"","null","html-keyboard-response","25","90206","0.0-9.0-0.4","WtEekY5gOT","632f7bec7eb646908138c15c","6617fad957f7c6a12ea16e26","6622cfcda82597f8f8d99aaa","fixation cross","null","","","","","","","","","","","",""
"","1569","html-keyboard-response","26","91776","0.0-9.0-1.4","WtEekY5gOT","632f7bec7eb646908138c15c","6617fad957f7c6a12ea16e26","6622cfcda82597f8f8d99aaa","image grid","q","","","","","Ontogenetic_Distractor_Threat_target","2600","ongrid","q","4","Ontogenetic","true","practice"
"","null","html-keyboard-response","27","91930","0.0-9.0-2.4","WtEekY5gOT","632f7bec7eb646908138c15c","6617fad957f7c6a12ea16e26","6622cfcda82597f8f8d99aaa","
    <div id=""grid-container"">
        <!-- Grid items will be dynamically added here -->
    </div>    ","null","","","","","","","","","","","",""
"","null","html-keyboard-response","28","93159","0.0-9.0-3.4","WtEekY5gOT","632f7bec7eb646908138c15c","6617fad957f7c6a12ea16e26","6622cfcda82597f8f8d99aaa","feedback screen","null","","","","","","","","","","","",""
"","null","html-keyboard-response","29","93680","0.0-9.0-0.5","WtEekY5gOT","632f7bec7eb646908138c15c","6617fad957f7c6a12ea16e26","6622cfcda82597f8f8d99aaa","fixation cross","null","","","","","","","","","","","",""
"","2332","html-keyboard-response","30","96013","0.0-9.0-1.5","WtEekY5gOT","632f7bec7eb646908138c15c","6617fad957f7c6a12ea16e26","6622cfcda82597f8f8d99aaa","image grid"," ","","","","","Phylogenetic_Distractor_notarget","2500","ongrid"," ","8","Ontogenetic","true","practice"
"","null","html-keyboard-response","31","96177","0.0-9.0-2.5","WtEekY5gOT","632f7bec7eb646908138c15c","6617fad957f7c6a12ea16e26","6622cfcda82597f8f8d99aaa","
    <div id=""grid-container"">
        <!-- Grid items will be dynamically added here -->
    </div>    ","null","","","","","","","","","","","",""
"","null","html-keyboard-response","32","97399","0.0-9.0-3.5","WtEekY5gOT","632f7bec7eb646908138c15c","6617fad957f7c6a12ea16e26","6622cfcda82597f8f8d99aaa","feedback screen","null","","","","","","","","","","","",""
"","null","html-keyboard-response","33","97915","0.0-9.0-0.6","WtEekY5gOT","632f7bec7eb646908138c15c","6617fad957f7c6a12ea16e26","6622cfcda82597f8f8d99aaa","fixation cross","null","","","","","","","","","","","",""
"","1166","html-keyboard-response","34","99081","0.0-9.0-1.6","WtEekY5gOT","632f7bec7eb646908138c15c","6617fad957f7c6a12ea16e26","6622cfcda82597f8f8d99aaa","image grid","p","","","","","Phylogenetic_Distractor_Threat_target","2400","ongrid","q","6","Ontogenetic","false","practice"
"","null","html-keyboard-response","35","99243","0.0-9.0-2.6","WtEekY5gOT","632f7bec7eb646908138c15c","6617fad957f7c6a12ea16e26","6622cfcda82597f8f8d99aaa","
    <div id=""grid-container"">
        <!-- Grid items will be dynamically added here -->
    </div>    ","null","","","","","","","","","","","",""
"","null","html-keyboard-response","36","100472","0.0-9.0-3.6","WtEekY5gOT","632f7bec7eb646908138c15c","6617fad957f7c6a12ea16e26","6622cfcda82597f8f8d99aaa","feedback screen","null","","","","","","","","","","","",""
"","null","html-keyboard-response","37","101003","0.0-9.0-0.7","WtEekY5gOT","632f7bec7eb646908138c15c","6617fad957f7c6a12ea16e26","6622cfcda82597f8f8d99aaa","fixation cross","null","","","","","","","","","","","",""
"","null","html-keyboard-response","38","103315","0.0-9.0-1.7","WtEekY5gOT","632f7bec7eb646908138c15c","6617fad957f7c6a12ea16e26","6622cfcda82597f8f8d99aaa","
        <div id=""grid-container"">
        <!-- Grid items will be dynamically added here -->
    </div>    ","null","","","","","","","","","","","",""
"","2900","html-keyboard-response","39","103915","0.0-9.0-2.7","WtEekY5gOT","632f7bec7eb646908138c15c","6617fad957f7c6a12ea16e26","6622cfcda82597f8f8d99aaa","mask grid","q","","","","","Phylogenetic_Distractor_notarget","2300","onmask"," ","5","Ontogenetic","false","practice"
"","null","html-keyboard-response","40","105144","0.0-9.0-3.7","WtEekY5gOT","632f7bec7eb646908138c15c","6617fad957f7c6a12ea16e26","6622cfcda82597f8f8d99aaa","feedback screen","null","","","","","","","","","","","",""
"","null","html-keyboard-response","41","105665","0.0-9.0-0.8","WtEekY5gOT","632f7bec7eb646908138c15c","6617fad957f7c6a12ea16e26","6622cfcda82597f8f8d99aaa","fixation cross","null","","","","","","","","","","","",""
"","1711","html-keyboard-response","42","107377","0.0-9.0-1.8","WtEekY5gOT","632f7bec7eb646908138c15c","6617fad957f7c6a12ea16e26","6622cfcda82597f8f8d99aaa","image grid","q","","","","","Phylogenetic_Distractor_Threat_target","2200","ongrid","q","3","Ontogenetic","true","practice"
"","null","html-keyboard-response","43","107540","0.0-9.0-2.8","WtEekY5gOT","632f7bec7eb646908138c15c","6617fad957f7c6a12ea16e26","6622cfcda82597f8f8d99aaa","
    <div id=""grid-container"">
        <!-- Grid items will be dynamically added here -->
    </div>    ","null","","","","","","","","","","","",""
"","null","html-keyboard-response","44","108763","0.0-9.0-3.8","WtEekY5gOT","632f7bec7eb646908138c15c","6617fad957f7c6a12ea16e26","6622cfcda82597f8f8d99aaa","feedback screen","null","","","","","","","","","","","",""
"","null","html-keyboard-response","45","109270","0.0-9.0-0.9","WtEekY5gOT","632f7bec7eb646908138c15c","6617fad957f7c6a12ea16e26","6622cfcda82597f8f8d99aaa","fixation cross","null","","","","","","","","","","","",""
"","1314","html-keyboard-response","46","110583","0.0-9.0-1.9","WtEekY5gOT","632f7bec7eb646908138c15c","6617fad957f7c6a12ea16e26","6622cfcda82597f8f8d99aaa","image grid","q","","","","","Phylogenetic_Distractor_Threat_target","2100","ongrid","q","3","Ontogenetic","true","practice"
"","null","html-keyboard-response","47","110735","0.0-9.0-2.9","WtEekY5gOT","632f7bec7eb646908138c15c","6617fad957f7c6a12ea16e26","6622cfcda82597f8f8d99aaa","
    <div id=""grid-container"">
        <!-- Grid items will be dynamically added here -->
    </div>    ","null","","","","","","","","","","","",""
"","null","html-keyboard-response","48","111966","0.0-9.0-3.9","WtEekY5gOT","632f7bec7eb646908138c15c","6617fad957f7c6a12ea16e26","6622cfcda82597f8f8d99aaa","feedback screen","null","","","","","","","","","","","",""
"","null","html-keyboard-response","49","112476","0.0-9.0-0.10","WtEekY5gOT","632f7bec7eb646908138c15c","6617fad957f7c6a12ea16e26","6622cfcda82597f8f8d99aaa","fixation cross","null","","","","","","","","","","","",""
"","1698","html-keyboard-response","50","114175","0.0-9.0-1.10","WtEekY5gOT","632f7bec7eb646908138c15c","6617fad957f7c6a12ea16e26","6622cfcda82597f8f8d99aaa","image grid","q","","","","","Ontogenetic_Distractor_Threat_target","2000","ongrid","q","4","Ontogenetic","true","practice"
"","null","html-keyboard-response","51","114330","0.0-9.0-2.10","WtEekY5gOT","632f7bec7eb646908138c15c","6617fad957f7c6a12ea16e26","6622cfcda82597f8f8d99aaa","
    <div id=""grid-container"">
        <!-- Grid items will be dynamically added here -->
    </div>    ","null","","","","","","","","","","","",""
"","null","html-keyboard-response","52","115549","0.0-9.0-3.10","WtEekY5gOT","632f7bec7eb646908138c15c","6617fad957f7c6a12ea16e26","6622cfcda82597f8f8d99aaa","feedback screen","null","","","","","","","","","","","",""
"","null","html-keyboard-response","53","116065","0.0-9.0-0.11","WtEekY5gOT","632f7bec7eb646908138c15c","6617fad957f7c6a12ea16e26","6622cfcda82597f8f8d99aaa","fixation cross","null","","","","","","","","","","","",""
"","1694","html-keyboard-response","54","117760","0.0-9.0-1.11","WtEekY5gOT","632f7bec7eb646908138c15c","6617fad957f7c6a12ea16e26","6622cfcda82597f8f8d99aaa","image grid"," ","","","","","Ontogenetic_Distractor_notarget","1900","ongrid"," ","1","Ontogenetic","true","practice"
"","null","html-keyboard-response","55","117925","0.0-9.0-2.11","WtEekY5gOT","632f7bec7eb646908138c15c","6617fad957f7c6a12ea16e26","6622cfcda82597f8f8d99aaa","
    <div id=""grid-container"">
        <!-- Grid items will be dynamically added here -->
    </div>    ","null","","","","","","","","","","","",""
"","null","html-keyboard-response","56","119154","0.0-9.0-3.11","WtEekY5gOT","632f7bec7eb646908138c15c","6617fad957f7c6a12ea16e26","6622cfcda82597f8f8d99aaa","feedback screen","null","","","","","","","","","","","",""
"","null","html-keyboard-response","57","119675","0.0-9.0-0.12","WtEekY5gOT","632f7bec7eb646908138c15c","6617fad957f7c6a12ea16e26","6622cfcda82597f8f8d99aaa","fixation cross","null","","","","","","","","","","","",""
"","1002","html-keyboard-response","58","120677","0.0-9.0-1.12","WtEekY5gOT","632f7bec7eb646908138c15c","6617fad957f7c6a12ea16e26","6622cfcda82597f8f8d99aaa","image grid","q","","","","","Ontogenetic_Distractor_Threat_target","1800","ongrid","q","5","Ontogenetic","true","practice"
"","null","html-keyboard-response","59","120847","0.0-9.0-2.12","WtEekY5gOT","632f7bec7eb646908138c15c","6617fad957f7c6a12ea16e26","6622cfcda82597f8f8d99aaa","
    <div id=""grid-container"">
        <!-- Grid items will be dynamically added here -->
    </div>    ","null","","","","","","","","","","","",""
"","null","html-keyboard-response","60","122055","0.0-9.0-3.12","WtEekY5gOT","632f7bec7eb646908138c15c","6617fad957f7c6a12ea16e26","6622cfcda82597f8f8d99aaa","feedback screen","null","","","","","","","","","","","",""
"","null","html-keyboard-response","61","122576","0.0-9.0-0.13","WtEekY5gOT","632f7bec7eb646908138c15c","6617fad957f7c6a12ea16e26","6622cfcda82597f8f8d99aaa","fixation cross","null","","","","","","","","","","","",""
"","1088","html-keyboard-response","62","123664","0.0-9.0-1.13","WtEekY5gOT","632f7bec7eb646908138c15c","6617fad957f7c6a12ea16e26","6622cfcda82597f8f8d99aaa","image grid","p","","","","","Ontogenetic_Distractor_Nonthreat_target","1700","ongrid","p","4","Ontogenetic","true","practice"
"","null","html-keyboard-response","63","123826","0.0-9.0-2.13","WtEekY5gOT","632f7bec7eb646908138c15c","6617fad957f7c6a12ea16e26","6622cfcda82597f8f8d99aaa","
    <div id=""grid-container"">
        <!-- Grid items will be dynamically added here -->
    </div>    ","null","","","","","","","","","","","",""
"","null","html-keyboard-response","64","125055","0.0-9.0-3.13","WtEekY5gOT","632f7bec7eb646908138c15c","6617fad957f7c6a12ea16e26","6622cfcda82597f8f8d99aaa","feedback screen","null","","","","","","","","","","","",""
"","null","html-keyboard-response","65","125575","0.0-9.0-0.14","WtEekY5gOT","632f7bec7eb646908138c15c","6617fad957f7c6a12ea16e26","6622cfcda82597f8f8d99aaa","fixation cross","null","","","","","","","","","","","",""
"","860","html-keyboard-response","66","126435","0.0-9.0-1.14","WtEekY5gOT","632f7bec7eb646908138c15c","6617fad957f7c6a12ea16e26","6622cfcda82597f8f8d99aaa","image grid","p","","","","","Ontogenetic_Distractor_Nonthreat_target","1600","ongrid","p","3","Ontogenetic","true","practice"
"","null","html-keyboard-response","67","126587","0.0-9.0-2.14","WtEekY5gOT","632f7bec7eb646908138c15c","6617fad957f7c6a12ea16e26","6622cfcda82597f8f8d99aaa","
    <div id=""grid-container"">
        <!-- Grid items will be dynamically added here -->
    </div>    ","null","","","","","","","","","","","",""
"","null","html-keyboard-response","68","127810","0.0-9.0-3.14","WtEekY5gOT","632f7bec7eb646908138c15c","6617fad957f7c6a12ea16e26","6622cfcda82597f8f8d99aaa","feedback screen","null","","","","","","","","","","","",""
"","null","html-keyboard-response","69","128331","0.0-9.0-0.15","WtEekY5gOT","632f7bec7eb646908138c15c","6617fad957f7c6a12ea16e26","6622cfcda82597f8f8d99aaa","fixation cross","null","","","","","","","","","","","",""
"","725","html-keyboard-response","70","129056","0.0-9.0-1.15","WtEekY5gOT","632f7bec7eb646908138c15c","6617fad957f7c6a12ea16e26","6622cfcda82597f8f8d99aaa","image grid","p","","","","","Ontogenetic_Distractor_Nonthreat_target","1500","ongrid","p","2","Ontogenetic","true","practice"
"","null","html-keyboard-response","71","129212","0.0-9.0-2.15","WtEekY5gOT","632f7bec7eb646908138c15c","6617fad957f7c6a12ea16e26","6622cfcda82597f8f8d99aaa","
    <div id=""grid-container"">
        <!-- Grid items will be dynamically added here -->
    </div>    ","null","","","","","","","","","","","",""
"","null","html-keyboard-response","72","130456","0.0-9.0-3.15","WtEekY5gOT","632f7bec7eb646908138c15c","6617fad957f7c6a12ea16e26","6622cfcda82597f8f8d99aaa","feedback screen","null","","","","","","","","","","","",""
"","null","html-keyboard-response","73","130977","0.0-9.0-0.16","WtEekY5gOT","632f7bec7eb646908138c15c","6617fad957f7c6a12ea16e26","6622cfcda82597f8f8d99aaa","fixation cross","null","","","","","","","","","","","",""
"","null","html-keyboard-response","74","132393","0.0-9.0-1.16","WtEekY5gOT","632f7bec7eb646908138c15c","6617fad957f7c6a12ea16e26","6622cfcda82597f8f8d99aaa","
        <div id=""grid-container"">
        <!-- Grid items will be dynamically added here -->
    </div>    ","null","","","","","","","","","","","",""
"","1695","html-keyboard-response","75","132689","0.0-9.0-2.16","WtEekY5gOT","632f7bec7eb646908138c15c","6617fad957f7c6a12ea16e26","6622cfcda82597f8f8d99aaa","mask grid","p","","","","","Phylogenetic_Distractor_Nonthreat_target","1400","onmask","p","2","Ontogenetic","true","practice"
"","null","html-keyboard-response","76","133918","0.0-9.0-3.16","WtEekY5gOT","632f7bec7eb646908138c15c","6617fad957f7c6a12ea16e26","6622cfcda82597f8f8d99aaa","feedback screen","null","","","","","","","","","","","",""
"","null","html-keyboard-response","77","134450","0.0-9.0-0.17","WtEekY5gOT","632f7bec7eb646908138c15c","6617fad957f7c6a12ea16e26","6622cfcda82597f8f8d99aaa","fixation cross","null","","","","","","","","","","","",""
"","null","html-keyboard-response","78","135764","0.0-9.0-1.17","WtEekY5gOT","632f7bec7eb646908138c15c","6617fad957f7c6a12ea16e26","6622cfcda82597f8f8d99aaa","
        <div id=""grid-container"">
        <!-- Grid items will be dynamically added here -->
    </div>    ","null","","","","","","","","","","","",""
"","1800","html-keyboard-response","79","136264","0.0-9.0-2.17","WtEekY5gOT","632f7bec7eb646908138c15c","6617fad957f7c6a12ea16e26","6622cfcda82597f8f8d99aaa","mask grid","p","","","","","Phylogenetic_Distractor_Nonthreat_target","1300","onmask","p","6","Ontogenetic","true","practice"
"","null","html-keyboard-response","80","137471","0.0-9.0-3.17","WtEekY5gOT","632f7bec7eb646908138c15c","6617fad957f7c6a12ea16e26","6622cfcda82597f8f8d99aaa","feedback screen","null","","","","","","","","","","","",""
"","null","html-keyboard-response","81","137992","0.0-9.0-0.18","WtEekY5gOT","632f7bec7eb646908138c15c","6617fad957f7c6a12ea16e26","6622cfcda82597f8f8d99aaa","fixation cross","null","","","","","","","","","","","",""
"","1007","html-keyboard-response","82","138999","0.0-9.0-1.18","WtEekY5gOT","632f7bec7eb646908138c15c","6617fad957f7c6a12ea16e26","6622cfcda82597f8f8d99aaa","image grid","p","","","","","Phylogenetic_Distractor_Nonthreat_target","1200","ongrid","p","6","Ontogenetic","true","practice"
"","null","html-keyboard-response","83","139159","0.0-9.0-2.18","WtEekY5gOT","632f7bec7eb646908138c15c","6617fad957f7c6a12ea16e26","6622cfcda82597f8f8d99aaa","
    <div id=""grid-container"">
        <!-- Grid items will be dynamically added here -->
    </div>    ","null","","","","","","","","","","","",""
"","null","html-keyboard-response","84","140410","0.0-9.0-3.18","WtEekY5gOT","632f7bec7eb646908138c15c","6617fad957f7c6a12ea16e26","6622cfcda82597f8f8d99aaa","feedback screen","null","","","","","","","","","","","",""
"","null","html-keyboard-response","85","140930","0.0-9.0-0.19","WtEekY5gOT","632f7bec7eb646908138c15c","6617fad957f7c6a12ea16e26","6622cfcda82597f8f8d99aaa","fixation cross","null","","","","","","","","","","","",""
"","null","html-keyboard-response","86","142049","0.0-9.0-1.19","WtEekY5gOT","632f7bec7eb646908138c15c","6617fad957f7c6a12ea16e26","6622cfcda82597f8f8d99aaa","
        <div id=""grid-container"">
        <!-- Grid items will be dynamically added here -->
    </div>    ","null","","","","","","","","","","","",""
"","1466","html-keyboard-response","87","142416","0.0-9.0-2.19","WtEekY5gOT","632f7bec7eb646908138c15c","6617fad957f7c6a12ea16e26","6622cfcda82597f8f8d99aaa","mask grid","p","","","","","Phylogenetic_Distractor_Threat_target","1100","onmask","q","5","Ontogenetic","false","practice"
"","null","html-keyboard-response","88","143650","0.0-9.0-3.19","WtEekY5gOT","632f7bec7eb646908138c15c","6617fad957f7c6a12ea16e26","6622cfcda82597f8f8d99aaa","feedback screen","null","","","","","","","","","","","",""
"","4001","html-keyboard-response","89","147673","0.0-10.0","WtEekY5gOT","632f7bec7eb646908138c15c","6617fad957f7c6a12ea16e26","6622cfcda82597f8f8d99aaa","pre-experimental_briefing"," ","","","","","","","","","","","",""
"","null","html-keyboard-response","90","150211","0.0-11.0-0.0","WtEekY5gOT","632f7bec7eb646908138c15c","6617fad957f7c6a12ea16e26","6622cfcda82597f8f8d99aaa","fixation cross","null","","","","","","","","","","","",""
"","null","html-keyboard-response","91","151028","0.0-11.0-1.0","WtEekY5gOT","632f7bec7eb646908138c15c","6617fad957f7c6a12ea16e26","6622cfcda82597f8f8d99aaa","
        <div id=""grid-container"">
        <!-- Grid items will be dynamically added here -->
    </div>    ","null","","","","","","","","","","","",""
"","3552","html-keyboard-response","92","153780","0.0-11.0-2.0","WtEekY5gOT","632f7bec7eb646908138c15c","6617fad957f7c6a12ea16e26","6622cfcda82597f8f8d99aaa","mask grid"," ","","","","","Ontogenetic_Distractor_Nonthreat_target","800","onmask","p","6","Ontogenetic","false","experimental"
"","null","html-keyboard-response","93","154486","0.0-11.0-0.1","WtEekY5gOT","632f7bec7eb646908138c15c","6617fad957f7c6a12ea16e26","6622cfcda82597f8f8d99aaa","fixation cross","null","","","","","","","","","","","",""
"","null","html-keyboard-response","94","155294","0.0-11.0-1.1","WtEekY5gOT","632f7bec7eb646908138c15c","6617fad957f7c6a12ea16e26","6622cfcda82597f8f8d99aaa","
        <div id=""grid-container"">
        <!-- Grid items will be dynamically added here -->
    </div>    ","null","","","","","","","","","","","",""
"","1441","html-keyboard-response","95","155935","0.0-11.0-2.1","WtEekY5gOT","632f7bec7eb646908138c15c","6617fad957f7c6a12ea16e26","6622cfcda82597f8f8d99aaa","mask grid","q","","","","","Ontogenetic_Distractor_Nonthreat_target","800","onmask","p","7","Ontogenetic","false","experimental"
"","null","html-keyboard-response","96","156665","0.0-11.0-0.2","WtEekY5gOT","632f7bec7eb646908138c15c","6617fad957f7c6a12ea16e26","6622cfcda82597f8f8d99aaa","fixation cross","null","","","","","","","","","","","",""
"","null","html-keyboard-response","97","157472","0.0-11.0-1.2","WtEekY5gOT","632f7bec7eb646908138c15c","6617fad957f7c6a12ea16e26","6622cfcda82597f8f8d99aaa","
        <div id=""grid-container"">
        <!-- Grid items will be dynamically added here -->
    </div>    ","null","","","","","","","","","","","",""
"","1524","html-keyboard-response","98","158197","0.0-11.0-2.2","WtEekY5gOT","632f7bec7eb646908138c15c","6617fad957f7c6a12ea16e26","6622cfcda82597f8f8d99aaa","mask grid","q","","","","","Ontogenetic_Distractor_Threat_target","800","onmask","q","5","Ontogenetic","true","experimental"
"","null","html-keyboard-response","99","158904","0.0-11.0-0.3","WtEekY5gOT","632f7bec7eb646908138c15c","6617fad957f7c6a12ea16e26","6622cfcda82597f8f8d99aaa","fixation cross","null","","","","","","","","","","","",""
"","null","html-keyboard-response","100","159711","0.0-11.0-1.3","WtEekY5gOT","632f7bec7eb646908138c15c","6617fad957f7c6a12ea16e26","6622cfcda82597f8f8d99aaa","
        <div id=""grid-container"">
        <!-- Grid items will be dynamically added here -->
    </div>    ","null","","","","","","","","","","","",""
"","1184","html-keyboard-response","101","160096","0.0-11.0-2.3","WtEekY5gOT","632f7bec7eb646908138c15c","6617fad957f7c6a12ea16e26","6622cfcda82597f8f8d99aaa","mask grid","p","","","","","Ontogenetic_Distractor_Nonthreat_target","800","onmask","p","7","Ontogenetic","true","experimental"
"","null","html-keyboard-response","102","160815","0.0-11.0-0.4","WtEekY5gOT","632f7bec7eb646908138c15c","6617fad957f7c6a12ea16e26","6622cfcda82597f8f8d99aaa","fixation cross","null","","","","","","","","","","","",""
"","null","html-keyboard-response","103","161627","0.0-11.0-1.4","WtEekY5gOT","632f7bec7eb646908138c15c","6617fad957f7c6a12ea16e26","6622cfcda82597f8f8d99aaa","
        <div id=""grid-container"">
        <!-- Grid items will be dynamically added here -->
    </div>    ","null","","","","","","","","","","","",""
"","1629","html-keyboard-response","104","162456","0.0-11.0-2.4","WtEekY5gOT","632f7bec7eb646908138c15c","6617fad957f7c6a12ea16e26","6622cfcda82597f8f8d99aaa","mask grid"," ","","","","","Ontogenetic_Distractor_Threat_target","800","onmask","q","3","Ontogenetic","false","experimental"
"","null","html-keyboard-response","105","163169","0.0-11.0-0.5","WtEekY5gOT","632f7bec7eb646908138c15c","6617fad957f7c6a12ea16e26","6622cfcda82597f8f8d99aaa","fixation cross","null","","","","","","","","","","","",""
"","null","html-keyboard-response","106","163993","0.0-11.0-1.5","WtEekY5gOT","632f7bec7eb646908138c15c","6617fad957f7c6a12ea16e26","6622cfcda82597f8f8d99aaa","
        <div id=""grid-container"">
        <!-- Grid items will be dynamically added here -->
    </div>    ","null","","","","","","","","","","","",""
"","1423","html-keyboard-response","107","164616","0.0-11.0-2.5","WtEekY5gOT","632f7bec7eb646908138c15c","6617fad957f7c6a12ea16e26","6622cfcda82597f8f8d99aaa","mask grid","p","","","","","Ontogenetic_Distractor_Nonthreat_target","800","onmask","p","5","Ontogenetic","true","experimental"
"","null","html-keyboard-response","108","165331","0.0-11.0-0.6","WtEekY5gOT","632f7bec7eb646908138c15c","6617fad957f7c6a12ea16e26","6622cfcda82597f8f8d99aaa","fixation cross","null","","","","","","","","","","","",""
"","null","html-keyboard-response","109","166153","0.0-11.0-1.6","WtEekY5gOT","632f7bec7eb646908138c15c","6617fad957f7c6a12ea16e26","6622cfcda82597f8f8d99aaa","
        <div id=""grid-container"">
        <!-- Grid items will be dynamically added here -->
    </div>    ","null","","","","","","","","","","","",""
"","1243","html-keyboard-response","110","166596","0.0-11.0-2.6","WtEekY5gOT","632f7bec7eb646908138c15c","6617fad957f7c6a12ea16e26","6622cfcda82597f8f8d99aaa","mask grid","p","","","","","Ontogenetic_Distractor_Nonthreat_target","800","onmask","p","8","Ontogenetic","true","experimental"
"","null","html-keyboard-response","111","167305","0.0-11.0-0.7","WtEekY5gOT","632f7bec7eb646908138c15c","6617fad957f7c6a12ea16e26","6622cfcda82597f8f8d99aaa","fixation cross","null","","","","","","","","","","","",""
"","null","html-keyboard-response","112","168112","0.0-11.0-1.7","WtEekY5gOT","632f7bec7eb646908138c15c","6617fad957f7c6a12ea16e26","6622cfcda82597f8f8d99aaa","
        <div id=""grid-container"">
        <!-- Grid items will be dynamically added here -->
    </div>    ","null","","","","","","","","","","","",""
"","1920","html-keyboard-response","113","169233","0.0-11.0-2.7","WtEekY5gOT","632f7bec7eb646908138c15c","6617fad957f7c6a12ea16e26","6622cfcda82597f8f8d99aaa","mask grid"," ","","","","","Ontogenetic_Distractor_notarget","800","onmask"," ","3","Ontogenetic","true","experimental"
"","null","html-keyboard-response","114","169951","0.0-11.0-0.8","WtEekY5gOT","632f7bec7eb646908138c15c","6617fad957f7c6a12ea16e26","6622cfcda82597f8f8d99aaa","fixation cross","null","","","","","","","","","","","",""
"","null","html-keyboard-response","115","170753","0.0-11.0-1.8","WtEekY5gOT","632f7bec7eb646908138c15c","6617fad957f7c6a12ea16e26","6622cfcda82597f8f8d99aaa","
        <div id=""grid-container"">
        <!-- Grid items will be dynamically added here -->
    </div>    ","null","","","","","","","","","","","",""
"","1309","html-keyboard-response","116","171263","0.0-11.0-2.8","WtEekY5gOT","632f7bec7eb646908138c15c","6617fad957f7c6a12ea16e26","6622cfcda82597f8f8d99aaa","mask grid","q","","","","","Ontogenetic_Distractor_Threat_target","800","onmask","q","5","Ontogenetic","true","experimental"
"","null","html-keyboard-response","117","171973","0.0-11.0-0.9","WtEekY5gOT","632f7bec7eb646908138c15c","6617fad957f7c6a12ea16e26","6622cfcda82597f8f8d99aaa","fixation cross","null","","","","","","","","","","","",""
"","null","html-keyboard-response","118","172794","0.0-11.0-1.9","WtEekY5gOT","632f7bec7eb646908138c15c","6617fad957f7c6a12ea16e26","6622cfcda82597f8f8d99aaa","
        <div id=""grid-container"">
        <!-- Grid items will be dynamically added here -->
    </div>    ","null","","","","","","","","","","","",""
"","1257","html-keyboard-response","119","173252","0.0-11.0-2.9","WtEekY5gOT","632f7bec7eb646908138c15c","6617fad957f7c6a12ea16e26","6622cfcda82597f8f8d99aaa","mask grid","p","","","","","Ontogenetic_Distractor_Nonthreat_target","800","onmask","p","7","Ontogenetic","true","experimental"
"","null","html-keyboard-response","120","173992","0.0-11.0-0.10","WtEekY5gOT","632f7bec7eb646908138c15c","6617fad957f7c6a12ea16e26","6622cfcda82597f8f8d99aaa","fixation cross","null","","","","","","","","","","","",""
"","null","html-keyboard-response","121","174808","0.0-11.0-1.10","WtEekY5gOT","632f7bec7eb646908138c15c","6617fad957f7c6a12ea16e26","6622cfcda82597f8f8d99aaa","
        <div id=""grid-container"">
        <!-- Grid items will be dynamically added here -->
    </div>    ","null","","","","","","","","","","","",""
"","2335","html-keyboard-response","122","176344","0.0-11.0-2.10","WtEekY5gOT","632f7bec7eb646908138c15c","6617fad957f7c6a12ea16e26","6622cfcda82597f8f8d99aaa","mask grid"," ","","","","","Ontogenetic_Distractor_Nonthreat_target","800","onmask","p","3","Ontogenetic","false","experimental"
"","null","html-keyboard-response","123","177070","0.0-11.0-0.11","WtEekY5gOT","632f7bec7eb646908138c15c","6617fad957f7c6a12ea16e26","6622cfcda82597f8f8d99aaa","fixation cross","null","","","","","","","","","","","",""
"","null","html-keyboard-response","124","177878","0.0-11.0-1.11","WtEekY5gOT","632f7bec7eb646908138c15c","6617fad957f7c6a12ea16e26","6622cfcda82597f8f8d99aaa","
        <div id=""grid-container"">
        <!-- Grid items will be dynamically added here -->
    </div>    ","null","","","","","","","","","","","",""
"","1197","html-keyboard-response","125","178275","0.0-11.0-2.11","WtEekY5gOT","632f7bec7eb646908138c15c","6617fad957f7c6a12ea16e26","6622cfcda82597f8f8d99aaa","mask grid","q","","","","","Ontogenetic_Distractor_Threat_target","800","onmask","q","6","Ontogenetic","true","experimental"
"","null","html-keyboard-response","126","179002","0.0-11.0-0.12","WtEekY5gOT","632f7bec7eb646908138c15c","6617fad957f7c6a12ea16e26","6622cfcda82597f8f8d99aaa","fixation cross","null","","","","","","","","","","","",""
"","null","html-keyboard-response","127","179804","0.0-11.0-1.12","WtEekY5gOT","632f7bec7eb646908138c15c","6617fad957f7c6a12ea16e26","6622cfcda82597f8f8d99aaa","
        <div id=""grid-container"">
        <!-- Grid items will be dynamically added here -->
    </div>    ","null","","","","","","","","","","","",""
"","1159","html-keyboard-response","128","180165","0.0-11.0-2.12","WtEekY5gOT","632f7bec7eb646908138c15c","6617fad957f7c6a12ea16e26","6622cfcda82597f8f8d99aaa","mask grid","p","","","","","Ontogenetic_Distractor_Nonthreat_target","800","onmask","p","9","Ontogenetic","true","experimental"
"","null","html-keyboard-response","129","180883","0.0-11.0-0.13","WtEekY5gOT","632f7bec7eb646908138c15c","6617fad957f7c6a12ea16e26","6622cfcda82597f8f8d99aaa","fixation cross","null","","","","","","","","","","","",""
"","null","html-keyboard-response","130","181706","0.0-11.0-1.13","WtEekY5gOT","632f7bec7eb646908138c15c","6617fad957f7c6a12ea16e26","6622cfcda82597f8f8d99aaa","
        <div id=""grid-container"">
        <!-- Grid items will be dynamically added here -->
    </div>    ","null","","","","","","","","","","","",""
"","1449","html-keyboard-response","131","182356","0.0-11.0-2.13","WtEekY5gOT","632f7bec7eb646908138c15c","6617fad957f7c6a12ea16e26","6622cfcda82597f8f8d99aaa","mask grid","q","","","","","Ontogenetic_Distractor_Threat_target","800","onmask","q","5","Ontogenetic","true","experimental"
"","null","html-keyboard-response","132","183071","0.0-11.0-0.14","WtEekY5gOT","632f7bec7eb646908138c15c","6617fad957f7c6a12ea16e26","6622cfcda82597f8f8d99aaa","fixation cross","null","","","","","","","","","","","",""
"","null","html-keyboard-response","133","183893","0.0-11.0-1.14","WtEekY5gOT","632f7bec7eb646908138c15c","6617fad957f7c6a12ea16e26","6622cfcda82597f8f8d99aaa","
        <div id=""grid-container"">
        <!-- Grid items will be dynamically added here -->
    </div>    ","null","","","","","","","","","","","",""
"","898","html-keyboard-response","134","183991","0.0-11.0-2.14","WtEekY5gOT","632f7bec7eb646908138c15c","6617fad957f7c6a12ea16e26","6622cfcda82597f8f8d99aaa","mask grid","q","","","","","Ontogenetic_Distractor_Threat_target","800","onmask","q","8","Ontogenetic","true","experimental"
"","null","html-keyboard-response","135","184721","0.0-11.0-0.15","WtEekY5gOT","632f7bec7eb646908138c15c","6617fad957f7c6a12ea16e26","6622cfcda82597f8f8d99aaa","fixation cross","null","","","","","","","","","","","",""
"","null","html-keyboard-response","136","185545","0.0-11.0-1.15","WtEekY5gOT","632f7bec7eb646908138c15c","6617fad957f7c6a12ea16e26","6622cfcda82597f8f8d99aaa","
        <div id=""grid-container"">
        <!-- Grid items will be dynamically added here -->
    </div>    ","null","","","","","","","","","","","",""
"","942","html-keyboard-response","137","185687","0.0-11.0-2.15","WtEekY5gOT","632f7bec7eb646908138c15c","6617fad957f7c6a12ea16e26","6622cfcda82597f8f8d99aaa","mask grid","q","","","","","Ontogenetic_Distractor_Threat_target","800","onmask","q","5","Ontogenetic","true","experimental"
"","null","html-keyboard-response","138","186409","0.0-11.0-0.16","WtEekY5gOT","632f7bec7eb646908138c15c","6617fad957f7c6a12ea16e26","6622cfcda82597f8f8d99aaa","fixation cross","null","","","","","","","","","","","",""
"","null","html-keyboard-response","139","187227","0.0-11.0-1.16","WtEekY5gOT","632f7bec7eb646908138c15c","6617fad957f7c6a12ea16e26","6622cfcda82597f8f8d99aaa","
        <div id=""grid-container"">
        <!-- Grid items will be dynamically added here -->
    </div>    ","null","","","","","","","","","","","",""
"","1152","html-keyboard-response","140","187579","0.0-11.0-2.16","WtEekY5gOT","632f7bec7eb646908138c15c","6617fad957f7c6a12ea16e26","6622cfcda82597f8f8d99aaa","mask grid","p","","","","","Ontogenetic_Distractor_Nonthreat_target","800","onmask","p","3","Ontogenetic","true","experimental"
"","null","html-keyboard-response","141","188309","0.0-11.0-0.17","WtEekY5gOT","632f7bec7eb646908138c15c","6617fad957f7c6a12ea16e26","6622cfcda82597f8f8d99aaa","fixation cross","null","","","","","","","","","","","",""
"","null","html-keyboard-response","142","189112","0.0-11.0-1.17","WtEekY5gOT","632f7bec7eb646908138c15c","6617fad957f7c6a12ea16e26","6622cfcda82597f8f8d99aaa","
        <div id=""grid-container"">
        <!-- Grid items will be dynamically added here -->
    </div>    ","null","","","","","","","","","","","",""
"","907","html-keyboard-response","143","189220","0.0-11.0-2.17","WtEekY5gOT","632f7bec7eb646908138c15c","6617fad957f7c6a12ea16e26","6622cfcda82597f8f8d99aaa","mask grid","p","","","","","Ontogenetic_Distractor_Nonthreat_target","800","onmask","p","3","Ontogenetic","true","experimental"
"","null","html-keyboard-response","144","189951","0.0-11.0-0.18","WtEekY5gOT","632f7bec7eb646908138c15c","6617fad957f7c6a12ea16e26","6622cfcda82597f8f8d99aaa","fixation cross","null","","","","","","","","","","","",""
"","null","html-keyboard-response","145","190753","0.0-11.0-1.18","WtEekY5gOT","632f7bec7eb646908138c15c","6617fad957f7c6a12ea16e26","6622cfcda82597f8f8d99aaa","
        <div id=""grid-container"">
        <!-- Grid items will be dynamically added here -->
    </div>    ","null","","","","","","","","","","","",""
"","935","html-keyboard-response","146","190889","0.0-11.0-2.18","WtEekY5gOT","632f7bec7eb646908138c15c","6617fad957f7c6a12ea16e26","6622cfcda82597f8f8d99aaa","mask grid","q","","","","","Ontogenetic_Distractor_Threat_target","800","onmask","q","9","Ontogenetic","true","experimental"
"","null","html-keyboard-response","147","191627","0.0-11.0-0.19","WtEekY5gOT","632f7bec7eb646908138c15c","6617fad957f7c6a12ea16e26","6622cfcda82597f8f8d99aaa","fixation cross","null","","","","","","","","","","","",""
"","null","html-keyboard-response","148","192440","0.0-11.0-1.19","WtEekY5gOT","632f7bec7eb646908138c15c","6617fad957f7c6a12ea16e26","6622cfcda82597f8f8d99aaa","
        <div id=""grid-container"">
        <!-- Grid items will be dynamically added here -->
    </div>    ","null","","","","","","","","","","","",""
"","1184","html-keyboard-response","149","192824","0.0-11.0-2.19","WtEekY5gOT","632f7bec7eb646908138c15c","6617fad957f7c6a12ea16e26","6622cfcda82597f8f8d99aaa","mask grid","p","","","","","Ontogenetic_Distractor_Nonthreat_target","800","onmask","p","3","Ontogenetic","true","experimental"
"","null","html-keyboard-response","150","193544","0.0-11.0-0.20","WtEekY5gOT","632f7bec7eb646908138c15c","6617fad957f7c6a12ea16e26","6622cfcda82597f8f8d99aaa","fixation cross","null","","","","","","","","","","","",""
"","null","html-keyboard-response","151","194353","0.0-11.0-1.20","WtEekY5gOT","632f7bec7eb646908138c15c","6617fad957f7c6a12ea16e26","6622cfcda82597f8f8d99aaa","
        <div id=""grid-container"">
        <!-- Grid items will be dynamically added here -->
    </div>    ","null","","","","","","","","","","","",""
"","1007","html-keyboard-response","152","194560","0.0-11.0-2.20","WtEekY5gOT","632f7bec7eb646908138c15c","6617fad957f7c6a12ea16e26","6622cfcda82597f8f8d99aaa","mask grid"," ","","","","","Ontogenetic_Distractor_notarget","800","onmask"," ","8","Ontogenetic","true","experimental"
"","null","html-keyboard-response","153","195278","0.0-11.0-0.21","WtEekY5gOT","632f7bec7eb646908138c15c","6617fad957f7c6a12ea16e26","6622cfcda82597f8f8d99aaa","fixation cross","null","","","","","","","","","","","",""
"","null","html-keyboard-response","154","196081","0.0-11.0-1.21","WtEekY5gOT","632f7bec7eb646908138c15c","6617fad957f7c6a12ea16e26","6622cfcda82597f8f8d99aaa","
        <div id=""grid-container"">
        <!-- Grid items will be dynamically added here -->
    </div>    ","null","","","","","","","","","","","",""
"","1442","html-keyboard-response","155","196723","0.0-11.0-2.21","WtEekY5gOT","632f7bec7eb646908138c15c","6617fad957f7c6a12ea16e26","6622cfcda82597f8f8d99aaa","mask grid"," ","","","","","Ontogenetic_Distractor_Threat_target","800","onmask","q","6","Ontogenetic","false","experimental"
"","null","html-keyboard-response","156","197430","0.0-11.0-0.22","WtEekY5gOT","632f7bec7eb646908138c15c","6617fad957f7c6a12ea16e26","6622cfcda82597f8f8d99aaa","fixation cross","null","","","","","","","","","","","",""
"","null","html-keyboard-response","157","198247","0.0-11.0-1.22","WtEekY5gOT","632f7bec7eb646908138c15c","6617fad957f7c6a12ea16e26","6622cfcda82597f8f8d99aaa","
        <div id=""grid-container"">
        <!-- Grid items will be dynamically added here -->
    </div>    ","null","","","","","","","","","","","",""
"","839","html-keyboard-response","158","198287","0.0-11.0-2.22","WtEekY5gOT","632f7bec7eb646908138c15c","6617fad957f7c6a12ea16e26","6622cfcda82597f8f8d99aaa","mask grid","q","","","","","Ontogenetic_Distractor_Threat_target","800","onmask","q","9","Ontogenetic","true","experimental"
"","null","html-keyboard-response","159","199002","0.0-11.0-0.23","WtEekY5gOT","632f7bec7eb646908138c15c","6617fad957f7c6a12ea16e26","6622cfcda82597f8f8d99aaa","fixation cross","null","","","","","","","","","","","",""
"","null","html-keyboard-response","160","199805","0.0-11.0-1.23","WtEekY5gOT","632f7bec7eb646908138c15c","6617fad957f7c6a12ea16e26","6622cfcda82597f8f8d99aaa","
        <div id=""grid-container"">
        <!-- Grid items will be dynamically added here -->
    </div>    ","null","","","","","","","","","","","",""
"","1439","html-keyboard-response","161","200444","0.0-11.0-2.23","WtEekY5gOT","632f7bec7eb646908138c15c","6617fad957f7c6a12ea16e26","6622cfcda82597f8f8d99aaa","mask grid"," ","","","","","Ontogenetic_Distractor_notarget","800","onmask"," ","7","Ontogenetic","true","experimental"
"","null","html-keyboard-response","162","201179","0.0-11.0-0.24","WtEekY5gOT","632f7bec7eb646908138c15c","6617fad957f7c6a12ea16e26","6622cfcda82597f8f8d99aaa","fixation cross","null","","","","","","","","","","","",""
"","null","html-keyboard-response","163","201985","0.0-11.0-1.24","WtEekY5gOT","632f7bec7eb646908138c15c","6617fad957f7c6a12ea16e26","6622cfcda82597f8f8d99aaa","
        <div id=""grid-container"">
        <!-- Grid items will be dynamically added here -->
    </div>    ","null","","","","","","","","","","","",""
"","1303","html-keyboard-response","164","202488","0.0-11.0-2.24","WtEekY5gOT","632f7bec7eb646908138c15c","6617fad957f7c6a12ea16e26","6622cfcda82597f8f8d99aaa","mask grid","p","","","","","Ontogenetic_Distractor_Nonthreat_target","800","onmask","p","7","Ontogenetic","true","experimental"
"","null","html-keyboard-response","165","203206","0.0-11.0-0.25","WtEekY5gOT","632f7bec7eb646908138c15c","6617fad957f7c6a12ea16e26","6622cfcda82597f8f8d99aaa","fixation cross","null","","","","","","","","","","","",""
"","773","html-keyboard-response","166","203980","0.0-11.0-1.25","WtEekY5gOT","632f7bec7eb646908138c15c","6617fad957f7c6a12ea16e26","6622cfcda82597f8f8d99aaa","image grid","q","","","","","Ontogenetic_Distractor_Threat_target","800","ongrid","q","1","Ontogenetic","true","experimental"
"","null","html-keyboard-response","167","204149","0.0-11.0-2.25","WtEekY5gOT","632f7bec7eb646908138c15c","6617fad957f7c6a12ea16e26","6622cfcda82597f8f8d99aaa","
    <div id=""grid-container"">
        <!-- Grid items will be dynamically added here -->
    </div>    ","null","","","","","","","","","","","",""
"","null","html-keyboard-response","168","204891","0.0-11.0-0.26","WtEekY5gOT","632f7bec7eb646908138c15c","6617fad957f7c6a12ea16e26","6622cfcda82597f8f8d99aaa","fixation cross","null","","","","","","","","","","","",""
"","null","html-keyboard-response","169","205705","0.0-11.0-1.26","WtEekY5gOT","632f7bec7eb646908138c15c","6617fad957f7c6a12ea16e26","6622cfcda82597f8f8d99aaa","
        <div id=""grid-container"">
        <!-- Grid items will be dynamically added here -->
    </div>    ","null","","","","","","","","","","","",""
"","1386","html-keyboard-response","170","206292","0.0-11.0-2.26","WtEekY5gOT","632f7bec7eb646908138c15c","6617fad957f7c6a12ea16e26","6622cfcda82597f8f8d99aaa","mask grid","p","","","","","Ontogenetic_Distractor_Nonthreat_target","800","onmask","p","1","Ontogenetic","true","experimental"
"","null","html-keyboard-response","171","207002","0.0-11.0-0.27","WtEekY5gOT","632f7bec7eb646908138c15c","6617fad957f7c6a12ea16e26","6622cfcda82597f8f8d99aaa","fixation cross","null","","","","","","","","","","","",""
"","null","html-keyboard-response","172","207809","0.0-11.0-1.27","WtEekY5gOT","632f7bec7eb646908138c15c","6617fad957f7c6a12ea16e26","6622cfcda82597f8f8d99aaa","
        <div id=""grid-container"">
        <!-- Grid items will be dynamically added here -->
    </div>    ","null","","","","","","","","","","","",""
"","1373","html-keyboard-response","173","208383","0.0-11.0-2.27","WtEekY5gOT","632f7bec7eb646908138c15c","6617fad957f7c6a12ea16e26","6622cfcda82597f8f8d99aaa","mask grid"," ","","","","","Ontogenetic_Distractor_Threat_target","800","onmask","q","6","Ontogenetic","false","experimental"
"","null","html-keyboard-response","174","209106","0.0-11.0-0.28","WtEekY5gOT","632f7bec7eb646908138c15c","6617fad957f7c6a12ea16e26","6622cfcda82597f8f8d99aaa","fixation cross","null","","","","","","","","","","","",""
"","null","html-keyboard-response","175","209919","0.0-11.0-1.28","WtEekY5gOT","632f7bec7eb646908138c15c","6617fad957f7c6a12ea16e26","6622cfcda82597f8f8d99aaa","
        <div id=""grid-container"">
        <!-- Grid items will be dynamically added here -->
    </div>    ","null","","","","","","","","","","","",""
"","976","html-keyboard-response","176","210095","0.0-11.0-2.28","WtEekY5gOT","632f7bec7eb646908138c15c","6617fad957f7c6a12ea16e26","6622cfcda82597f8f8d99aaa","mask grid","q","","","","","Ontogenetic_Distractor_Threat_target","800","onmask","q","5","Ontogenetic","true","experimental"
"","null","html-keyboard-response","177","210821","0.0-11.0-0.29","WtEekY5gOT","632f7bec7eb646908138c15c","6617fad957f7c6a12ea16e26","6622cfcda82597f8f8d99aaa","fixation cross","null","","","","","","","","","","","",""
"","null","html-keyboard-response","178","211627","0.0-11.0-1.29","WtEekY5gOT","632f7bec7eb646908138c15c","6617fad957f7c6a12ea16e26","6622cfcda82597f8f8d99aaa","
        <div id=""grid-container"">
        <!-- Grid items will be dynamically added here -->
    </div>    ","null","","","","","","","","","","","",""
"","837","html-keyboard-response","179","211664","0.0-11.0-2.29","WtEekY5gOT","632f7bec7eb646908138c15c","6617fad957f7c6a12ea16e26","6622cfcda82597f8f8d99aaa","mask grid","p","","","","","Ontogenetic_Distractor_Nonthreat_target","800","onmask","p","1","Ontogenetic","true","experimental"
"","null","html-keyboard-response","180","212378","0.0-11.0-0.30","WtEekY5gOT","632f7bec7eb646908138c15c","6617fad957f7c6a12ea16e26","6622cfcda82597f8f8d99aaa","fixation cross","null","","","","","","","","","","","",""
"","null","html-keyboard-response","181","213200","0.0-11.0-1.30","WtEekY5gOT","632f7bec7eb646908138c15c","6617fad957f7c6a12ea16e26","6622cfcda82597f8f8d99aaa","
        <div id=""grid-container"">
        <!-- Grid items will be dynamically added here -->
    </div>    ","null","","","","","","","","","","","",""
"","808","html-keyboard-response","182","213209","0.0-11.0-2.30","WtEekY5gOT","632f7bec7eb646908138c15c","6617fad957f7c6a12ea16e26","6622cfcda82597f8f8d99aaa","mask grid","p","","","","","Ontogenetic_Distractor_Nonthreat_target","800","onmask","p","4","Ontogenetic","true","experimental"
"","null","html-keyboard-response","183","213924","0.0-11.0-0.31","WtEekY5gOT","632f7bec7eb646908138c15c","6617fad957f7c6a12ea16e26","6622cfcda82597f8f8d99aaa","fixation cross","null","","","","","","","","","","","",""
"","null","html-keyboard-response","184","214736","0.0-11.0-1.31","WtEekY5gOT","632f7bec7eb646908138c15c","6617fad957f7c6a12ea16e26","6622cfcda82597f8f8d99aaa","
        <div id=""grid-container"">
        <!-- Grid items will be dynamically added here -->
    </div>    ","null","","","","","","","","","","","",""
"","808","html-keyboard-response","185","214745","0.0-11.0-2.31","WtEekY5gOT","632f7bec7eb646908138c15c","6617fad957f7c6a12ea16e26","6622cfcda82597f8f8d99aaa","mask grid","q","","","","","Ontogenetic_Distractor_Threat_target","800","onmask","q","6","Ontogenetic","true","experimental"
"","null","html-keyboard-response","186","215460","0.0-11.0-0.32","WtEekY5gOT","632f7bec7eb646908138c15c","6617fad957f7c6a12ea16e26","6622cfcda82597f8f8d99aaa","fixation cross","null","","","","","","","","","","","",""
"","747","html-keyboard-response","187","216208","0.0-11.0-1.32","WtEekY5gOT","632f7bec7eb646908138c15c","6617fad957f7c6a12ea16e26","6622cfcda82597f8f8d99aaa","image grid","p","","","","","Ontogenetic_Distractor_Nonthreat_target","800","ongrid","p","3","Ontogenetic","true","experimental"
"","null","html-keyboard-response","188","216365","0.0-11.0-2.32","WtEekY5gOT","632f7bec7eb646908138c15c","6617fad957f7c6a12ea16e26","6622cfcda82597f8f8d99aaa","
    <div id=""grid-container"">
        <!-- Grid items will be dynamically added here -->
    </div>    ","null","","","","","","","","","","","",""
"","null","html-keyboard-response","189","217096","0.0-11.0-0.33","WtEekY5gOT","632f7bec7eb646908138c15c","6617fad957f7c6a12ea16e26","6622cfcda82597f8f8d99aaa","fixation cross","null","","","","","","","","","","","",""
"","null","html-keyboard-response","190","217903","0.0-11.0-1.33","WtEekY5gOT","632f7bec7eb646908138c15c","6617fad957f7c6a12ea16e26","6622cfcda82597f8f8d99aaa","
        <div id=""grid-container"">
        <!-- Grid items will be dynamically added here -->
    </div>    ","null","","","","","","","","","","","",""
"","844","html-keyboard-response","191","217947","0.0-11.0-2.33","WtEekY5gOT","632f7bec7eb646908138c15c","6617fad957f7c6a12ea16e26","6622cfcda82597f8f8d99aaa","mask grid","q","","","","","Ontogenetic_Distractor_Threat_target","800","onmask","q","1","Ontogenetic","true","experimental"
"","null","html-keyboard-response","192","218668","0.0-11.0-0.34","WtEekY5gOT","632f7bec7eb646908138c15c","6617fad957f7c6a12ea16e26","6622cfcda82597f8f8d99aaa","fixation cross","null","","","","","","","","","","","",""
"","807","html-keyboard-response","193","219476","0.0-11.0-1.34","WtEekY5gOT","632f7bec7eb646908138c15c","6617fad957f7c6a12ea16e26","6622cfcda82597f8f8d99aaa","image grid","p","","","","","Ontogenetic_Distractor_Threat_target","800","ongrid","q","2","Ontogenetic","false","experimental"
"","null","html-keyboard-response","194","219653","0.0-11.0-2.34","WtEekY5gOT","632f7bec7eb646908138c15c","6617fad957f7c6a12ea16e26","6622cfcda82597f8f8d99aaa","
    <div id=""grid-container"">
        <!-- Grid items will be dynamically added here -->
    </div>    ","null","","","","","","","","","","","",""
"","null","html-keyboard-response","195","220393","0.0-11.0-0.35","WtEekY5gOT","632f7bec7eb646908138c15c","6617fad957f7c6a12ea16e26","6622cfcda82597f8f8d99aaa","fixation cross","null","","","","","","","","","","","",""
"","null","html-keyboard-response","196","221205","0.0-11.0-1.35","WtEekY5gOT","632f7bec7eb646908138c15c","6617fad957f7c6a12ea16e26","6622cfcda82597f8f8d99aaa","
        <div id=""grid-container"">
        <!-- Grid items will be dynamically added here -->
    </div>    ","null","","","","","","","","","","","",""
"","1310","html-keyboard-response","197","221716","0.0-11.0-2.35","WtEekY5gOT","632f7bec7eb646908138c15c","6617fad957f7c6a12ea16e26","6622cfcda82597f8f8d99aaa","mask grid","q","","","","","Ontogenetic_Distractor_notarget","800","onmask"," ","8","Ontogenetic","false","experimental"
"","null","html-keyboard-response","198","222447","0.0-11.0-0.36","WtEekY5gOT","632f7bec7eb646908138c15c","6617fad957f7c6a12ea16e26","6622cfcda82597f8f8d99aaa","fixation cross","null","","","","","","","","","","","",""
"","null","html-keyboard-response","199","223261","0.0-11.0-1.36","WtEekY5gOT","632f7bec7eb646908138c15c","6617fad957f7c6a12ea16e26","6622cfcda82597f8f8d99aaa","
        <div id=""grid-container"">
        <!-- Grid items will be dynamically added here -->
    </div>    ","null","","","","","","","","","","","",""
"","821","html-keyboard-response","200","223283","0.0-11.0-2.36","WtEekY5gOT","632f7bec7eb646908138c15c","6617fad957f7c6a12ea16e26","6622cfcda82597f8f8d99aaa","mask grid","p","","","","","Ontogenetic_Distractor_Nonthreat_target","800","onmask","p","4","Ontogenetic","true","experimental"
"","null","html-keyboard-response","201","223992","0.0-11.0-0.37","WtEekY5gOT","632f7bec7eb646908138c15c","6617fad957f7c6a12ea16e26","6622cfcda82597f8f8d99aaa","fixation cross","null","","","","","","","","","","","",""
"","null","html-keyboard-response","202","224794","0.0-11.0-1.37","WtEekY5gOT","632f7bec7eb646908138c15c","6617fad957f7c6a12ea16e26","6622cfcda82597f8f8d99aaa","
        <div id=""grid-container"">
        <!-- Grid items will be dynamically added here -->
    </div>    ","null","","","","","","","","","","","",""
"","1109","html-keyboard-response","203","225104","0.0-11.0-2.37","WtEekY5gOT","632f7bec7eb646908138c15c","6617fad957f7c6a12ea16e26","6622cfcda82597f8f8d99aaa","mask grid","p","","","","","Ontogenetic_Distractor_Nonthreat_target","800","onmask","p","8","Ontogenetic","true","experimental"
"","null","html-keyboard-response","204","225831","0.0-11.0-0.38","WtEekY5gOT","632f7bec7eb646908138c15c","6617fad957f7c6a12ea16e26","6622cfcda82597f8f8d99aaa","fixation cross","null","","","","","","","","","","","",""
"","665","html-keyboard-response","205","226496","0.0-11.0-1.38","WtEekY5gOT","632f7bec7eb646908138c15c","6617fad957f7c6a12ea16e26","6622cfcda82597f8f8d99aaa","image grid","q","","","","","Ontogenetic_Distractor_Threat_target","800","ongrid","q","4","Ontogenetic","true","experimental"
"","null","html-keyboard-response","206","226651","0.0-11.0-2.38","WtEekY5gOT","632f7bec7eb646908138c15c","6617fad957f7c6a12ea16e26","6622cfcda82597f8f8d99aaa","
    <div id=""grid-container"">
        <!-- Grid items will be dynamically added here -->
    </div>    ","null","","","","","","","","","","","",""
"","null","html-keyboard-response","207","227372","0.0-11.0-0.39","WtEekY5gOT","632f7bec7eb646908138c15c","6617fad957f7c6a12ea16e26","6622cfcda82597f8f8d99aaa","fixation cross","null","","","","","","","","","","","",""
"","null","html-keyboard-response","208","228180","0.0-11.0-1.39","WtEekY5gOT","632f7bec7eb646908138c15c","6617fad957f7c6a12ea16e26","6622cfcda82597f8f8d99aaa","
        <div id=""grid-container"">
        <!-- Grid items will be dynamically added here -->
    </div>    ","null","","","","","","","","","","","",""
"","995","html-keyboard-response","209","228376","0.0-11.0-2.39","WtEekY5gOT","632f7bec7eb646908138c15c","6617fad957f7c6a12ea16e26","6622cfcda82597f8f8d99aaa","mask grid","q","","","","","Ontogenetic_Distractor_Threat_target","800","onmask","q","3","Ontogenetic","true","experimental"
"","8913","html-keyboard-response","210","237520","0.0-12.0","WtEekY5gOT","632f7bec7eb646908138c15c","6617fad957f7c6a12ea16e26","6622cfcda82597f8f8d99aaa","break screen"," ","","","","","","","","","","","",""
"","null","html-keyboard-response","211","240070","0.0-13.0-0.0","WtEekY5gOT","632f7bec7eb646908138c15c","6617fad957f7c6a12ea16e26","6622cfcda82597f8f8d99aaa","fixation cross","null","","","","","","","","","","","",""
"","1165","html-keyboard-response","212","241236","0.0-13.0-1.0","WtEekY5gOT","632f7bec7eb646908138c15c","6617fad957f7c6a12ea16e26","6622cfcda82597f8f8d99aaa","image grid","p","","","","","Phylogenetic_Distractor_Nonthreat_target","2500","ongrid","p","7","Phylogenetic","true","experimental"
"","null","html-keyboard-response","213","241409","0.0-13.0-2.0","WtEekY5gOT","632f7bec7eb646908138c15c","6617fad957f7c6a12ea16e26","6622cfcda82597f8f8d99aaa","
    <div id=""grid-container"">
        <!-- Grid items will be dynamically added here -->
    </div>    ","null","","","","","","","","","","","",""
"","null","html-keyboard-response","214","242123","0.0-13.0-0.1","WtEekY5gOT","632f7bec7eb646908138c15c","6617fad957f7c6a12ea16e26","6622cfcda82597f8f8d99aaa","fixation cross","null","","","","","","","","","","","",""
"","912","html-keyboard-response","215","243036","0.0-13.0-1.1","WtEekY5gOT","632f7bec7eb646908138c15c","6617fad957f7c6a12ea16e26","6622cfcda82597f8f8d99aaa","image grid"," ","","","","","Phylogenetic_Distractor_Threat_target","2500","ongrid","q","3","Phylogenetic","false","experimental"
"","null","html-keyboard-response","216","243206","0.0-13.0-2.1","WtEekY5gOT","632f7bec7eb646908138c15c","6617fad957f7c6a12ea16e26","6622cfcda82597f8f8d99aaa","
    <div id=""grid-container"">
        <!-- Grid items will be dynamically added here -->
    </div>    ","null","","","","","","","","","","","",""
"","null","html-keyboard-response","217","243914","0.0-13.0-0.2","WtEekY5gOT","632f7bec7eb646908138c15c","6617fad957f7c6a12ea16e26","6622cfcda82597f8f8d99aaa","fixation cross","null","","","","","","","","","","","",""
"","933","html-keyboard-response","218","244848","0.0-13.0-1.2","WtEekY5gOT","632f7bec7eb646908138c15c","6617fad957f7c6a12ea16e26","6622cfcda82597f8f8d99aaa","image grid","p","","","","","Phylogenetic_Distractor_Nonthreat_target","2500","ongrid","p","5","Phylogenetic","true","experimental"
"","null","html-keyboard-response","219","245003","0.0-13.0-2.2","WtEekY5gOT","632f7bec7eb646908138c15c","6617fad957f7c6a12ea16e26","6622cfcda82597f8f8d99aaa","
    <div id=""grid-container"">
        <!-- Grid items will be dynamically added here -->
    </div>    ","null","","","","","","","","","","","",""
"","null","html-keyboard-response","220","245715","0.0-13.0-0.3","WtEekY5gOT","632f7bec7eb646908138c15c","6617fad957f7c6a12ea16e26","6622cfcda82597f8f8d99aaa","fixation cross","null","","","","","","","","","","","",""
"","1248","html-keyboard-response","221","246963","0.0-13.0-1.3","WtEekY5gOT","632f7bec7eb646908138c15c","6617fad957f7c6a12ea16e26","6622cfcda82597f8f8d99aaa","image grid"," ","","","","","Phylogenetic_Distractor_Threat_target","2500","ongrid","q","2","Phylogenetic","false","experimental"
"","null","html-keyboard-response","222","247119","0.0-13.0-2.3","WtEekY5gOT","632f7bec7eb646908138c15c","6617fad957f7c6a12ea16e26","6622cfcda82597f8f8d99aaa","
    <div id=""grid-container"">
        <!-- Grid items will be dynamically added here -->
    </div>    ","null","","","","","","","","","","","",""
"","null","html-keyboard-response","223","247846","0.0-13.0-0.4","WtEekY5gOT","632f7bec7eb646908138c15c","6617fad957f7c6a12ea16e26","6622cfcda82597f8f8d99aaa","fixation cross","null","","","","","","","","","","","",""
"","1121","html-keyboard-response","224","248968","0.0-13.0-1.4","WtEekY5gOT","632f7bec7eb646908138c15c","6617fad957f7c6a12ea16e26","6622cfcda82597f8f8d99aaa","image grid","q","","","","","Phylogenetic_Distractor_Nonthreat_target","2500","ongrid","p","9","Phylogenetic","false","experimental"
"","null","html-keyboard-response","225","249132","0.0-13.0-2.4","WtEekY5gOT","632f7bec7eb646908138c15c","6617fad957f7c6a12ea16e26","6622cfcda82597f8f8d99aaa","
    <div id=""grid-container"">
        <!-- Grid items will be dynamically added here -->
    </div>    ","null","","","","","","","","","","","",""
"","null","html-keyboard-response","226","249856","0.0-13.0-0.5","WtEekY5gOT","632f7bec7eb646908138c15c","6617fad957f7c6a12ea16e26","6622cfcda82597f8f8d99aaa","fixation cross","null","","","","","","","","","","","",""
"","903","html-keyboard-response","227","250760","0.0-13.0-1.5","WtEekY5gOT","632f7bec7eb646908138c15c","6617fad957f7c6a12ea16e26","6622cfcda82597f8f8d99aaa","image grid","p","","","","","Phylogenetic_Distractor_Nonthreat_target","2500","ongrid","p","8","Phylogenetic","true","experimental"
"","null","html-keyboard-response","228","250927","0.0-13.0-2.5","WtEekY5gOT","632f7bec7eb646908138c15c","6617fad957f7c6a12ea16e26","6622cfcda82597f8f8d99aaa","
    <div id=""grid-container"">
        <!-- Grid items will be dynamically added here -->
    </div>    ","null","","","","","","","","","","","",""
"","null","html-keyboard-response","229","251664","0.0-13.0-0.6","WtEekY5gOT","632f7bec7eb646908138c15c","6617fad957f7c6a12ea16e26","6622cfcda82597f8f8d99aaa","fixation cross","null","","","","","","","","","","","",""
"","null","html-keyboard-response","230","254180","0.0-13.0-1.6","WtEekY5gOT","632f7bec7eb646908138c15c","6617fad957f7c6a12ea16e26","6622cfcda82597f8f8d99aaa","
        <div id=""grid-container"">
        <!-- Grid items will be dynamically added here -->
    </div>    ","null","","","","","","","","","","","",""
"","7023","html-keyboard-response","231","258704","0.0-13.0-2.6","WtEekY5gOT","632f7bec7eb646908138c15c","6617fad957f7c6a12ea16e26","6622cfcda82597f8f8d99aaa","mask grid"," ","","","","","Phylogenetic_Distractor_notarget","2500","onmask"," ","5","Phylogenetic","true","experimental"
"","null","html-keyboard-response","232","259418","0.0-13.0-0.7","WtEekY5gOT","632f7bec7eb646908138c15c","6617fad957f7c6a12ea16e26","6622cfcda82597f8f8d99aaa","fixation cross","null","","","","","","","","","","","",""
"","1612","html-keyboard-response","233","261029","0.0-13.0-1.7","WtEekY5gOT","632f7bec7eb646908138c15c","6617fad957f7c6a12ea16e26","6622cfcda82597f8f8d99aaa","image grid","p","","","","","Phylogenetic_Distractor_Nonthreat_target","2500","ongrid","p","2","Phylogenetic","true","experimental"
"","null","html-keyboard-response","234","261198","0.0-13.0-2.7","WtEekY5gOT","632f7bec7eb646908138c15c","6617fad957f7c6a12ea16e26","6622cfcda82597f8f8d99aaa","
    <div id=""grid-container"">
        <!-- Grid items will be dynamically added here -->
    </div>    ","null","","","","","","","","","","","",""
"","null","html-keyboard-response","235","261907","0.0-13.0-0.8","WtEekY5gOT","632f7bec7eb646908138c15c","6617fad957f7c6a12ea16e26","6622cfcda82597f8f8d99aaa","fixation cross","null","","","","","","","","","","","",""
"","1077","html-keyboard-response","236","262985","0.0-13.0-1.8","WtEekY5gOT","632f7bec7eb646908138c15c","6617fad957f7c6a12ea16e26","6622cfcda82597f8f8d99aaa","image grid","p","","","","","Phylogenetic_Distractor_Nonthreat_target","2500","ongrid","p","4","Phylogenetic","true","experimental"
"","null","html-keyboard-response","237","263143","0.0-13.0-2.8","WtEekY5gOT","632f7bec7eb646908138c15c","6617fad957f7c6a12ea16e26","6622cfcda82597f8f8d99aaa","
    <div id=""grid-container"">
        <!-- Grid items will be dynamically added here -->
    </div>    ","null","","","","","","","","","","","",""
"","null","html-keyboard-response","238","263859","0.0-13.0-0.9","WtEekY5gOT","632f7bec7eb646908138c15c","6617fad957f7c6a12ea16e26","6622cfcda82597f8f8d99aaa","fixation cross","null","","","","","","","","","","","",""
"","1054","html-keyboard-response","239","264914","0.0-13.0-1.9","WtEekY5gOT","632f7bec7eb646908138c15c","6617fad957f7c6a12ea16e26","6622cfcda82597f8f8d99aaa","image grid","q","","","","","Phylogenetic_Distractor_Threat_target","2500","ongrid","q","6","Phylogenetic","true","experimental"
"","null","html-keyboard-response","240","265075","0.0-13.0-2.9","WtEekY5gOT","632f7bec7eb646908138c15c","6617fad957f7c6a12ea16e26","6622cfcda82597f8f8d99aaa","
    <div id=""grid-container"">
        <!-- Grid items will be dynamically added here -->
    </div>    ","null","","","","","","","","","","","",""
"","null","html-keyboard-response","241","265818","0.0-13.0-0.10","WtEekY5gOT","632f7bec7eb646908138c15c","6617fad957f7c6a12ea16e26","6622cfcda82597f8f8d99aaa","fixation cross","null","","","","","","","","","","","",""
"","795","html-keyboard-response","242","266614","0.0-13.0-1.10","WtEekY5gOT","632f7bec7eb646908138c15c","6617fad957f7c6a12ea16e26","6622cfcda82597f8f8d99aaa","image grid","q","","","","","Phylogenetic_Distractor_Threat_target","2500","ongrid","q","8","Phylogenetic","true","experimental"
"","null","html-keyboard-response","243","266787","0.0-13.0-2.10","WtEekY5gOT","632f7bec7eb646908138c15c","6617fad957f7c6a12ea16e26","6622cfcda82597f8f8d99aaa","
    <div id=""grid-container"">
        <!-- Grid items will be dynamically added here -->
    </div>    ","null","","","","","","","","","","","",""
"","null","html-keyboard-response","244","267511","0.0-13.0-0.11","WtEekY5gOT","632f7bec7eb646908138c15c","6617fad957f7c6a12ea16e26","6622cfcda82597f8f8d99aaa","fixation cross","null","","","","","","","","","","","",""
"","685","html-keyboard-response","245","268197","0.0-13.0-1.11","WtEekY5gOT","632f7bec7eb646908138c15c","6617fad957f7c6a12ea16e26","6622cfcda82597f8f8d99aaa","image grid","q","","","","","Phylogenetic_Distractor_Threat_target","2500","ongrid","q","7","Phylogenetic","true","experimental"
"","null","html-keyboard-response","246","268355","0.0-13.0-2.11","WtEekY5gOT","632f7bec7eb646908138c15c","6617fad957f7c6a12ea16e26","6622cfcda82597f8f8d99aaa","
    <div id=""grid-container"">
        <!-- Grid items will be dynamically added here -->
    </div>    ","null","","","","","","","","","","","",""
"","null","html-keyboard-response","247","269068","0.0-13.0-0.12","WtEekY5gOT","632f7bec7eb646908138c15c","6617fad957f7c6a12ea16e26","6622cfcda82597f8f8d99aaa","fixation cross","null","","","","","","","","","","","",""
"","1521","html-keyboard-response","248","270590","0.0-13.0-1.12","WtEekY5gOT","632f7bec7eb646908138c15c","6617fad957f7c6a12ea16e26","6622cfcda82597f8f8d99aaa","image grid"," ","","","","","Phylogenetic_Distractor_notarget","2500","ongrid"," ","7","Phylogenetic","true","experimental"
"","null","html-keyboard-response","249","270745","0.0-13.0-2.12","WtEekY5gOT","632f7bec7eb646908138c15c","6617fad957f7c6a12ea16e26","6622cfcda82597f8f8d99aaa","
    <div id=""grid-container"">
        <!-- Grid items will be dynamically added here -->
    </div>    ","null","","","","","","","","","","","",""
"","null","html-keyboard-response","250","271466","0.0-13.0-0.13","WtEekY5gOT","632f7bec7eb646908138c15c","6617fad957f7c6a12ea16e26","6622cfcda82597f8f8d99aaa","fixation cross","null","","","","","","","","","","","",""
"","1180","html-keyboard-response","251","272646","0.0-13.0-1.13","WtEekY5gOT","632f7bec7eb646908138c15c","6617fad957f7c6a12ea16e26","6622cfcda82597f8f8d99aaa","image grid"," ","","","","","Phylogenetic_Distractor_Nonthreat_target","2500","ongrid","p","2","Phylogenetic","false","experimental"
"","null","html-keyboard-response","252","272813","0.0-13.0-2.13","WtEekY5gOT","632f7bec7eb646908138c15c","6617fad957f7c6a12ea16e26","6622cfcda82597f8f8d99aaa","
    <div id=""grid-container"">
        <!-- Grid items will be dynamically added here -->
    </div>    ","null","","","","","","","","","","","",""
"","null","html-keyboard-response","253","273521","0.0-13.0-0.14","WtEekY5gOT","632f7bec7eb646908138c15c","6617fad957f7c6a12ea16e26","6622cfcda82597f8f8d99aaa","fixation cross","null","","","","","","","","","","","",""
"","867","html-keyboard-response","254","274389","0.0-13.0-1.14","WtEekY5gOT","632f7bec7eb646908138c15c","6617fad957f7c6a12ea16e26","6622cfcda82597f8f8d99aaa","image grid","p","","","","","Phylogenetic_Distractor_Nonthreat_target","2500","ongrid","p","4","Phylogenetic","true","experimental"
"","null","html-keyboard-response","255","274555","0.0-13.0-2.14","WtEekY5gOT","632f7bec7eb646908138c15c","6617fad957f7c6a12ea16e26","6622cfcda82597f8f8d99aaa","
    <div id=""grid-container"">
        <!-- Grid items will be dynamically added here -->
    </div>    ","null","","","","","","","","","","","",""
"","null","html-keyboard-response","256","275297","0.0-13.0-0.15","WtEekY5gOT","632f7bec7eb646908138c15c","6617fad957f7c6a12ea16e26","6622cfcda82597f8f8d99aaa","fixation cross","null","","","","","","","","","","","",""
"","1756","html-keyboard-response","257","277054","0.0-13.0-1.15","WtEekY5gOT","632f7bec7eb646908138c15c","6617fad957f7c6a12ea16e26","6622cfcda82597f8f8d99aaa","image grid"," ","","","","","Phylogenetic_Distractor_notarget","2500","ongrid"," ","5","Phylogenetic","true","experimental"
"","null","html-keyboard-response","258","277224","0.0-13.0-2.15","WtEekY5gOT","632f7bec7eb646908138c15c","6617fad957f7c6a12ea16e26","6622cfcda82597f8f8d99aaa","
    <div id=""grid-container"">
        <!-- Grid items will be dynamically added here -->
    </div>    ","null","","","","","","","","","","","",""
"","null","html-keyboard-response","259","277958","0.0-13.0-0.16","WtEekY5gOT","632f7bec7eb646908138c15c","6617fad957f7c6a12ea16e26","6622cfcda82597f8f8d99aaa","fixation cross","null","","","","","","","","","","","",""
"","795","html-keyboard-response","260","278754","0.0-13.0-1.16","WtEekY5gOT","632f7bec7eb646908138c15c","6617fad957f7c6a12ea16e26","6622cfcda82597f8f8d99aaa","image grid","q","","","","","Phylogenetic_Distractor_Threat_target","2500","ongrid","q","6","Phylogenetic","true","experimental"
"","null","html-keyboard-response","261","278907","0.0-13.0-2.16","WtEekY5gOT","632f7bec7eb646908138c15c","6617fad957f7c6a12ea16e26","6622cfcda82597f8f8d99aaa","
    <div id=""grid-container"">
        <!-- Grid items will be dynamically added here -->
    </div>    ","null","","","","","","","","","","","",""
"","null","html-keyboard-response","262","279630","0.0-13.0-0.17","WtEekY5gOT","632f7bec7eb646908138c15c","6617fad957f7c6a12ea16e26","6622cfcda82597f8f8d99aaa","fixation cross","null","","","","","","","","","","","",""
"","1399","html-keyboard-response","263","281030","0.0-13.0-1.17","WtEekY5gOT","632f7bec7eb646908138c15c","6617fad957f7c6a12ea16e26","6622cfcda82597f8f8d99aaa","image grid","q","","","","","Phylogenetic_Distractor_Threat_target","2500","ongrid","q","2","Phylogenetic","true","experimental"
"","null","html-keyboard-response","264","281204","0.0-13.0-2.17","WtEekY5gOT","632f7bec7eb646908138c15c","6617fad957f7c6a12ea16e26","6622cfcda82597f8f8d99aaa","
    <div id=""grid-container"">
        <!-- Grid items will be dynamically added here -->
    </div>    ","null","","","","","","","","","","","",""
"","null","html-keyboard-response","265","281922","0.0-13.0-0.18","WtEekY5gOT","632f7bec7eb646908138c15c","6617fad957f7c6a12ea16e26","6622cfcda82597f8f8d99aaa","fixation cross","null","","","","","","","","","","","",""
"","847","html-keyboard-response","266","282770","0.0-13.0-1.18","WtEekY5gOT","632f7bec7eb646908138c15c","6617fad957f7c6a12ea16e26","6622cfcda82597f8f8d99aaa","image grid","q","","","","","Phylogenetic_Distractor_Threat_target","2500","ongrid","q","4","Phylogenetic","true","experimental"
"","null","html-keyboard-response","267","282940","0.0-13.0-2.18","WtEekY5gOT","632f7bec7eb646908138c15c","6617fad957f7c6a12ea16e26","6622cfcda82597f8f8d99aaa","
    <div id=""grid-container"">
        <!-- Grid items will be dynamically added here -->
    </div>    ","null","","","","","","","","","","","",""
"","null","html-keyboard-response","268","283662","0.0-13.0-0.19","WtEekY5gOT","632f7bec7eb646908138c15c","6617fad957f7c6a12ea16e26","6622cfcda82597f8f8d99aaa","fixation cross","null","","","","","","","","","","","",""
"","1235","html-keyboard-response","269","284898","0.0-13.0-1.19","WtEekY5gOT","632f7bec7eb646908138c15c","6617fad957f7c6a12ea16e26","6622cfcda82597f8f8d99aaa","image grid","p","","","","","Phylogenetic_Distractor_notarget","2500","ongrid"," ","4","Phylogenetic","false","experimental"
"","null","html-keyboard-response","270","285052","0.0-13.0-2.19","WtEekY5gOT","632f7bec7eb646908138c15c","6617fad957f7c6a12ea16e26","6622cfcda82597f8f8d99aaa","
    <div id=""grid-container"">
        <!-- Grid items will be dynamically added here -->
    </div>    ","null","","","","","","","","","","","",""
"","null","html-keyboard-response","271","285776","0.0-13.0-0.20","WtEekY5gOT","632f7bec7eb646908138c15c","6617fad957f7c6a12ea16e26","6622cfcda82597f8f8d99aaa","fixation cross","null","","","","","","","","","","","",""
"","757","html-keyboard-response","272","286533","0.0-13.0-1.20","WtEekY5gOT","632f7bec7eb646908138c15c","6617fad957f7c6a12ea16e26","6622cfcda82597f8f8d99aaa","image grid","q","","","","","Phylogenetic_Distractor_Threat_target","2500","ongrid","q","4","Phylogenetic","true","experimental"
"","null","html-keyboard-response","273","286709","0.0-13.0-2.20","WtEekY5gOT","632f7bec7eb646908138c15c","6617fad957f7c6a12ea16e26","6622cfcda82597f8f8d99aaa","
    <div id=""grid-container"">
        <!-- Grid items will be dynamically added here -->
    </div>    ","null","","","","","","","","","","","",""
"","null","html-keyboard-response","274","287454","0.0-13.0-0.21","WtEekY5gOT","632f7bec7eb646908138c15c","6617fad957f7c6a12ea16e26","6622cfcda82597f8f8d99aaa","fixation cross","null","","","","","","","","","","","",""
"","1439","html-keyboard-response","275","288894","0.0-13.0-1.21","WtEekY5gOT","632f7bec7eb646908138c15c","6617fad957f7c6a12ea16e26","6622cfcda82597f8f8d99aaa","image grid"," ","","","","","Phylogenetic_Distractor_Nonthreat_target","2500","ongrid","p","4","Phylogenetic","false","experimental"
"","null","html-keyboard-response","276","289047","0.0-13.0-2.21","WtEekY5gOT","632f7bec7eb646908138c15c","6617fad957f7c6a12ea16e26","6622cfcda82597f8f8d99aaa","
    <div id=""grid-container"">
        <!-- Grid items will be dynamically added here -->
    </div>    ","null","","","","","","","","","","","",""
"","null","html-keyboard-response","277","289772","0.0-13.0-0.22","WtEekY5gOT","632f7bec7eb646908138c15c","6617fad957f7c6a12ea16e26","6622cfcda82597f8f8d99aaa","fixation cross","null","","","","","","","","","","","",""
"","1040","html-keyboard-response","278","290813","0.0-13.0-1.22","WtEekY5gOT","632f7bec7eb646908138c15c","6617fad957f7c6a12ea16e26","6622cfcda82597f8f8d99aaa","image grid"," ","","","","","Phylogenetic_Distractor_Nonthreat_target","2500","ongrid","p","1","Phylogenetic","false","experimental"
"","null","html-keyboard-response","279","290974","0.0-13.0-2.22","WtEekY5gOT","632f7bec7eb646908138c15c","6617fad957f7c6a12ea16e26","6622cfcda82597f8f8d99aaa","
    <div id=""grid-container"">
        <!-- Grid items will be dynamically added here -->
    </div>    ","null","","","","","","","","","","","",""
"","null","html-keyboard-response","280","291698","0.0-13.0-0.23","WtEekY5gOT","632f7bec7eb646908138c15c","6617fad957f7c6a12ea16e26","6622cfcda82597f8f8d99aaa","fixation cross","null","","","","","","","","","","","",""
"","1904","html-keyboard-response","281","293602","0.0-13.0-1.23","WtEekY5gOT","632f7bec7eb646908138c15c","6617fad957f7c6a12ea16e26","6622cfcda82597f8f8d99aaa","image grid","p","","","","","Phylogenetic_Distractor_Nonthreat_target","2500","ongrid","p","3","Phylogenetic","true","experimental"
"","null","html-keyboard-response","282","293765","0.0-13.0-2.23","WtEekY5gOT","632f7bec7eb646908138c15c","6617fad957f7c6a12ea16e26","6622cfcda82597f8f8d99aaa","
    <div id=""grid-container"">
        <!-- Grid items will be dynamically added here -->
    </div>    ","null","","","","","","","","","","","",""
"","null","html-keyboard-response","283","294501","0.0-13.0-0.24","WtEekY5gOT","632f7bec7eb646908138c15c","6617fad957f7c6a12ea16e26","6622cfcda82597f8f8d99aaa","fixation cross","null","","","","","","","","","","","",""
"","1157","html-keyboard-response","284","295658","0.0-13.0-1.24","WtEekY5gOT","632f7bec7eb646908138c15c","6617fad957f7c6a12ea16e26","6622cfcda82597f8f8d99aaa","image grid","p","","","","","Phylogenetic_Distractor_Nonthreat_target","2500","ongrid","p","3","Phylogenetic","true","experimental"
"","null","html-keyboard-response","285","295822","0.0-13.0-2.24","WtEekY5gOT","632f7bec7eb646908138c15c","6617fad957f7c6a12ea16e26","6622cfcda82597f8f8d99aaa","
    <div id=""grid-container"">
        <!-- Grid items will be dynamically added here -->
    </div>    ","null","","","","","","","","","","","",""
"","null","html-keyboard-response","286","296557","0.0-13.0-0.25","WtEekY5gOT","632f7bec7eb646908138c15c","6617fad957f7c6a12ea16e26","6622cfcda82597f8f8d99aaa","fixation cross","null","","","","","","","","","","","",""
"","1096","html-keyboard-response","287","297654","0.0-13.0-1.25","WtEekY5gOT","632f7bec7eb646908138c15c","6617fad957f7c6a12ea16e26","6622cfcda82597f8f8d99aaa","image grid","p","","","","","Phylogenetic_Distractor_Nonthreat_target","2500","ongrid","p","4","Phylogenetic","true","experimental"
"","null","html-keyboard-response","288","297813","0.0-13.0-2.25","WtEekY5gOT","632f7bec7eb646908138c15c","6617fad957f7c6a12ea16e26","6622cfcda82597f8f8d99aaa","
    <div id=""grid-container"">
        <!-- Grid items will be dynamically added here -->
    </div>    ","null","","","","","","","","","","","",""
"","null","html-keyboard-response","289","298542","0.0-13.0-0.26","WtEekY5gOT","632f7bec7eb646908138c15c","6617fad957f7c6a12ea16e26","6622cfcda82597f8f8d99aaa","fixation cross","null","","","","","","","","","","","",""
"","1022","html-keyboard-response","290","299565","0.0-13.0-1.26","WtEekY5gOT","632f7bec7eb646908138c15c","6617fad957f7c6a12ea16e26","6622cfcda82597f8f8d99aaa","image grid","p","","","","","Phylogenetic_Distractor_Nonthreat_target","2500","ongrid","p","2","Phylogenetic","true","experimental"
"","null","html-keyboard-response","291","299723","0.0-13.0-2.26","WtEekY5gOT","632f7bec7eb646908138c15c","6617fad957f7c6a12ea16e26","6622cfcda82597f8f8d99aaa","
    <div id=""grid-container"">
        <!-- Grid items will be dynamically added here -->
    </div>    ","null","","","","","","","","","","","",""
"","null","html-keyboard-response","292","300454","0.0-13.0-0.27","WtEekY5gOT","632f7bec7eb646908138c15c","6617fad957f7c6a12ea16e26","6622cfcda82597f8f8d99aaa","fixation cross","null","","","","","","","","","","","",""
"","547","html-keyboard-response","293","301002","0.0-13.0-1.27","WtEekY5gOT","632f7bec7eb646908138c15c","6617fad957f7c6a12ea16e26","6622cfcda82597f8f8d99aaa","image grid","q","","","","","Phylogenetic_Distractor_Threat_target","2500","ongrid","q","5","Phylogenetic","true","experimental"
"","null","html-keyboard-response","294","301166","0.0-13.0-2.27","WtEekY5gOT","632f7bec7eb646908138c15c","6617fad957f7c6a12ea16e26","6622cfcda82597f8f8d99aaa","
    <div id=""grid-container"">
        <!-- Grid items will be dynamically added here -->
    </div>    ","null","","","","","","","","","","","",""
"","null","html-keyboard-response","295","301897","0.0-13.0-0.28","WtEekY5gOT","632f7bec7eb646908138c15c","6617fad957f7c6a12ea16e26","6622cfcda82597f8f8d99aaa","fixation cross","null","","","","","","","","","","","",""
"","648","html-keyboard-response","296","302546","0.0-13.0-1.28","WtEekY5gOT","632f7bec7eb646908138c15c","6617fad957f7c6a12ea16e26","6622cfcda82597f8f8d99aaa","image grid","q","","","","","Phylogenetic_Distractor_Threat_target","2500","ongrid","q","3","Phylogenetic","true","experimental"
"","null","html-keyboard-response","297","302703","0.0-13.0-2.28","WtEekY5gOT","632f7bec7eb646908138c15c","6617fad957f7c6a12ea16e26","6622cfcda82597f8f8d99aaa","
    <div id=""grid-container"">
        <!-- Grid items will be dynamically added here -->
    </div>    ","null","","","","","","","","","","","",""
"","null","html-keyboard-response","298","303428","0.0-13.0-0.29","WtEekY5gOT","632f7bec7eb646908138c15c","6617fad957f7c6a12ea16e26","6622cfcda82597f8f8d99aaa","fixation cross","null","","","","","","","","","","","",""
"","1925","html-keyboard-response","299","305353","0.0-13.0-1.29","WtEekY5gOT","632f7bec7eb646908138c15c","6617fad957f7c6a12ea16e26","6622cfcda82597f8f8d99aaa","image grid","p","","","","","Phylogenetic_Distractor_Nonthreat_target","2500","ongrid","p","3","Phylogenetic","true","experimental"
"","null","html-keyboard-response","300","305509","0.0-13.0-2.29","WtEekY5gOT","632f7bec7eb646908138c15c","6617fad957f7c6a12ea16e26","6622cfcda82597f8f8d99aaa","
    <div id=""grid-container"">
        <!-- Grid items will be dynamically added here -->
    </div>    ","null","","","","","","","","","","","",""
"","null","html-keyboard-response","301","306244","0.0-13.0-0.30","WtEekY5gOT","632f7bec7eb646908138c15c","6617fad957f7c6a12ea16e26","6622cfcda82597f8f8d99aaa","fixation cross","null","","","","","","","","","","","",""
"","1048","html-keyboard-response","302","307293","0.0-13.0-1.30","WtEekY5gOT","632f7bec7eb646908138c15c","6617fad957f7c6a12ea16e26","6622cfcda82597f8f8d99aaa","image grid","q","","","","","Phylogenetic_Distractor_Threat_target","2500","ongrid","q","1","Phylogenetic","true","experimental"
"","null","html-keyboard-response","303","307449","0.0-13.0-2.30","WtEekY5gOT","632f7bec7eb646908138c15c","6617fad957f7c6a12ea16e26","6622cfcda82597f8f8d99aaa","
    <div id=""grid-container"">
        <!-- Grid items will be dynamically added here -->
    </div>    ","null","","","","","","","","","","","",""
"","null","html-keyboard-response","304","308166","0.0-13.0-0.31","WtEekY5gOT","632f7bec7eb646908138c15c","6617fad957f7c6a12ea16e26","6622cfcda82597f8f8d99aaa","fixation cross","null","","","","","","","","","","","",""
"","1339","html-keyboard-response","305","309506","0.0-13.0-1.31","WtEekY5gOT","632f7bec7eb646908138c15c","6617fad957f7c6a12ea16e26","6622cfcda82597f8f8d99aaa","image grid","p","","","","","Phylogenetic_Distractor_Nonthreat_target","2500","ongrid","p","9","Phylogenetic","true","experimental"
"","null","html-keyboard-response","306","309673","0.0-13.0-2.31","WtEekY5gOT","632f7bec7eb646908138c15c","6617fad957f7c6a12ea16e26","6622cfcda82597f8f8d99aaa","
    <div id=""grid-container"">
        <!-- Grid items will be dynamically added here -->
    </div>    ","null","","","","","","","","","","","",""
"","null","html-keyboard-response","307","310401","0.0-13.0-0.32","WtEekY5gOT","632f7bec7eb646908138c15c","6617fad957f7c6a12ea16e26","6622cfcda82597f8f8d99aaa","fixation cross","null","","","","","","","","","","","",""
"","1444","html-keyboard-response","308","311846","0.0-13.0-1.32","WtEekY5gOT","632f7bec7eb646908138c15c","6617fad957f7c6a12ea16e26","6622cfcda82597f8f8d99aaa","image grid","q","","","","","Phylogenetic_Distractor_Threat_target","2500","ongrid","q","7","Phylogenetic","true","experimental"
"","null","html-keyboard-response","309","312009","0.0-13.0-2.32","WtEekY5gOT","632f7bec7eb646908138c15c","6617fad957f7c6a12ea16e26","6622cfcda82597f8f8d99aaa","
    <div id=""grid-container"">
        <!-- Grid items will be dynamically added here -->
    </div>    ","null","","","","","","","","","","","",""
"","null","html-keyboard-response","310","312745","0.0-13.0-0.33","WtEekY5gOT","632f7bec7eb646908138c15c","6617fad957f7c6a12ea16e26","6622cfcda82597f8f8d99aaa","fixation cross","null","","","","","","","","","","","",""
"","880","html-keyboard-response","311","313626","0.0-13.0-1.33","WtEekY5gOT","632f7bec7eb646908138c15c","6617fad957f7c6a12ea16e26","6622cfcda82597f8f8d99aaa","image grid","q","","","","","Phylogenetic_Distractor_Threat_target","2500","ongrid","q","9","Phylogenetic","true","experimental"
"","null","html-keyboard-response","312","313797","0.0-13.0-2.33","WtEekY5gOT","632f7bec7eb646908138c15c","6617fad957f7c6a12ea16e26","6622cfcda82597f8f8d99aaa","
    <div id=""grid-container"">
        <!-- Grid items will be dynamically added here -->
    </div>    ","null","","","","","","","","","","","",""
"","null","html-keyboard-response","313","314506","0.0-13.0-0.34","WtEekY5gOT","632f7bec7eb646908138c15c","6617fad957f7c6a12ea16e26","6622cfcda82597f8f8d99aaa","fixation cross","null","","","","","","","","","","","",""
"","795","html-keyboard-response","314","315302","0.0-13.0-1.34","WtEekY5gOT","632f7bec7eb646908138c15c","6617fad957f7c6a12ea16e26","6622cfcda82597f8f8d99aaa","image grid","q","","","","","Phylogenetic_Distractor_Threat_target","2500","ongrid","q","7","Phylogenetic","true","experimental"
"","null","html-keyboard-response","315","315467","0.0-13.0-2.34","WtEekY5gOT","632f7bec7eb646908138c15c","6617fad957f7c6a12ea16e26","6622cfcda82597f8f8d99aaa","
    <div id=""grid-container"">
        <!-- Grid items will be dynamically added here -->
    </div>    ","null","","","","","","","","","","","",""
"","null","html-keyboard-response","316","316193","0.0-13.0-0.35","WtEekY5gOT","632f7bec7eb646908138c15c","6617fad957f7c6a12ea16e26","6622cfcda82597f8f8d99aaa","fixation cross","null","","","","","","","","","","","",""
"","928","html-keyboard-response","317","317122","0.0-13.0-1.35","WtEekY5gOT","632f7bec7eb646908138c15c","6617fad957f7c6a12ea16e26","6622cfcda82597f8f8d99aaa","image grid","p","","","","","Phylogenetic_Distractor_Nonthreat_target","2500","ongrid","p","2","Phylogenetic","true","experimental"
"","null","html-keyboard-response","318","317297","0.0-13.0-2.35","WtEekY5gOT","632f7bec7eb646908138c15c","6617fad957f7c6a12ea16e26","6622cfcda82597f8f8d99aaa","
    <div id=""grid-container"">
        <!-- Grid items will be dynamically added here -->
    </div>    ","null","","","","","","","","","","","",""
"","null","html-keyboard-response","319","318006","0.0-13.0-0.36","WtEekY5gOT","632f7bec7eb646908138c15c","6617fad957f7c6a12ea16e26","6622cfcda82597f8f8d99aaa","fixation cross","null","","","","","","","","","","","",""
"","719","html-keyboard-response","320","318726","0.0-13.0-1.36","WtEekY5gOT","632f7bec7eb646908138c15c","6617fad957f7c6a12ea16e26","6622cfcda82597f8f8d99aaa","image grid","q","","","","","Phylogenetic_Distractor_Threat_target","2500","ongrid","q","5","Phylogenetic","true","experimental"
"","null","html-keyboard-response","321","318881","0.0-13.0-2.36","WtEekY5gOT","632f7bec7eb646908138c15c","6617fad957f7c6a12ea16e26","6622cfcda82597f8f8d99aaa","
    <div id=""grid-container"">
        <!-- Grid items will be dynamically added here -->
    </div>    ","null","","","","","","","","","","","",""
"","null","html-keyboard-response","322","319604","0.0-13.0-0.37","WtEekY5gOT","632f7bec7eb646908138c15c","6617fad957f7c6a12ea16e26","6622cfcda82597f8f8d99aaa","fixation cross","null","","","","","","","","","","","",""
"","657","html-keyboard-response","323","320261","0.0-13.0-1.37","WtEekY5gOT","632f7bec7eb646908138c15c","6617fad957f7c6a12ea16e26","6622cfcda82597f8f8d99aaa","image grid","q","","","","","Phylogenetic_Distractor_Threat_target","2500","ongrid","q","4","Phylogenetic","true","experimental"
"","null","html-keyboard-response","324","320418","0.0-13.0-2.37","WtEekY5gOT","632f7bec7eb646908138c15c","6617fad957f7c6a12ea16e26","6622cfcda82597f8f8d99aaa","
    <div id=""grid-container"">
        <!-- Grid items will be dynamically added here -->
    </div>    ","null","","","","","","","","","","","",""
"","null","html-keyboard-response","325","321155","0.0-13.0-0.38","WtEekY5gOT","632f7bec7eb646908138c15c","6617fad957f7c6a12ea16e26","6622cfcda82597f8f8d99aaa","fixation cross","null","","","","","","","","","","","",""
"","545","html-keyboard-response","326","321700","0.0-13.0-1.38","WtEekY5gOT","632f7bec7eb646908138c15c","6617fad957f7c6a12ea16e26","6622cfcda82597f8f8d99aaa","image grid","q","","","","","Phylogenetic_Distractor_Threat_target","2500","ongrid","q","5","Phylogenetic","true","experimental"
"","null","html-keyboard-response","327","321868","0.0-13.0-2.38","WtEekY5gOT","632f7bec7eb646908138c15c","6617fad957f7c6a12ea16e26","6622cfcda82597f8f8d99aaa","
    <div id=""grid-container"">
        <!-- Grid items will be dynamically added here -->
    </div>    ","null","","","","","","","","","","","",""
"","null","html-keyboard-response","328","322576","0.0-13.0-0.39","WtEekY5gOT","632f7bec7eb646908138c15c","6617fad957f7c6a12ea16e26","6622cfcda82597f8f8d99aaa","fixation cross","null","","","","","","","","","","","",""
"","1200","html-keyboard-response","329","323776","0.0-13.0-1.39","WtEekY5gOT","632f7bec7eb646908138c15c","6617fad957f7c6a12ea16e26","6622cfcda82597f8f8d99aaa","image grid","p","","","","","Phylogenetic_Distractor_Nonthreat_target","2500","ongrid","p","3","Phylogenetic","true","experimental"
"","null","html-keyboard-response","330","323944","0.0-13.0-2.39","WtEekY5gOT","632f7bec7eb646908138c15c","6617fad957f7c6a12ea16e26","6622cfcda82597f8f8d99aaa","
    <div id=""grid-container"">
        <!-- Grid items will be dynamically added here -->
    </div>    ","null","","","","","","","","","","","",""
"","17992","html-keyboard-response","331","342153","0.0-14.0","WtEekY5gOT","632f7bec7eb646908138c15c","6617fad957f7c6a12ea16e26","6622cfcda82597f8f8d99aaa","break screen"," ","","","","","","","","","","","",""
"","null","html-keyboard-response","332","344680","0.0-15.0-0.0","WtEekY5gOT","632f7bec7eb646908138c15c","6617fad957f7c6a12ea16e26","6622cfcda82597f8f8d99aaa","fixation cross","null","","","","","","","","","","","",""
"","900","html-keyboard-response","333","345580","0.0-15.0-1.0","WtEekY5gOT","632f7bec7eb646908138c15c","6617fad957f7c6a12ea16e26","6622cfcda82597f8f8d99aaa","image grid","p","","","","","Phylogenetic_Distractor_Nonthreat_target","2500","ongrid","p","3","Phylogenetic","true","experimental"
"","null","html-keyboard-response","334","345739","0.0-15.0-2.0","WtEekY5gOT","632f7bec7eb646908138c15c","6617fad957f7c6a12ea16e26","6622cfcda82597f8f8d99aaa","
    <div id=""grid-container"">
        <!-- Grid items will be dynamically added here -->
    </div>    ","null","","","","","","","","","","","",""
"","null","html-keyboard-response","335","346456","0.0-15.0-0.1","WtEekY5gOT","632f7bec7eb646908138c15c","6617fad957f7c6a12ea16e26","6622cfcda82597f8f8d99aaa","fixation cross","null","","","","","","","","","","","",""
"","751","html-keyboard-response","336","347208","0.0-15.0-1.1","WtEekY5gOT","632f7bec7eb646908138c15c","6617fad957f7c6a12ea16e26","6622cfcda82597f8f8d99aaa","image grid","p","","","","","Phylogenetic_Distractor_Nonthreat_target","2500","ongrid","p","5","Phylogenetic","true","experimental"
"","null","html-keyboard-response","337","347380","0.0-15.0-2.1","WtEekY5gOT","632f7bec7eb646908138c15c","6617fad957f7c6a12ea16e26","6622cfcda82597f8f8d99aaa","
    <div id=""grid-container"">
        <!-- Grid items will be dynamically added here -->
    </div>    ","null","","","","","","","","","","","",""
"","null","html-keyboard-response","338","348107","0.0-15.0-0.2","WtEekY5gOT","632f7bec7eb646908138c15c","6617fad957f7c6a12ea16e26","6622cfcda82597f8f8d99aaa","fixation cross","null","","","","","","","","","","","",""
"","1385","html-keyboard-response","339","349492","0.0-15.0-1.2","WtEekY5gOT","632f7bec7eb646908138c15c","6617fad957f7c6a12ea16e26","6622cfcda82597f8f8d99aaa","image grid","p","","","","","Phylogenetic_Distractor_Nonthreat_target","2500","ongrid","p","5","Phylogenetic","true","experimental"
"","null","html-keyboard-response","340","349652","0.0-15.0-2.2","WtEekY5gOT","632f7bec7eb646908138c15c","6617fad957f7c6a12ea16e26","6622cfcda82597f8f8d99aaa","
    <div id=""grid-container"">
        <!-- Grid items will be dynamically added here -->
    </div>    ","null","","","","","","","","","","","",""
"","null","html-keyboard-response","341","350367","0.0-15.0-0.3","WtEekY5gOT","632f7bec7eb646908138c15c","6617fad957f7c6a12ea16e26","6622cfcda82597f8f8d99aaa","fixation cross","null","","","","","","","","","","","",""
"","708","html-keyboard-response","342","351076","0.0-15.0-1.3","WtEekY5gOT","632f7bec7eb646908138c15c","6617fad957f7c6a12ea16e26","6622cfcda82597f8f8d99aaa","image grid","p","","","","","Phylogenetic_Distractor_Nonthreat_target","2500","ongrid","p","2","Phylogenetic","true","experimental"
"","null","html-keyboard-response","343","351250","0.0-15.0-2.3","WtEekY5gOT","632f7bec7eb646908138c15c","6617fad957f7c6a12ea16e26","6622cfcda82597f8f8d99aaa","
    <div id=""grid-container"">
        <!-- Grid items will be dynamically added here -->
    </div>    ","null","","","","","","","","","","","",""
"","null","html-keyboard-response","344","351972","0.0-15.0-0.4","WtEekY5gOT","632f7bec7eb646908138c15c","6617fad957f7c6a12ea16e26","6622cfcda82597f8f8d99aaa","fixation cross","null","","","","","","","","","","","",""
"","1056","html-keyboard-response","345","353029","0.0-15.0-1.4","WtEekY5gOT","632f7bec7eb646908138c15c","6617fad957f7c6a12ea16e26","6622cfcda82597f8f8d99aaa","image grid","p","","","","","Phylogenetic_Distractor_Nonthreat_target","2500","ongrid","p","8","Phylogenetic","true","experimental"
"","null","html-keyboard-response","346","353190","0.0-15.0-2.4","WtEekY5gOT","632f7bec7eb646908138c15c","6617fad957f7c6a12ea16e26","6622cfcda82597f8f8d99aaa","
    <div id=""grid-container"">
        <!-- Grid items will be dynamically added here -->
    </div>    ","null","","","","","","","","","","","",""
"","null","html-keyboard-response","347","353909","0.0-15.0-0.5","WtEekY5gOT","632f7bec7eb646908138c15c","6617fad957f7c6a12ea16e26","6622cfcda82597f8f8d99aaa","fixation cross","null","","","","","","","","","","","",""
"","1227","html-keyboard-response","348","355136","0.0-15.0-1.5","WtEekY5gOT","632f7bec7eb646908138c15c","6617fad957f7c6a12ea16e26","6622cfcda82597f8f8d99aaa","image grid"," ","","","","","Phylogenetic_Distractor_notarget","2500","ongrid"," ","8","Phylogenetic","true","experimental"
"","null","html-keyboard-response","349","355300","0.0-15.0-2.5","WtEekY5gOT","632f7bec7eb646908138c15c","6617fad957f7c6a12ea16e26","6622cfcda82597f8f8d99aaa","
    <div id=""grid-container"">
        <!-- Grid items will be dynamically added here -->
    </div>    ","null","","","","","","","","","","","",""
"","null","html-keyboard-response","350","356012","0.0-15.0-0.6","WtEekY5gOT","632f7bec7eb646908138c15c","6617fad957f7c6a12ea16e26","6622cfcda82597f8f8d99aaa","fixation cross","null","","","","","","","","","","","",""
"","719","html-keyboard-response","351","356732","0.0-15.0-1.6","WtEekY5gOT","632f7bec7eb646908138c15c","6617fad957f7c6a12ea16e26","6622cfcda82597f8f8d99aaa","image grid","q","","","","","Phylogenetic_Distractor_Threat_target","2500","ongrid","q","3","Phylogenetic","true","experimental"
"","null","html-keyboard-response","352","356890","0.0-15.0-2.6","WtEekY5gOT","632f7bec7eb646908138c15c","6617fad957f7c6a12ea16e26","6622cfcda82597f8f8d99aaa","
    <div id=""grid-container"">
        <!-- Grid items will be dynamically added here -->
    </div>    ","null","","","","","","","","","","","",""
"","null","html-keyboard-response","353","357612","0.0-15.0-0.7","WtEekY5gOT","632f7bec7eb646908138c15c","6617fad957f7c6a12ea16e26","6622cfcda82597f8f8d99aaa","fixation cross","null","","","","","","","","","","","",""
"","952","html-keyboard-response","354","358564","0.0-15.0-1.7","WtEekY5gOT","632f7bec7eb646908138c15c","6617fad957f7c6a12ea16e26","6622cfcda82597f8f8d99aaa","image grid","p","","","","","Phylogenetic_Distractor_Nonthreat_target","2500","ongrid","p","4","Phylogenetic","true","experimental"
"","null","html-keyboard-response","355","358730","0.0-15.0-2.7","WtEekY5gOT","632f7bec7eb646908138c15c","6617fad957f7c6a12ea16e26","6622cfcda82597f8f8d99aaa","
    <div id=""grid-container"">
        <!-- Grid items will be dynamically added here -->
    </div>    ","null","","","","","","","","","","","",""
"","null","html-keyboard-response","356","359456","0.0-15.0-0.8","WtEekY5gOT","632f7bec7eb646908138c15c","6617fad957f7c6a12ea16e26","6622cfcda82597f8f8d99aaa","fixation cross","null","","","","","","","","","","","",""
"","959","html-keyboard-response","357","360416","0.0-15.0-1.8","WtEekY5gOT","632f7bec7eb646908138c15c","6617fad957f7c6a12ea16e26","6622cfcda82597f8f8d99aaa","image grid","p","","","","","Phylogenetic_Distractor_Nonthreat_target","2500","ongrid","p","1","Phylogenetic","true","experimental"
"","null","html-keyboard-response","358","360581","0.0-15.0-2.8","WtEekY5gOT","632f7bec7eb646908138c15c","6617fad957f7c6a12ea16e26","6622cfcda82597f8f8d99aaa","
    <div id=""grid-container"">
        <!-- Grid items will be dynamically added here -->
    </div>    ","null","","","","","","","","","","","",""
"","null","html-keyboard-response","359","361300","0.0-15.0-0.9","WtEekY5gOT","632f7bec7eb646908138c15c","6617fad957f7c6a12ea16e26","6622cfcda82597f8f8d99aaa","fixation cross","null","","","","","","","","","","","",""
"","1163","html-keyboard-response","360","362464","0.0-15.0-1.9","WtEekY5gOT","632f7bec7eb646908138c15c","6617fad957f7c6a12ea16e26","6622cfcda82597f8f8d99aaa","image grid"," ","","","","","Phylogenetic_Distractor_Threat_target","2500","ongrid","q","5","Phylogenetic","false","experimental"
"","null","html-keyboard-response","361","362628","0.0-15.0-2.9","WtEekY5gOT","632f7bec7eb646908138c15c","6617fad957f7c6a12ea16e26","6622cfcda82597f8f8d99aaa","
    <div id=""grid-container"">
        <!-- Grid items will be dynamically added here -->
    </div>    ","null","","","","","","","","","","","",""
"","null","html-keyboard-response","362","363362","0.0-15.0-0.10","WtEekY5gOT","632f7bec7eb646908138c15c","6617fad957f7c6a12ea16e26","6622cfcda82597f8f8d99aaa","fixation cross","null","","","","","","","","","","","",""
"","1022","html-keyboard-response","363","364385","0.0-15.0-1.10","WtEekY5gOT","632f7bec7eb646908138c15c","6617fad957f7c6a12ea16e26","6622cfcda82597f8f8d99aaa","image grid","p","","","","","Phylogenetic_Distractor_Nonthreat_target","2500","ongrid","p","2","Phylogenetic","true","experimental"
"","null","html-keyboard-response","364","364540","0.0-15.0-2.10","WtEekY5gOT","632f7bec7eb646908138c15c","6617fad957f7c6a12ea16e26","6622cfcda82597f8f8d99aaa","
    <div id=""grid-container"">
        <!-- Grid items will be dynamically added here -->
    </div>    ","null","","","","","","","","","","","",""
"","null","html-keyboard-response","365","365263","0.0-15.0-0.11","WtEekY5gOT","632f7bec7eb646908138c15c","6617fad957f7c6a12ea16e26","6622cfcda82597f8f8d99aaa","fixation cross","null","","","","","","","","","","","",""
"","989","html-keyboard-response","366","366252","0.0-15.0-1.11","WtEekY5gOT","632f7bec7eb646908138c15c","6617fad957f7c6a12ea16e26","6622cfcda82597f8f8d99aaa","image grid","p","","","","","Phylogenetic_Distractor_Nonthreat_target","2500","ongrid","p","5","Phylogenetic","true","experimental"
"","null","html-keyboard-response","367","366416","0.0-15.0-2.11","WtEekY5gOT","632f7bec7eb646908138c15c","6617fad957f7c6a12ea16e26","6622cfcda82597f8f8d99aaa","
    <div id=""grid-container"">
        <!-- Grid items will be dynamically added here -->
    </div>    ","null","","","","","","","","","","","",""
"","null","html-keyboard-response","368","367137","0.0-15.0-0.12","WtEekY5gOT","632f7bec7eb646908138c15c","6617fad957f7c6a12ea16e26","6622cfcda82597f8f8d99aaa","fixation cross","null","","","","","","","","","","","",""
"","1575","html-keyboard-response","369","368712","0.0-15.0-1.12","WtEekY5gOT","632f7bec7eb646908138c15c","6617fad957f7c6a12ea16e26","6622cfcda82597f8f8d99aaa","image grid"," ","","","","","Phylogenetic_Distractor_Nonthreat_target","2500","ongrid","p","6","Phylogenetic","false","experimental"
