"success","rt","trial_type","trial_index","time_elapsed","internal_node_id","unique_identifier","subject_id","study_id","session_id","stimulus","response","timeout","failed_images","failed_audio","failed_video","task","time_manipulation","respondedwhen","correctresponse","targetimagelocation","blocktype","correct","roundtype"
"true","9269","fullscreen","0","10279","0.0-0.0","8pPr2qwIeU","65c433adee48048ed6f06a9c","6617fad957f7c6a12ea16e26","6622d0190a7f0839f619a034","","","","","","","","","","","","","",""
"","11614","html-keyboard-response","1","21885","0.0-1.0","8pPr2qwIeU","65c433adee48048ed6f06a9c","6617fad957f7c6a12ea16e26","6622d0190a7f0839f619a034","instruction screen 0","l","","","","","","","","","","","",""
"true","","preload","2","56250","0.0-2.0","8pPr2qwIeU","65c433adee48048ed6f06a9c","6617fad957f7c6a12ea16e26","6622d0190a7f0839f619a034","","","false","[]","[]","[]","","","","","","","",""
"","17197","html-keyboard-response","3","73463","0.0-3.0","8pPr2qwIeU","65c433adee48048ed6f06a9c","6617fad957f7c6a12ea16e26","6622d0190a7f0839f619a034","instruction screen 1","l","","","","","","","","","","","",""
"","18456","html-keyboard-response","4","91969","0.0-4.0","8pPr2qwIeU","65c433adee48048ed6f06a9c","6617fad957f7c6a12ea16e26","6622d0190a7f0839f619a034","instruction screen 2","q","","","","","","","","","","","",""
"","7331","html-keyboard-response","5","99368","0.0-5.0","8pPr2qwIeU","65c433adee48048ed6f06a9c","6617fad957f7c6a12ea16e26","6622d0190a7f0839f619a034","instruction screen 3","p","","","","","","","","","","","",""
"","11622","html-keyboard-response","6","111055","0.0-6.0","8pPr2qwIeU","65c433adee48048ed6f06a9c","6617fad957f7c6a12ea16e26","6622d0190a7f0839f619a034","instruction screen 4"," ","","","","","","","","","","","",""
"","20488","html-keyboard-response","7","131606","0.0-7.0","8pPr2qwIeU","65c433adee48048ed6f06a9c","6617fad957f7c6a12ea16e26","6622d0190a7f0839f619a034","instruction screen 5"," ","","","","","","","","","","","",""
"","null","html-keyboard-response","8","132174","0.0-8.0","8pPr2qwIeU","65c433adee48048ed6f06a9c","6617fad957f7c6a12ea16e26","6622d0190a7f0839f619a034","fixation cross","null","","","","","","","","","","","",""
"","null","html-keyboard-response","9","132680","0.0-9.0-0.0","8pPr2qwIeU","65c433adee48048ed6f06a9c","6617fad957f7c6a12ea16e26","6622d0190a7f0839f619a034","fixation cross","null","","","","","","","","","","","",""
"","1453","html-keyboard-response","10","134134","0.0-9.0-1.0","8pPr2qwIeU","65c433adee48048ed6f06a9c","6617fad957f7c6a12ea16e26","6622d0190a7f0839f619a034","image grid","p","","","","","Ontogenetic_Distractor_Nonthreat_target","3000","ongrid","p","5","Phylogenetic","true","practice"
"","null","html-keyboard-response","11","134300","0.0-9.0-2.0","8pPr2qwIeU","65c433adee48048ed6f06a9c","6617fad957f7c6a12ea16e26","6622d0190a7f0839f619a034","
    <div id=""grid-container"">
        <!-- Grid items will be dynamically added here -->
    </div>    ","null","","","","","","","","","","","",""
"","null","html-keyboard-response","12","135518","0.0-9.0-3.0","8pPr2qwIeU","65c433adee48048ed6f06a9c","6617fad957f7c6a12ea16e26","6622d0190a7f0839f619a034","feedback screen","null","","","","","","","","","","","",""
"","null","html-keyboard-response","13","136042","0.0-9.0-0.1","8pPr2qwIeU","65c433adee48048ed6f06a9c","6617fad957f7c6a12ea16e26","6622d0190a7f0839f619a034","fixation cross","null","","","","","","","","","","","",""
"","2600","html-keyboard-response","14","138643","0.0-9.0-1.1","8pPr2qwIeU","65c433adee48048ed6f06a9c","6617fad957f7c6a12ea16e26","6622d0190a7f0839f619a034","image grid","q","","","","","Phylogenetic_Distractor_Threat_target","2900","ongrid","q","9","Phylogenetic","true","practice"
"","null","html-keyboard-response","15","138809","0.0-9.0-2.1","8pPr2qwIeU","65c433adee48048ed6f06a9c","6617fad957f7c6a12ea16e26","6622d0190a7f0839f619a034","
    <div id=""grid-container"">
        <!-- Grid items will be dynamically added here -->
    </div>    ","null","","","","","","","","","","","",""
"","null","html-keyboard-response","16","140041","0.0-9.0-3.1","8pPr2qwIeU","65c433adee48048ed6f06a9c","6617fad957f7c6a12ea16e26","6622d0190a7f0839f619a034","feedback screen","null","","","","","","","","","","","",""
"","null","html-keyboard-response","17","140560","0.0-9.0-0.2","8pPr2qwIeU","65c433adee48048ed6f06a9c","6617fad957f7c6a12ea16e26","6622d0190a7f0839f619a034","fixation cross","null","","","","","","","","","","","",""
"","1373","html-keyboard-response","18","141934","0.0-9.0-1.2","8pPr2qwIeU","65c433adee48048ed6f06a9c","6617fad957f7c6a12ea16e26","6622d0190a7f0839f619a034","image grid","q","","","","","Ontogenetic_Distractor_Threat_target","2800","ongrid","q","4","Phylogenetic","true","practice"
"","null","html-keyboard-response","19","142099","0.0-9.0-2.2","8pPr2qwIeU","65c433adee48048ed6f06a9c","6617fad957f7c6a12ea16e26","6622d0190a7f0839f619a034","
    <div id=""grid-container"">
        <!-- Grid items will be dynamically added here -->
    </div>    ","null","","","","","","","","","","","",""
"","null","html-keyboard-response","20","143310","0.0-9.0-3.2","8pPr2qwIeU","65c433adee48048ed6f06a9c","6617fad957f7c6a12ea16e26","6622d0190a7f0839f619a034","feedback screen","null","","","","","","","","","","","",""
"","null","html-keyboard-response","21","143829","0.0-9.0-0.3","8pPr2qwIeU","65c433adee48048ed6f06a9c","6617fad957f7c6a12ea16e26","6622d0190a7f0839f619a034","fixation cross","null","","","","","","","","","","","",""
"","912","html-keyboard-response","22","144741","0.0-9.0-1.3","8pPr2qwIeU","65c433adee48048ed6f06a9c","6617fad957f7c6a12ea16e26","6622d0190a7f0839f619a034","image grid","p","","","","","Ontogenetic_Distractor_Nonthreat_target","2700","ongrid","p","2","Phylogenetic","true","practice"
"","null","html-keyboard-response","23","144893","0.0-9.0-2.3","8pPr2qwIeU","65c433adee48048ed6f06a9c","6617fad957f7c6a12ea16e26","6622d0190a7f0839f619a034","
    <div id=""grid-container"">
        <!-- Grid items will be dynamically added here -->
    </div>    ","null","","","","","","","","","","","",""
"","null","html-keyboard-response","24","146117","0.0-9.0-3.3","8pPr2qwIeU","65c433adee48048ed6f06a9c","6617fad957f7c6a12ea16e26","6622d0190a7f0839f619a034","feedback screen","null","","","","","","","","","","","",""
"","null","html-keyboard-response","25","146633","0.0-9.0-0.4","8pPr2qwIeU","65c433adee48048ed6f06a9c","6617fad957f7c6a12ea16e26","6622d0190a7f0839f619a034","fixation cross","null","","","","","","","","","","","",""
"","1848","html-keyboard-response","26","148482","0.0-9.0-1.4","8pPr2qwIeU","65c433adee48048ed6f06a9c","6617fad957f7c6a12ea16e26","6622d0190a7f0839f619a034","image grid","p","","","","","Phylogenetic_Distractor_Nonthreat_target","2600","ongrid","p","1","Phylogenetic","true","practice"
"","null","html-keyboard-response","27","148644","0.0-9.0-2.4","8pPr2qwIeU","65c433adee48048ed6f06a9c","6617fad957f7c6a12ea16e26","6622d0190a7f0839f619a034","
    <div id=""grid-container"">
        <!-- Grid items will be dynamically added here -->
    </div>    ","null","","","","","","","","","","","",""
"","null","html-keyboard-response","28","149870","0.0-9.0-3.4","8pPr2qwIeU","65c433adee48048ed6f06a9c","6617fad957f7c6a12ea16e26","6622d0190a7f0839f619a034","feedback screen","null","","","","","","","","","","","",""
"","null","html-keyboard-response","29","150387","0.0-9.0-0.5","8pPr2qwIeU","65c433adee48048ed6f06a9c","6617fad957f7c6a12ea16e26","6622d0190a7f0839f619a034","fixation cross","null","","","","","","","","","","","",""
"","854","html-keyboard-response","30","151242","0.0-9.0-1.5","8pPr2qwIeU","65c433adee48048ed6f06a9c","6617fad957f7c6a12ea16e26","6622d0190a7f0839f619a034","image grid","p","","","","","Ontogenetic_Distractor_Nonthreat_target","2500","ongrid","p","4","Phylogenetic","true","practice"
"","null","html-keyboard-response","31","151400","0.0-9.0-2.5","8pPr2qwIeU","65c433adee48048ed6f06a9c","6617fad957f7c6a12ea16e26","6622d0190a7f0839f619a034","
    <div id=""grid-container"">
        <!-- Grid items will be dynamically added here -->
    </div>    ","null","","","","","","","","","","","",""
"","null","html-keyboard-response","32","152611","0.0-9.0-3.5","8pPr2qwIeU","65c433adee48048ed6f06a9c","6617fad957f7c6a12ea16e26","6622d0190a7f0839f619a034","feedback screen","null","","","","","","","","","","","",""
"","null","html-keyboard-response","33","153129","0.0-9.0-0.6","8pPr2qwIeU","65c433adee48048ed6f06a9c","6617fad957f7c6a12ea16e26","6622d0190a7f0839f619a034","fixation cross","null","","","","","","","","","","","",""
"","2224","html-keyboard-response","34","155354","0.0-9.0-1.6","8pPr2qwIeU","65c433adee48048ed6f06a9c","6617fad957f7c6a12ea16e26","6622d0190a7f0839f619a034","image grid","p","","","","","Phylogenetic_Distractor_Nonthreat_target","2400","ongrid","p","4","Phylogenetic","true","practice"
"","null","html-keyboard-response","35","155516","0.0-9.0-2.6","8pPr2qwIeU","65c433adee48048ed6f06a9c","6617fad957f7c6a12ea16e26","6622d0190a7f0839f619a034","
    <div id=""grid-container"">
        <!-- Grid items will be dynamically added here -->
    </div>    ","null","","","","","","","","","","","",""
"","null","html-keyboard-response","36","156730","0.0-9.0-3.6","8pPr2qwIeU","65c433adee48048ed6f06a9c","6617fad957f7c6a12ea16e26","6622d0190a7f0839f619a034","feedback screen","null","","","","","","","","","","","",""
"","null","html-keyboard-response","37","157247","0.0-9.0-0.7","8pPr2qwIeU","65c433adee48048ed6f06a9c","6617fad957f7c6a12ea16e26","6622d0190a7f0839f619a034","fixation cross","null","","","","","","","","","","","",""
"","1718","html-keyboard-response","38","158966","0.0-9.0-1.7","8pPr2qwIeU","65c433adee48048ed6f06a9c","6617fad957f7c6a12ea16e26","6622d0190a7f0839f619a034","image grid","q","","","","","Phylogenetic_Distractor_Threat_target","2300","ongrid","q","3","Phylogenetic","true","practice"
"","null","html-keyboard-response","39","159125","0.0-9.0-2.7","8pPr2qwIeU","65c433adee48048ed6f06a9c","6617fad957f7c6a12ea16e26","6622d0190a7f0839f619a034","
    <div id=""grid-container"">
        <!-- Grid items will be dynamically added here -->
    </div>    ","null","","","","","","","","","","","",""
"","null","html-keyboard-response","40","160352","0.0-9.0-3.7","8pPr2qwIeU","65c433adee48048ed6f06a9c","6617fad957f7c6a12ea16e26","6622d0190a7f0839f619a034","feedback screen","null","","","","","","","","","","","",""
"","null","html-keyboard-response","41","160870","0.0-9.0-0.8","8pPr2qwIeU","65c433adee48048ed6f06a9c","6617fad957f7c6a12ea16e26","6622d0190a7f0839f619a034","fixation cross","null","","","","","","","","","","","",""
"","null","html-keyboard-response","42","163079","0.0-9.0-1.8","8pPr2qwIeU","65c433adee48048ed6f06a9c","6617fad957f7c6a12ea16e26","6622d0190a7f0839f619a034","
        <div id=""grid-container"">
        <!-- Grid items will be dynamically added here -->
    </div>    ","null","","","","","","","","","","","",""
"","2528","html-keyboard-response","43","163407","0.0-9.0-2.8","8pPr2qwIeU","65c433adee48048ed6f06a9c","6617fad957f7c6a12ea16e26","6622d0190a7f0839f619a034","mask grid","q","","","","","Phylogenetic_Distractor_Threat_target","2200","onmask","q","2","Phylogenetic","true","practice"
"","null","html-keyboard-response","44","164628","0.0-9.0-3.8","8pPr2qwIeU","65c433adee48048ed6f06a9c","6617fad957f7c6a12ea16e26","6622d0190a7f0839f619a034","feedback screen","null","","","","","","","","","","","",""
"","null","html-keyboard-response","45","165141","0.0-9.0-0.9","8pPr2qwIeU","65c433adee48048ed6f06a9c","6617fad957f7c6a12ea16e26","6622d0190a7f0839f619a034","fixation cross","null","","","","","","","","","","","",""
"","1307","html-keyboard-response","46","166449","0.0-9.0-1.9","8pPr2qwIeU","65c433adee48048ed6f06a9c","6617fad957f7c6a12ea16e26","6622d0190a7f0839f619a034","image grid","p","","","","","Phylogenetic_Distractor_Nonthreat_target","2100","ongrid","p","8","Phylogenetic","true","practice"
"","null","html-keyboard-response","47","166607","0.0-9.0-2.9","8pPr2qwIeU","65c433adee48048ed6f06a9c","6617fad957f7c6a12ea16e26","6622d0190a7f0839f619a034","
    <div id=""grid-container"">
        <!-- Grid items will be dynamically added here -->
    </div>    ","null","","","","","","","","","","","",""
"","null","html-keyboard-response","48","167827","0.0-9.0-3.9","8pPr2qwIeU","65c433adee48048ed6f06a9c","6617fad957f7c6a12ea16e26","6622d0190a7f0839f619a034","feedback screen","null","","","","","","","","","","","",""
"","null","html-keyboard-response","49","168347","0.0-9.0-0.10","8pPr2qwIeU","65c433adee48048ed6f06a9c","6617fad957f7c6a12ea16e26","6622d0190a7f0839f619a034","fixation cross","null","","","","","","","","","","","",""
"","1165","html-keyboard-response","50","169514","0.0-9.0-1.10","8pPr2qwIeU","65c433adee48048ed6f06a9c","6617fad957f7c6a12ea16e26","6622d0190a7f0839f619a034","image grid","q","","","","","Phylogenetic_Distractor_Threat_target","2000","ongrid","q","3","Phylogenetic","true","practice"
"","null","html-keyboard-response","51","169675","0.0-9.0-2.10","8pPr2qwIeU","65c433adee48048ed6f06a9c","6617fad957f7c6a12ea16e26","6622d0190a7f0839f619a034","
    <div id=""grid-container"">
        <!-- Grid items will be dynamically added here -->
    </div>    ","null","","","","","","","","","","","",""
"","null","html-keyboard-response","52","170892","0.0-9.0-3.10","8pPr2qwIeU","65c433adee48048ed6f06a9c","6617fad957f7c6a12ea16e26","6622d0190a7f0839f619a034","feedback screen","null","","","","","","","","","","","",""
"","null","html-keyboard-response","53","171403","0.0-9.0-0.11","8pPr2qwIeU","65c433adee48048ed6f06a9c","6617fad957f7c6a12ea16e26","6622d0190a7f0839f619a034","fixation cross","null","","","","","","","","","","","",""
"","1003","html-keyboard-response","54","172406","0.0-9.0-1.11","8pPr2qwIeU","65c433adee48048ed6f06a9c","6617fad957f7c6a12ea16e26","6622d0190a7f0839f619a034","image grid","q","","","","","Ontogenetic_Distractor_Threat_target","1900","ongrid","q","3","Phylogenetic","true","practice"
"","null","html-keyboard-response","55","172567","0.0-9.0-2.11","8pPr2qwIeU","65c433adee48048ed6f06a9c","6617fad957f7c6a12ea16e26","6622d0190a7f0839f619a034","
    <div id=""grid-container"">
        <!-- Grid items will be dynamically added here -->
    </div>    ","null","","","","","","","","","","","",""
"","null","html-keyboard-response","56","173790","0.0-9.0-3.11","8pPr2qwIeU","65c433adee48048ed6f06a9c","6617fad957f7c6a12ea16e26","6622d0190a7f0839f619a034","feedback screen","null","","","","","","","","","","","",""
"","null","html-keyboard-response","57","174307","0.0-9.0-0.12","8pPr2qwIeU","65c433adee48048ed6f06a9c","6617fad957f7c6a12ea16e26","6622d0190a7f0839f619a034","fixation cross","null","","","","","","","","","","","",""
"","1093","html-keyboard-response","58","175402","0.0-9.0-1.12","8pPr2qwIeU","65c433adee48048ed6f06a9c","6617fad957f7c6a12ea16e26","6622d0190a7f0839f619a034","image grid"," ","","","","","Ontogenetic_Distractor_notarget","1800","ongrid"," ","8","Phylogenetic","true","practice"
"","null","html-keyboard-response","59","175565","0.0-9.0-2.12","8pPr2qwIeU","65c433adee48048ed6f06a9c","6617fad957f7c6a12ea16e26","6622d0190a7f0839f619a034","
    <div id=""grid-container"">
        <!-- Grid items will be dynamically added here -->
    </div>    ","null","","","","","","","","","","","",""
"","null","html-keyboard-response","60","176783","0.0-9.0-3.12","8pPr2qwIeU","65c433adee48048ed6f06a9c","6617fad957f7c6a12ea16e26","6622d0190a7f0839f619a034","feedback screen","null","","","","","","","","","","","",""
"","null","html-keyboard-response","61","177290","0.0-9.0-0.13","8pPr2qwIeU","65c433adee48048ed6f06a9c","6617fad957f7c6a12ea16e26","6622d0190a7f0839f619a034","fixation cross","null","","","","","","","","","","","",""
"","null","html-keyboard-response","62","178997","0.0-9.0-1.13","8pPr2qwIeU","65c433adee48048ed6f06a9c","6617fad957f7c6a12ea16e26","6622d0190a7f0839f619a034","
        <div id=""grid-container"">
        <!-- Grid items will be dynamically added here -->
    </div>    ","null","","","","","","","","","","","",""
"","1746","html-keyboard-response","63","179044","0.0-9.0-2.13","8pPr2qwIeU","65c433adee48048ed6f06a9c","6617fad957f7c6a12ea16e26","6622d0190a7f0839f619a034","mask grid"," ","","","","","Ontogenetic_Distractor_notarget","1700","onmask"," ","5","Phylogenetic","true","practice"
"","null","html-keyboard-response","64","180274","0.0-9.0-3.13","8pPr2qwIeU","65c433adee48048ed6f06a9c","6617fad957f7c6a12ea16e26","6622d0190a7f0839f619a034","feedback screen","null","","","","","","","","","","","",""
"","null","html-keyboard-response","65","180789","0.0-9.0-0.14","8pPr2qwIeU","65c433adee48048ed6f06a9c","6617fad957f7c6a12ea16e26","6622d0190a7f0839f619a034","fixation cross","null","","","","","","","","","","","",""
"","null","html-keyboard-response","66","182397","0.0-9.0-1.14","8pPr2qwIeU","65c433adee48048ed6f06a9c","6617fad957f7c6a12ea16e26","6622d0190a7f0839f619a034","
        <div id=""grid-container"">
        <!-- Grid items will be dynamically added here -->
    </div>    ","null","","","","","","","","","","","",""
"","2063","html-keyboard-response","67","182861","0.0-9.0-2.14","8pPr2qwIeU","65c433adee48048ed6f06a9c","6617fad957f7c6a12ea16e26","6622d0190a7f0839f619a034","mask grid"," ","","","","","Phylogenetic_Distractor_notarget","1600","onmask"," ","9","Phylogenetic","true","practice"
"","null","html-keyboard-response","68","184085","0.0-9.0-3.14","8pPr2qwIeU","65c433adee48048ed6f06a9c","6617fad957f7c6a12ea16e26","6622d0190a7f0839f619a034","feedback screen","null","","","","","","","","","","","",""
"","null","html-keyboard-response","69","184592","0.0-9.0-0.15","8pPr2qwIeU","65c433adee48048ed6f06a9c","6617fad957f7c6a12ea16e26","6622d0190a7f0839f619a034","fixation cross","null","","","","","","","","","","","",""
"","1190","html-keyboard-response","70","185783","0.0-9.0-1.15","8pPr2qwIeU","65c433adee48048ed6f06a9c","6617fad957f7c6a12ea16e26","6622d0190a7f0839f619a034","image grid","p","","","","","Phylogenetic_Distractor_Nonthreat_target","1500","ongrid","p","2","Phylogenetic","true","practice"
"","null","html-keyboard-response","71","185940","0.0-9.0-2.15","8pPr2qwIeU","65c433adee48048ed6f06a9c","6617fad957f7c6a12ea16e26","6622d0190a7f0839f619a034","
    <div id=""grid-container"">
        <!-- Grid items will be dynamically added here -->
    </div>    ","null","","","","","","","","","","","",""
"","null","html-keyboard-response","72","187159","0.0-9.0-3.15","8pPr2qwIeU","65c433adee48048ed6f06a9c","6617fad957f7c6a12ea16e26","6622d0190a7f0839f619a034","feedback screen","null","","","","","","","","","","","",""
"","null","html-keyboard-response","73","187668","0.0-9.0-0.16","8pPr2qwIeU","65c433adee48048ed6f06a9c","6617fad957f7c6a12ea16e26","6622d0190a7f0839f619a034","fixation cross","null","","","","","","","","","","","",""
"","871","html-keyboard-response","74","188540","0.0-9.0-1.16","8pPr2qwIeU","65c433adee48048ed6f06a9c","6617fad957f7c6a12ea16e26","6622d0190a7f0839f619a034","image grid","p","","","","","Ontogenetic_Distractor_Nonthreat_target","1400","ongrid","p","3","Phylogenetic","true","practice"
"","null","html-keyboard-response","75","188692","0.0-9.0-2.16","8pPr2qwIeU","65c433adee48048ed6f06a9c","6617fad957f7c6a12ea16e26","6622d0190a7f0839f619a034","
    <div id=""grid-container"">
        <!-- Grid items will be dynamically added here -->
    </div>    ","null","","","","","","","","","","","",""
"","null","html-keyboard-response","76","189909","0.0-9.0-3.16","8pPr2qwIeU","65c433adee48048ed6f06a9c","6617fad957f7c6a12ea16e26","6622d0190a7f0839f619a034","feedback screen","null","","","","","","","","","","","",""
"","null","html-keyboard-response","77","190419","0.0-9.0-0.17","8pPr2qwIeU","65c433adee48048ed6f06a9c","6617fad957f7c6a12ea16e26","6622d0190a7f0839f619a034","fixation cross","null","","","","","","","","","","","",""
"","762","html-keyboard-response","78","191181","0.0-9.0-1.17","8pPr2qwIeU","65c433adee48048ed6f06a9c","6617fad957f7c6a12ea16e26","6622d0190a7f0839f619a034","image grid","q","","","","","Ontogenetic_Distractor_Threat_target","1300","ongrid","q","5","Phylogenetic","true","practice"
"","null","html-keyboard-response","79","191333","0.0-9.0-2.17","8pPr2qwIeU","65c433adee48048ed6f06a9c","6617fad957f7c6a12ea16e26","6622d0190a7f0839f619a034","
    <div id=""grid-container"">
        <!-- Grid items will be dynamically added here -->
    </div>    ","null","","","","","","","","","","","",""
"","null","html-keyboard-response","80","192556","0.0-9.0-3.17","8pPr2qwIeU","65c433adee48048ed6f06a9c","6617fad957f7c6a12ea16e26","6622d0190a7f0839f619a034","feedback screen","null","","","","","","","","","","","",""
"","null","html-keyboard-response","81","193074","0.0-9.0-0.18","8pPr2qwIeU","65c433adee48048ed6f06a9c","6617fad957f7c6a12ea16e26","6622d0190a7f0839f619a034","fixation cross","null","","","","","","","","","","","",""
"","null","html-keyboard-response","82","194279","0.0-9.0-1.18","8pPr2qwIeU","65c433adee48048ed6f06a9c","6617fad957f7c6a12ea16e26","6622d0190a7f0839f619a034","
        <div id=""grid-container"">
        <!-- Grid items will be dynamically added here -->
    </div>    ","null","","","","","","","","","","","",""
"","1278","html-keyboard-response","83","194357","0.0-9.0-2.18","8pPr2qwIeU","65c433adee48048ed6f06a9c","6617fad957f7c6a12ea16e26","6622d0190a7f0839f619a034","mask grid"," ","","","","","Phylogenetic_Distractor_notarget","1200","onmask"," ","7","Phylogenetic","true","practice"
"","null","html-keyboard-response","84","195581","0.0-9.0-3.18","8pPr2qwIeU","65c433adee48048ed6f06a9c","6617fad957f7c6a12ea16e26","6622d0190a7f0839f619a034","feedback screen","null","","","","","","","","","","","",""
"","null","html-keyboard-response","85","196102","0.0-9.0-0.19","8pPr2qwIeU","65c433adee48048ed6f06a9c","6617fad957f7c6a12ea16e26","6622d0190a7f0839f619a034","fixation cross","null","","","","","","","","","","","",""
"","906","html-keyboard-response","86","197010","0.0-9.0-1.19","8pPr2qwIeU","65c433adee48048ed6f06a9c","6617fad957f7c6a12ea16e26","6622d0190a7f0839f619a034","image grid","q","","","","","Ontogenetic_Distractor_Threat_target","1100","ongrid","q","4","Phylogenetic","true","practice"
"","null","html-keyboard-response","87","197172","0.0-9.0-2.19","8pPr2qwIeU","65c433adee48048ed6f06a9c","6617fad957f7c6a12ea16e26","6622d0190a7f0839f619a034","
    <div id=""grid-container"">
        <!-- Grid items will be dynamically added here -->
    </div>    ","null","","","","","","","","","","","",""
"","null","html-keyboard-response","88","198392","0.0-9.0-3.19","8pPr2qwIeU","65c433adee48048ed6f06a9c","6617fad957f7c6a12ea16e26","6622d0190a7f0839f619a034","feedback screen","null","","","","","","","","","","","",""
"","11829","html-keyboard-response","89","210274","0.0-10.0","8pPr2qwIeU","65c433adee48048ed6f06a9c","6617fad957f7c6a12ea16e26","6622d0190a7f0839f619a034","pre-experimental_briefing"," ","","","","","","","","","","","",""
"","null","html-keyboard-response","90","212843","0.0-11.0-0.0","8pPr2qwIeU","65c433adee48048ed6f06a9c","6617fad957f7c6a12ea16e26","6622d0190a7f0839f619a034","fixation cross","null","","","","","","","","","","","",""
"","2251","html-keyboard-response","91","215095","0.0-11.0-1.0","8pPr2qwIeU","65c433adee48048ed6f06a9c","6617fad957f7c6a12ea16e26","6622d0190a7f0839f619a034","image grid","q","","","","","Phylogenetic_Distractor_Threat_target","2500","ongrid","q","1","Phylogenetic","true","experimental"
"","null","html-keyboard-response","92","215258","0.0-11.0-2.0","8pPr2qwIeU","65c433adee48048ed6f06a9c","6617fad957f7c6a12ea16e26","6622d0190a7f0839f619a034","
    <div id=""grid-container"">
        <!-- Grid items will be dynamically added here -->
    </div>    ","null","","","","","","","","","","","",""
"","null","html-keyboard-response","93","215971","0.0-11.0-0.1","8pPr2qwIeU","65c433adee48048ed6f06a9c","6617fad957f7c6a12ea16e26","6622d0190a7f0839f619a034","fixation cross","null","","","","","","","","","","","",""
"","725","html-keyboard-response","94","216697","0.0-11.0-1.1","8pPr2qwIeU","65c433adee48048ed6f06a9c","6617fad957f7c6a12ea16e26","6622d0190a7f0839f619a034","image grid","q","","","","","Phylogenetic_Distractor_Threat_target","2500","ongrid","q","1","Phylogenetic","true","experimental"
"","null","html-keyboard-response","95","216864","0.0-11.0-2.1","8pPr2qwIeU","65c433adee48048ed6f06a9c","6617fad957f7c6a12ea16e26","6622d0190a7f0839f619a034","
    <div id=""grid-container"">
        <!-- Grid items will be dynamically added here -->
    </div>    ","null","","","","","","","","","","","",""
"","null","html-keyboard-response","96","217581","0.0-11.0-0.2","8pPr2qwIeU","65c433adee48048ed6f06a9c","6617fad957f7c6a12ea16e26","6622d0190a7f0839f619a034","fixation cross","null","","","","","","","","","","","",""
"","2059","html-keyboard-response","97","219641","0.0-11.0-1.2","8pPr2qwIeU","65c433adee48048ed6f06a9c","6617fad957f7c6a12ea16e26","6622d0190a7f0839f619a034","image grid","q","","","","","Phylogenetic_Distractor_Threat_target","2500","ongrid","q","4","Phylogenetic","true","experimental"
"","null","html-keyboard-response","98","219806","0.0-11.0-2.2","8pPr2qwIeU","65c433adee48048ed6f06a9c","6617fad957f7c6a12ea16e26","6622d0190a7f0839f619a034","
    <div id=""grid-container"">
        <!-- Grid items will be dynamically added here -->
    </div>    ","null","","","","","","","","","","","",""
"","null","html-keyboard-response","99","220529","0.0-11.0-0.3","8pPr2qwIeU","65c433adee48048ed6f06a9c","6617fad957f7c6a12ea16e26","6622d0190a7f0839f619a034","fixation cross","null","","","","","","","","","","","",""
"","2027","html-keyboard-response","100","222558","0.0-11.0-1.3","8pPr2qwIeU","65c433adee48048ed6f06a9c","6617fad957f7c6a12ea16e26","6622d0190a7f0839f619a034","image grid","q","","","","","Phylogenetic_Distractor_Threat_target","2500","ongrid","q","9","Phylogenetic","true","experimental"
"","null","html-keyboard-response","101","222723","0.0-11.0-2.3","8pPr2qwIeU","65c433adee48048ed6f06a9c","6617fad957f7c6a12ea16e26","6622d0190a7f0839f619a034","
    <div id=""grid-container"">
        <!-- Grid items will be dynamically added here -->
    </div>    ","null","","","","","","","","","","","",""
"","null","html-keyboard-response","102","223449","0.0-11.0-0.4","8pPr2qwIeU","65c433adee48048ed6f06a9c","6617fad957f7c6a12ea16e26","6622d0190a7f0839f619a034","fixation cross","null","","","","","","","","","","","",""
"","1730","html-keyboard-response","103","225180","0.0-11.0-1.4","8pPr2qwIeU","65c433adee48048ed6f06a9c","6617fad957f7c6a12ea16e26","6622d0190a7f0839f619a034","image grid","p","","","","","Phylogenetic_Distractor_Nonthreat_target","2500","ongrid","p","7","Phylogenetic","true","experimental"
"","null","html-keyboard-response","104","225337","0.0-11.0-2.4","8pPr2qwIeU","65c433adee48048ed6f06a9c","6617fad957f7c6a12ea16e26","6622d0190a7f0839f619a034","
    <div id=""grid-container"">
        <!-- Grid items will be dynamically added here -->
    </div>    ","null","","","","","","","","","","","",""
"","null","html-keyboard-response","105","226064","0.0-11.0-0.5","8pPr2qwIeU","65c433adee48048ed6f06a9c","6617fad957f7c6a12ea16e26","6622d0190a7f0839f619a034","fixation cross","null","","","","","","","","","","","",""
"","1275","html-keyboard-response","106","227340","0.0-11.0-1.5","8pPr2qwIeU","65c433adee48048ed6f06a9c","6617fad957f7c6a12ea16e26","6622d0190a7f0839f619a034","image grid","p","","","","","Phylogenetic_Distractor_Nonthreat_target","2500","ongrid","p","4","Phylogenetic","true","experimental"
"","null","html-keyboard-response","107","227503","0.0-11.0-2.5","8pPr2qwIeU","65c433adee48048ed6f06a9c","6617fad957f7c6a12ea16e26","6622d0190a7f0839f619a034","
    <div id=""grid-container"">
        <!-- Grid items will be dynamically added here -->
    </div>    ","null","","","","","","","","","","","",""
"","null","html-keyboard-response","108","228216","0.0-11.0-0.6","8pPr2qwIeU","65c433adee48048ed6f06a9c","6617fad957f7c6a12ea16e26","6622d0190a7f0839f619a034","fixation cross","null","","","","","","","","","","","",""
"","935","html-keyboard-response","109","229152","0.0-11.0-1.6","8pPr2qwIeU","65c433adee48048ed6f06a9c","6617fad957f7c6a12ea16e26","6622d0190a7f0839f619a034","image grid","p","","","","","Phylogenetic_Distractor_Nonthreat_target","2500","ongrid","p","1","Phylogenetic","true","experimental"
"","null","html-keyboard-response","110","229312","0.0-11.0-2.6","8pPr2qwIeU","65c433adee48048ed6f06a9c","6617fad957f7c6a12ea16e26","6622d0190a7f0839f619a034","
    <div id=""grid-container"">
        <!-- Grid items will be dynamically added here -->
    </div>    ","null","","","","","","","","","","","",""
"","null","html-keyboard-response","111","230037","0.0-11.0-0.7","8pPr2qwIeU","65c433adee48048ed6f06a9c","6617fad957f7c6a12ea16e26","6622d0190a7f0839f619a034","fixation cross","null","","","","","","","","","","","",""
"","1955","html-keyboard-response","112","231993","0.0-11.0-1.7","8pPr2qwIeU","65c433adee48048ed6f06a9c","6617fad957f7c6a12ea16e26","6622d0190a7f0839f619a034","image grid"," ","","","","","Phylogenetic_Distractor_notarget","2500","ongrid"," ","8","Phylogenetic","true","experimental"
"","null","html-keyboard-response","113","232148","0.0-11.0-2.7","8pPr2qwIeU","65c433adee48048ed6f06a9c","6617fad957f7c6a12ea16e26","6622d0190a7f0839f619a034","
    <div id=""grid-container"">
        <!-- Grid items will be dynamically added here -->
    </div>    ","null","","","","","","","","","","","",""
"","null","html-keyboard-response","114","232871","0.0-11.0-0.8","8pPr2qwIeU","65c433adee48048ed6f06a9c","6617fad957f7c6a12ea16e26","6622d0190a7f0839f619a034","fixation cross","null","","","","","","","","","","","",""
"","1627","html-keyboard-response","115","234499","0.0-11.0-1.8","8pPr2qwIeU","65c433adee48048ed6f06a9c","6617fad957f7c6a12ea16e26","6622d0190a7f0839f619a034","image grid","p","","","","","Phylogenetic_Distractor_Nonthreat_target","2500","ongrid","p","3","Phylogenetic","true","experimental"
"","null","html-keyboard-response","116","234654","0.0-11.0-2.8","8pPr2qwIeU","65c433adee48048ed6f06a9c","6617fad957f7c6a12ea16e26","6622d0190a7f0839f619a034","
    <div id=""grid-container"">
        <!-- Grid items will be dynamically added here -->
    </div>    ","null","","","","","","","","","","","",""
"","null","html-keyboard-response","117","235379","0.0-11.0-0.9","8pPr2qwIeU","65c433adee48048ed6f06a9c","6617fad957f7c6a12ea16e26","6622d0190a7f0839f619a034","fixation cross","null","","","","","","","","","","","",""
"","966","html-keyboard-response","118","236347","0.0-11.0-1.9","8pPr2qwIeU","65c433adee48048ed6f06a9c","6617fad957f7c6a12ea16e26","6622d0190a7f0839f619a034","image grid","p","","","","","Phylogenetic_Distractor_Nonthreat_target","2500","ongrid","p","6","Phylogenetic","true","experimental"
"","null","html-keyboard-response","119","236506","0.0-11.0-2.9","8pPr2qwIeU","65c433adee48048ed6f06a9c","6617fad957f7c6a12ea16e26","6622d0190a7f0839f619a034","
    <div id=""grid-container"">
        <!-- Grid items will be dynamically added here -->
    </div>    ","null","","","","","","","","","","","",""
"","null","html-keyboard-response","120","237221","0.0-11.0-0.10","8pPr2qwIeU","65c433adee48048ed6f06a9c","6617fad957f7c6a12ea16e26","6622d0190a7f0839f619a034","fixation cross","null","","","","","","","","","","","",""
"","1005","html-keyboard-response","121","238227","0.0-11.0-1.10","8pPr2qwIeU","65c433adee48048ed6f06a9c","6617fad957f7c6a12ea16e26","6622d0190a7f0839f619a034","image grid","q","","","","","Phylogenetic_Distractor_Threat_target","2500","ongrid","q","3","Phylogenetic","true","experimental"
"","null","html-keyboard-response","122","238388","0.0-11.0-2.10","8pPr2qwIeU","65c433adee48048ed6f06a9c","6617fad957f7c6a12ea16e26","6622d0190a7f0839f619a034","
    <div id=""grid-container"">
        <!-- Grid items will be dynamically added here -->
    </div>    ","null","","","","","","","","","","","",""
"","null","html-keyboard-response","123","239103","0.0-11.0-0.11","8pPr2qwIeU","65c433adee48048ed6f06a9c","6617fad957f7c6a12ea16e26","6622d0190a7f0839f619a034","fixation cross","null","","","","","","","","","","","",""
"","842","html-keyboard-response","124","239946","0.0-11.0-1.11","8pPr2qwIeU","65c433adee48048ed6f06a9c","6617fad957f7c6a12ea16e26","6622d0190a7f0839f619a034","image grid","q","","","","","Phylogenetic_Distractor_Threat_target","2500","ongrid","q","3","Phylogenetic","true","experimental"
"","null","html-keyboard-response","125","240112","0.0-11.0-2.11","8pPr2qwIeU","65c433adee48048ed6f06a9c","6617fad957f7c6a12ea16e26","6622d0190a7f0839f619a034","
    <div id=""grid-container"">
        <!-- Grid items will be dynamically added here -->
    </div>    ","null","","","","","","","","","","","",""
"","null","html-keyboard-response","126","240827","0.0-11.0-0.12","8pPr2qwIeU","65c433adee48048ed6f06a9c","6617fad957f7c6a12ea16e26","6622d0190a7f0839f619a034","fixation cross","null","","","","","","","","","","","",""
"","783","html-keyboard-response","127","241611","0.0-11.0-1.12","8pPr2qwIeU","65c433adee48048ed6f06a9c","6617fad957f7c6a12ea16e26","6622d0190a7f0839f619a034","image grid","q","","","","","Phylogenetic_Distractor_Threat_target","2500","ongrid","q","4","Phylogenetic","true","experimental"
"","null","html-keyboard-response","128","241771","0.0-11.0-2.12","8pPr2qwIeU","65c433adee48048ed6f06a9c","6617fad957f7c6a12ea16e26","6622d0190a7f0839f619a034","
    <div id=""grid-container"">
        <!-- Grid items will be dynamically added here -->
    </div>    ","null","","","","","","","","","","","",""
"","null","html-keyboard-response","129","242486","0.0-11.0-0.13","8pPr2qwIeU","65c433adee48048ed6f06a9c","6617fad957f7c6a12ea16e26","6622d0190a7f0839f619a034","fixation cross","null","","","","","","","","","","","",""
"","1007","html-keyboard-response","130","243494","0.0-11.0-1.13","8pPr2qwIeU","65c433adee48048ed6f06a9c","6617fad957f7c6a12ea16e26","6622d0190a7f0839f619a034","image grid","p","","","","","Phylogenetic_Distractor_Nonthreat_target","2500","ongrid","p","2","Phylogenetic","true","experimental"
"","null","html-keyboard-response","131","243651","0.0-11.0-2.13","8pPr2qwIeU","65c433adee48048ed6f06a9c","6617fad957f7c6a12ea16e26","6622d0190a7f0839f619a034","
    <div id=""grid-container"">
        <!-- Grid items will be dynamically added here -->
    </div>    ","null","","","","","","","","","","","",""
"","null","html-keyboard-response","132","244377","0.0-11.0-0.14","8pPr2qwIeU","65c433adee48048ed6f06a9c","6617fad957f7c6a12ea16e26","6622d0190a7f0839f619a034","fixation cross","null","","","","","","","","","","","",""
"","1553","html-keyboard-response","133","245931","0.0-11.0-1.14","8pPr2qwIeU","65c433adee48048ed6f06a9c","6617fad957f7c6a12ea16e26","6622d0190a7f0839f619a034","image grid"," ","","","","","Phylogenetic_Distractor_Nonthreat_target","2500","ongrid","p","3","Phylogenetic","false","experimental"
"","null","html-keyboard-response","134","246093","0.0-11.0-2.14","8pPr2qwIeU","65c433adee48048ed6f06a9c","6617fad957f7c6a12ea16e26","6622d0190a7f0839f619a034","
    <div id=""grid-container"">
        <!-- Grid items will be dynamically added here -->
    </div>    ","null","","","","","","","","","","","",""
"","null","html-keyboard-response","135","246821","0.0-11.0-0.15","8pPr2qwIeU","65c433adee48048ed6f06a9c","6617fad957f7c6a12ea16e26","6622d0190a7f0839f619a034","fixation cross","null","","","","","","","","","","","",""
"","1082","html-keyboard-response","136","247904","0.0-11.0-1.15","8pPr2qwIeU","65c433adee48048ed6f06a9c","6617fad957f7c6a12ea16e26","6622d0190a7f0839f619a034","image grid","p","","","","","Phylogenetic_Distractor_Nonthreat_target","2500","ongrid","p","6","Phylogenetic","true","experimental"
"","null","html-keyboard-response","137","248071","0.0-11.0-2.15","8pPr2qwIeU","65c433adee48048ed6f06a9c","6617fad957f7c6a12ea16e26","6622d0190a7f0839f619a034","
    <div id=""grid-container"">
        <!-- Grid items will be dynamically added here -->
    </div>    ","null","","","","","","","","","","","",""
"","null","html-keyboard-response","138","248780","0.0-11.0-0.16","8pPr2qwIeU","65c433adee48048ed6f06a9c","6617fad957f7c6a12ea16e26","6622d0190a7f0839f619a034","fixation cross","null","","","","","","","","","","","",""
"","858","html-keyboard-response","139","249640","0.0-11.0-1.16","8pPr2qwIeU","65c433adee48048ed6f06a9c","6617fad957f7c6a12ea16e26","6622d0190a7f0839f619a034","image grid","q","","","","","Phylogenetic_Distractor_Threat_target","2500","ongrid","q","5","Phylogenetic","true","experimental"
"","null","html-keyboard-response","140","249803","0.0-11.0-2.16","8pPr2qwIeU","65c433adee48048ed6f06a9c","6617fad957f7c6a12ea16e26","6622d0190a7f0839f619a034","
    <div id=""grid-container"">
        <!-- Grid items will be dynamically added here -->
    </div>    ","null","","","","","","","","","","","",""
"","null","html-keyboard-response","141","250527","0.0-11.0-0.17","8pPr2qwIeU","65c433adee48048ed6f06a9c","6617fad957f7c6a12ea16e26","6622d0190a7f0839f619a034","fixation cross","null","","","","","","","","","","","",""
"","792","html-keyboard-response","142","251321","0.0-11.0-1.17","8pPr2qwIeU","65c433adee48048ed6f06a9c","6617fad957f7c6a12ea16e26","6622d0190a7f0839f619a034","image grid","q","","","","","Phylogenetic_Distractor_Threat_target","2500","ongrid","q","2","Phylogenetic","true","experimental"
"","null","html-keyboard-response","143","251486","0.0-11.0-2.17","8pPr2qwIeU","65c433adee48048ed6f06a9c","6617fad957f7c6a12ea16e26","6622d0190a7f0839f619a034","
    <div id=""grid-container"">
        <!-- Grid items will be dynamically added here -->
    </div>    ","null","","","","","","","","","","","",""
"","null","html-keyboard-response","144","252202","0.0-11.0-0.18","8pPr2qwIeU","65c433adee48048ed6f06a9c","6617fad957f7c6a12ea16e26","6622d0190a7f0839f619a034","fixation cross","null","","","","","","","","","","","",""
"","600","html-keyboard-response","145","252803","0.0-11.0-1.18","8pPr2qwIeU","65c433adee48048ed6f06a9c","6617fad957f7c6a12ea16e26","6622d0190a7f0839f619a034","image grid","q","","","","","Phylogenetic_Distractor_Threat_target","2500","ongrid","q","2","Phylogenetic","true","experimental"
"","null","html-keyboard-response","146","252960","0.0-11.0-2.18","8pPr2qwIeU","65c433adee48048ed6f06a9c","6617fad957f7c6a12ea16e26","6622d0190a7f0839f619a034","
    <div id=""grid-container"">
        <!-- Grid items will be dynamically added here -->
    </div>    ","null","","","","","","","","","","","",""
"","null","html-keyboard-response","147","253671","0.0-11.0-0.19","8pPr2qwIeU","65c433adee48048ed6f06a9c","6617fad957f7c6a12ea16e26","6622d0190a7f0839f619a034","fixation cross","null","","","","","","","","","","","",""
"","1054","html-keyboard-response","148","254716","0.0-11.0-1.19","8pPr2qwIeU","65c433adee48048ed6f06a9c","6617fad957f7c6a12ea16e26","6622d0190a7f0839f619a034","image grid","q","","","","","Phylogenetic_Distractor_Threat_target","2500","ongrid","q","6","Phylogenetic","true","experimental"
"","null","html-keyboard-response","149","254877","0.0-11.0-2.19","8pPr2qwIeU","65c433adee48048ed6f06a9c","6617fad957f7c6a12ea16e26","6622d0190a7f0839f619a034","
    <div id=""grid-container"">
        <!-- Grid items will be dynamically added here -->
    </div>    ","null","","","","","","","","","","","",""
"","null","html-keyboard-response","150","255602","0.0-11.0-0.20","8pPr2qwIeU","65c433adee48048ed6f06a9c","6617fad957f7c6a12ea16e26","6622d0190a7f0839f619a034","fixation cross","null","","","","","","","","","","","",""
"","1751","html-keyboard-response","151","257354","0.0-11.0-1.20","8pPr2qwIeU","65c433adee48048ed6f06a9c","6617fad957f7c6a12ea16e26","6622d0190a7f0839f619a034","image grid"," ","","","","","Phylogenetic_Distractor_notarget","2500","ongrid"," ","3","Phylogenetic","true","experimental"
"","null","html-keyboard-response","152","257516","0.0-11.0-2.20","8pPr2qwIeU","65c433adee48048ed6f06a9c","6617fad957f7c6a12ea16e26","6622d0190a7f0839f619a034","
    <div id=""grid-container"">
        <!-- Grid items will be dynamically added here -->
    </div>    ","null","","","","","","","","","","","",""
"","null","html-keyboard-response","153","258234","0.0-11.0-0.21","8pPr2qwIeU","65c433adee48048ed6f06a9c","6617fad957f7c6a12ea16e26","6622d0190a7f0839f619a034","fixation cross","null","","","","","","","","","","","",""
"","1613","html-keyboard-response","154","259848","0.0-11.0-1.21","8pPr2qwIeU","65c433adee48048ed6f06a9c","6617fad957f7c6a12ea16e26","6622d0190a7f0839f619a034","image grid","p","","","","","Phylogenetic_Distractor_Nonthreat_target","2500","ongrid","p","9","Phylogenetic","true","experimental"
"","null","html-keyboard-response","155","260014","0.0-11.0-2.21","8pPr2qwIeU","65c433adee48048ed6f06a9c","6617fad957f7c6a12ea16e26","6622d0190a7f0839f619a034","
    <div id=""grid-container"">
        <!-- Grid items will be dynamically added here -->
    </div>    ","null","","","","","","","","","","","",""
"","null","html-keyboard-response","156","260738","0.0-11.0-0.22","8pPr2qwIeU","65c433adee48048ed6f06a9c","6617fad957f7c6a12ea16e26","6622d0190a7f0839f619a034","fixation cross","null","","","","","","","","","","","",""
"","1133","html-keyboard-response","157","261872","0.0-11.0-1.22","8pPr2qwIeU","65c433adee48048ed6f06a9c","6617fad957f7c6a12ea16e26","6622d0190a7f0839f619a034","image grid","p","","","","","Phylogenetic_Distractor_Nonthreat_target","2500","ongrid","p","7","Phylogenetic","true","experimental"
"","null","html-keyboard-response","158","262032","0.0-11.0-2.22","8pPr2qwIeU","65c433adee48048ed6f06a9c","6617fad957f7c6a12ea16e26","6622d0190a7f0839f619a034","
    <div id=""grid-container"">
        <!-- Grid items will be dynamically added here -->
    </div>    ","null","","","","","","","","","","","",""
"","null","html-keyboard-response","159","262742","0.0-11.0-0.23","8pPr2qwIeU","65c433adee48048ed6f06a9c","6617fad957f7c6a12ea16e26","6622d0190a7f0839f619a034","fixation cross","null","","","","","","","","","","","",""
"","1190","html-keyboard-response","160","263933","0.0-11.0-1.23","8pPr2qwIeU","65c433adee48048ed6f06a9c","6617fad957f7c6a12ea16e26","6622d0190a7f0839f619a034","image grid","q","","","","","Phylogenetic_Distractor_Threat_target","2500","ongrid","q","1","Phylogenetic","true","experimental"
"","null","html-keyboard-response","161","264092","0.0-11.0-2.23","8pPr2qwIeU","65c433adee48048ed6f06a9c","6617fad957f7c6a12ea16e26","6622d0190a7f0839f619a034","
    <div id=""grid-container"">
        <!-- Grid items will be dynamically added here -->
    </div>    ","null","","","","","","","","","","","",""
"","null","html-keyboard-response","162","264824","0.0-11.0-0.24","8pPr2qwIeU","65c433adee48048ed6f06a9c","6617fad957f7c6a12ea16e26","6622d0190a7f0839f619a034","fixation cross","null","","","","","","","","","","","",""
"","1286","html-keyboard-response","163","266111","0.0-11.0-1.24","8pPr2qwIeU","65c433adee48048ed6f06a9c","6617fad957f7c6a12ea16e26","6622d0190a7f0839f619a034","image grid","q","","","","","Phylogenetic_Distractor_Threat_target","2500","ongrid","q","9","Phylogenetic","true","experimental"
"","null","html-keyboard-response","164","266273","0.0-11.0-2.24","8pPr2qwIeU","65c433adee48048ed6f06a9c","6617fad957f7c6a12ea16e26","6622d0190a7f0839f619a034","
    <div id=""grid-container"">
        <!-- Grid items will be dynamically added here -->
    </div>    ","null","","","","","","","","","","","",""
"","null","html-keyboard-response","165","266993","0.0-11.0-0.25","8pPr2qwIeU","65c433adee48048ed6f06a9c","6617fad957f7c6a12ea16e26","6622d0190a7f0839f619a034","fixation cross","null","","","","","","","","","","","",""
"","1473","html-keyboard-response","166","268467","0.0-11.0-1.25","8pPr2qwIeU","65c433adee48048ed6f06a9c","6617fad957f7c6a12ea16e26","6622d0190a7f0839f619a034","image grid","p","","","","","Phylogenetic_Distractor_Nonthreat_target","2500","ongrid","p","8","Phylogenetic","true","experimental"
"","null","html-keyboard-response","167","268626","0.0-11.0-2.25","8pPr2qwIeU","65c433adee48048ed6f06a9c","6617fad957f7c6a12ea16e26","6622d0190a7f0839f619a034","
    <div id=""grid-container"">
        <!-- Grid items will be dynamically added here -->
    </div>    ","null","","","","","","","","","","","",""
"","null","html-keyboard-response","168","269343","0.0-11.0-0.26","8pPr2qwIeU","65c433adee48048ed6f06a9c","6617fad957f7c6a12ea16e26","6622d0190a7f0839f619a034","fixation cross","null","","","","","","","","","","","",""
"","1189","html-keyboard-response","169","270534","0.0-11.0-1.26","8pPr2qwIeU","65c433adee48048ed6f06a9c","6617fad957f7c6a12ea16e26","6622d0190a7f0839f619a034","image grid","q","","","","","Phylogenetic_Distractor_Threat_target","2500","ongrid","q","7","Phylogenetic","true","experimental"
"","null","html-keyboard-response","170","270692","0.0-11.0-2.26","8pPr2qwIeU","65c433adee48048ed6f06a9c","6617fad957f7c6a12ea16e26","6622d0190a7f0839f619a034","
    <div id=""grid-container"">
        <!-- Grid items will be dynamically added here -->
    </div>    ","null","","","","","","","","","","","",""
"","null","html-keyboard-response","171","271417","0.0-11.0-0.27","8pPr2qwIeU","65c433adee48048ed6f06a9c","6617fad957f7c6a12ea16e26","6622d0190a7f0839f619a034","fixation cross","null","","","","","","","","","","","",""
"","1790","html-keyboard-response","172","273208","0.0-11.0-1.27","8pPr2qwIeU","65c433adee48048ed6f06a9c","6617fad957f7c6a12ea16e26","6622d0190a7f0839f619a034","image grid","p","","","","","Phylogenetic_Distractor_Nonthreat_target","2500","ongrid","p","9","Phylogenetic","true","experimental"
"","null","html-keyboard-response","173","273367","0.0-11.0-2.27","8pPr2qwIeU","65c433adee48048ed6f06a9c","6617fad957f7c6a12ea16e26","6622d0190a7f0839f619a034","
    <div id=""grid-container"">
        <!-- Grid items will be dynamically added here -->
    </div>    ","null","","","","","","","","","","","",""
"","null","html-keyboard-response","174","274075","0.0-11.0-0.28","8pPr2qwIeU","65c433adee48048ed6f06a9c","6617fad957f7c6a12ea16e26","6622d0190a7f0839f619a034","fixation cross","null","","","","","","","","","","","",""
"","1638","html-keyboard-response","175","275714","0.0-11.0-1.28","8pPr2qwIeU","65c433adee48048ed6f06a9c","6617fad957f7c6a12ea16e26","6622d0190a7f0839f619a034","image grid","p","","","","","Phylogenetic_Distractor_Nonthreat_target","2500","ongrid","p","4","Phylogenetic","true","experimental"
"","null","html-keyboard-response","176","275872","0.0-11.0-2.28","8pPr2qwIeU","65c433adee48048ed6f06a9c","6617fad957f7c6a12ea16e26","6622d0190a7f0839f619a034","
    <div id=""grid-container"">
        <!-- Grid items will be dynamically added here -->
    </div>    ","null","","","","","","","","","","","",""
"","null","html-keyboard-response","177","276591","0.0-11.0-0.29","8pPr2qwIeU","65c433adee48048ed6f06a9c","6617fad957f7c6a12ea16e26","6622d0190a7f0839f619a034","fixation cross","null","","","","","","","","","","","",""
"","913","html-keyboard-response","178","277505","0.0-11.0-1.29","8pPr2qwIeU","65c433adee48048ed6f06a9c","6617fad957f7c6a12ea16e26","6622d0190a7f0839f619a034","image grid","p","","","","","Phylogenetic_Distractor_Nonthreat_target","2500","ongrid","p","4","Phylogenetic","true","experimental"
"","null","html-keyboard-response","179","277664","0.0-11.0-2.29","8pPr2qwIeU","65c433adee48048ed6f06a9c","6617fad957f7c6a12ea16e26","6622d0190a7f0839f619a034","
    <div id=""grid-container"">
        <!-- Grid items will be dynamically added here -->
    </div>    ","null","","","","","","","","","","","",""
"","null","html-keyboard-response","180","278374","0.0-11.0-0.30","8pPr2qwIeU","65c433adee48048ed6f06a9c","6617fad957f7c6a12ea16e26","6622d0190a7f0839f619a034","fixation cross","null","","","","","","","","","","","",""
"","891","html-keyboard-response","181","279266","0.0-11.0-1.30","8pPr2qwIeU","65c433adee48048ed6f06a9c","6617fad957f7c6a12ea16e26","6622d0190a7f0839f619a034","image grid","q","","","","","Phylogenetic_Distractor_Threat_target","2500","ongrid","q","4","Phylogenetic","true","experimental"
"","null","html-keyboard-response","182","279420","0.0-11.0-2.30","8pPr2qwIeU","65c433adee48048ed6f06a9c","6617fad957f7c6a12ea16e26","6622d0190a7f0839f619a034","
    <div id=""grid-container"">
        <!-- Grid items will be dynamically added here -->
    </div>    ","null","","","","","","","","","","","",""
"","null","html-keyboard-response","183","280132","0.0-11.0-0.31","8pPr2qwIeU","65c433adee48048ed6f06a9c","6617fad957f7c6a12ea16e26","6622d0190a7f0839f619a034","fixation cross","null","","","","","","","","","","","",""
"","1047","html-keyboard-response","184","281180","0.0-11.0-1.31","8pPr2qwIeU","65c433adee48048ed6f06a9c","6617fad957f7c6a12ea16e26","6622d0190a7f0839f619a034","image grid","p","","","","","Phylogenetic_Distractor_Nonthreat_target","2500","ongrid","p","2","Phylogenetic","true","experimental"
"","null","html-keyboard-response","185","281348","0.0-11.0-2.31","8pPr2qwIeU","65c433adee48048ed6f06a9c","6617fad957f7c6a12ea16e26","6622d0190a7f0839f619a034","
    <div id=""grid-container"">
        <!-- Grid items will be dynamically added here -->
    </div>    ","null","","","","","","","","","","","",""
"","null","html-keyboard-response","186","282064","0.0-11.0-0.32","8pPr2qwIeU","65c433adee48048ed6f06a9c","6617fad957f7c6a12ea16e26","6622d0190a7f0839f619a034","fixation cross","null","","","","","","","","","","","",""
"","1681","html-keyboard-response","187","283746","0.0-11.0-1.32","8pPr2qwIeU","65c433adee48048ed6f06a9c","6617fad957f7c6a12ea16e26","6622d0190a7f0839f619a034","image grid","p","","","","","Phylogenetic_Distractor_Nonthreat_target","2500","ongrid","p","9","Phylogenetic","true","experimental"
"","null","html-keyboard-response","188","283907","0.0-11.0-2.32","8pPr2qwIeU","65c433adee48048ed6f06a9c","6617fad957f7c6a12ea16e26","6622d0190a7f0839f619a034","
    <div id=""grid-container"">
        <!-- Grid items will be dynamically added here -->
    </div>    ","null","","","","","","","","","","","",""
"","null","html-keyboard-response","189","284614","0.0-11.0-0.33","8pPr2qwIeU","65c433adee48048ed6f06a9c","6617fad957f7c6a12ea16e26","6622d0190a7f0839f619a034","fixation cross","null","","","","","","","","","","","",""
"","null","html-keyboard-response","190","287125","0.0-11.0-1.33","8pPr2qwIeU","65c433adee48048ed6f06a9c","6617fad957f7c6a12ea16e26","6622d0190a7f0839f619a034","
        <div id=""grid-container"">
        <!-- Grid items will be dynamically added here -->
    </div>    ","null","","","","","","","","","","","",""
"","3000","html-keyboard-response","191","287626","0.0-11.0-2.33","8pPr2qwIeU","65c433adee48048ed6f06a9c","6617fad957f7c6a12ea16e26","6622d0190a7f0839f619a034","mask grid"," ","","","","","Phylogenetic_Distractor_notarget","2500","onmask"," ","4","Phylogenetic","true","experimental"
"","null","html-keyboard-response","192","288352","0.0-11.0-0.34","8pPr2qwIeU","65c433adee48048ed6f06a9c","6617fad957f7c6a12ea16e26","6622d0190a7f0839f619a034","fixation cross","null","","","","","","","","","","","",""
"","1334","html-keyboard-response","193","289687","0.0-11.0-1.34","8pPr2qwIeU","65c433adee48048ed6f06a9c","6617fad957f7c6a12ea16e26","6622d0190a7f0839f619a034","image grid","p","","","","","Phylogenetic_Distractor_Nonthreat_target","2500","ongrid","p","6","Phylogenetic","true","experimental"
"","null","html-keyboard-response","194","289842","0.0-11.0-2.34","8pPr2qwIeU","65c433adee48048ed6f06a9c","6617fad957f7c6a12ea16e26","6622d0190a7f0839f619a034","
    <div id=""grid-container"">
        <!-- Grid items will be dynamically added here -->
    </div>    ","null","","","","","","","","","","","",""
"","null","html-keyboard-response","195","290551","0.0-11.0-0.35","8pPr2qwIeU","65c433adee48048ed6f06a9c","6617fad957f7c6a12ea16e26","6622d0190a7f0839f619a034","fixation cross","null","","","","","","","","","","","",""
"","803","html-keyboard-response","196","291355","0.0-11.0-1.35","8pPr2qwIeU","65c433adee48048ed6f06a9c","6617fad957f7c6a12ea16e26","6622d0190a7f0839f619a034","image grid","p","","","","","Phylogenetic_Distractor_Nonthreat_target","2500","ongrid","p","2","Phylogenetic","true","experimental"
"","null","html-keyboard-response","197","291510","0.0-11.0-2.35","8pPr2qwIeU","65c433adee48048ed6f06a9c","6617fad957f7c6a12ea16e26","6622d0190a7f0839f619a034","
    <div id=""grid-container"">
        <!-- Grid items will be dynamically added here -->
    </div>    ","null","","","","","","","","","","","",""
"","null","html-keyboard-response","198","292230","0.0-11.0-0.36","8pPr2qwIeU","65c433adee48048ed6f06a9c","6617fad957f7c6a12ea16e26","6622d0190a7f0839f619a034","fixation cross","null","","","","","","","","","","","",""
"","1390","html-keyboard-response","199","293622","0.0-11.0-1.36","8pPr2qwIeU","65c433adee48048ed6f06a9c","6617fad957f7c6a12ea16e26","6622d0190a7f0839f619a034","image grid","q","","","","","Phylogenetic_Distractor_Threat_target","2500","ongrid","q","9","Phylogenetic","true","experimental"
"","null","html-keyboard-response","200","293784","0.0-11.0-2.36","8pPr2qwIeU","65c433adee48048ed6f06a9c","6617fad957f7c6a12ea16e26","6622d0190a7f0839f619a034","
    <div id=""grid-container"">
        <!-- Grid items will be dynamically added here -->
    </div>    ","null","","","","","","","","","","","",""
"","null","html-keyboard-response","201","294514","0.0-11.0-0.37","8pPr2qwIeU","65c433adee48048ed6f06a9c","6617fad957f7c6a12ea16e26","6622d0190a7f0839f619a034","fixation cross","null","","","","","","","","","","","",""
"","891","html-keyboard-response","202","295407","0.0-11.0-1.37","8pPr2qwIeU","65c433adee48048ed6f06a9c","6617fad957f7c6a12ea16e26","6622d0190a7f0839f619a034","image grid","q","","","","","Phylogenetic_Distractor_Threat_target","2500","ongrid","q","1","Phylogenetic","true","experimental"
"","null","html-keyboard-response","203","295576","0.0-11.0-2.37","8pPr2qwIeU","65c433adee48048ed6f06a9c","6617fad957f7c6a12ea16e26","6622d0190a7f0839f619a034","
    <div id=""grid-container"">
        <!-- Grid items will be dynamically added here -->
    </div>    ","null","","","","","","","","","","","",""
"","null","html-keyboard-response","204","296291","0.0-11.0-0.38","8pPr2qwIeU","65c433adee48048ed6f06a9c","6617fad957f7c6a12ea16e26","6622d0190a7f0839f619a034","fixation cross","null","","","","","","","","","","","",""
"","1589","html-keyboard-response","205","297881","0.0-11.0-1.38","8pPr2qwIeU","65c433adee48048ed6f06a9c","6617fad957f7c6a12ea16e26","6622d0190a7f0839f619a034","image grid"," ","","","","","Phylogenetic_Distractor_notarget","2500","ongrid"," ","5","Phylogenetic","true","experimental"
"","null","html-keyboard-response","206","298038","0.0-11.0-2.38","8pPr2qwIeU","65c433adee48048ed6f06a9c","6617fad957f7c6a12ea16e26","6622d0190a7f0839f619a034","
    <div id=""grid-container"">
        <!-- Grid items will be dynamically added here -->
    </div>    ","null","","","","","","","","","","","",""
"","null","html-keyboard-response","207","298757","0.0-11.0-0.39","8pPr2qwIeU","65c433adee48048ed6f06a9c","6617fad957f7c6a12ea16e26","6622d0190a7f0839f619a034","fixation cross","null","","","","","","","","","","","",""
"","1348","html-keyboard-response","208","300106","0.0-11.0-1.39","8pPr2qwIeU","65c433adee48048ed6f06a9c","6617fad957f7c6a12ea16e26","6622d0190a7f0839f619a034","image grid","q","","","","","Phylogenetic_Distractor_Threat_target","2500","ongrid","q","7","Phylogenetic","true","experimental"
"","null","html-keyboard-response","209","300265","0.0-11.0-2.39","8pPr2qwIeU","65c433adee48048ed6f06a9c","6617fad957f7c6a12ea16e26","6622d0190a7f0839f619a034","
    <div id=""grid-container"">
        <!-- Grid items will be dynamically added here -->
    </div>    ","null","","","","","","","","","","","",""
"","15699","html-keyboard-response","210","316226","0.0-12.0","8pPr2qwIeU","65c433adee48048ed6f06a9c","6617fad957f7c6a12ea16e26","6622d0190a7f0839f619a034","break screen"," ","","","","","","","","","","","",""
"","null","html-keyboard-response","211","318810","0.0-13.0-0.0","8pPr2qwIeU","65c433adee48048ed6f06a9c","6617fad957f7c6a12ea16e26","6622d0190a7f0839f619a034","fixation cross","null","","","","","","","","","","","",""
"","null","html-keyboard-response","212","319621","0.0-13.0-1.0","8pPr2qwIeU","65c433adee48048ed6f06a9c","6617fad957f7c6a12ea16e26","6622d0190a7f0839f619a034","
        <div id=""grid-container"">
        <!-- Grid items will be dynamically added here -->
    </div>    ","null","","","","","","","","","","","",""
"","948","html-keyboard-response","213","319770","0.0-13.0-2.0","8pPr2qwIeU","65c433adee48048ed6f06a9c","6617fad957f7c6a12ea16e26","6622d0190a7f0839f619a034","mask grid","q","","","","","Phylogenetic_Distractor_Threat_target","800","onmask","q","4","Phylogenetic","true","experimental"
"","null","html-keyboard-response","214","320484","0.0-13.0-0.1","8pPr2qwIeU","65c433adee48048ed6f06a9c","6617fad957f7c6a12ea16e26","6622d0190a7f0839f619a034","fixation cross","null","","","","","","","","","","","",""
"","630","html-keyboard-response","215","321115","0.0-13.0-1.1","8pPr2qwIeU","65c433adee48048ed6f06a9c","6617fad957f7c6a12ea16e26","6622d0190a7f0839f619a034","image grid","q","","","","","Phylogenetic_Distractor_Threat_target","800","ongrid","q","5","Phylogenetic","true","experimental"
"","null","html-keyboard-response","216","321274","0.0-13.0-2.1","8pPr2qwIeU","65c433adee48048ed6f06a9c","6617fad957f7c6a12ea16e26","6622d0190a7f0839f619a034","
    <div id=""grid-container"">
        <!-- Grid items will be dynamically added here -->
    </div>    ","null","","","","","","","","","","","",""
"","null","html-keyboard-response","217","321992","0.0-13.0-0.2","8pPr2qwIeU","65c433adee48048ed6f06a9c","6617fad957f7c6a12ea16e26","6622d0190a7f0839f619a034","fixation cross","null","","","","","","","","","","","",""
"","631","html-keyboard-response","218","322624","0.0-13.0-1.2","8pPr2qwIeU","65c433adee48048ed6f06a9c","6617fad957f7c6a12ea16e26","6622d0190a7f0839f619a034","image grid","p","","","","","Phylogenetic_Distractor_Nonthreat_target","800","ongrid","p","5","Phylogenetic","true","experimental"
"","null","html-keyboard-response","219","322777","0.0-13.0-2.2","8pPr2qwIeU","65c433adee48048ed6f06a9c","6617fad957f7c6a12ea16e26","6622d0190a7f0839f619a034","
    <div id=""grid-container"">
        <!-- Grid items will be dynamically added here -->
    </div>    ","null","","","","","","","","","","","",""
"","null","html-keyboard-response","220","323508","0.0-13.0-0.3","8pPr2qwIeU","65c433adee48048ed6f06a9c","6617fad957f7c6a12ea16e26","6622d0190a7f0839f619a034","fixation cross","null","","","","","","","","","","","",""
"","651","html-keyboard-response","221","324160","0.0-13.0-1.3","8pPr2qwIeU","65c433adee48048ed6f06a9c","6617fad957f7c6a12ea16e26","6622d0190a7f0839f619a034","image grid","q","","","","","Phylogenetic_Distractor_Threat_target","800","ongrid","q","2","Phylogenetic","true","experimental"
"","null","html-keyboard-response","222","324314","0.0-13.0-2.3","8pPr2qwIeU","65c433adee48048ed6f06a9c","6617fad957f7c6a12ea16e26","6622d0190a7f0839f619a034","
    <div id=""grid-container"">
        <!-- Grid items will be dynamically added here -->
    </div>    ","null","","","","","","","","","","","",""
"","null","html-keyboard-response","223","325032","0.0-13.0-0.4","8pPr2qwIeU","65c433adee48048ed6f06a9c","6617fad957f7c6a12ea16e26","6622d0190a7f0839f619a034","fixation cross","null","","","","","","","","","","","",""
"","641","html-keyboard-response","224","325676","0.0-13.0-1.4","8pPr2qwIeU","65c433adee48048ed6f06a9c","6617fad957f7c6a12ea16e26","6622d0190a7f0839f619a034","image grid","q","","","","","Phylogenetic_Distractor_Threat_target","800","ongrid","q","4","Phylogenetic","true","experimental"
"","null","html-keyboard-response","225","325834","0.0-13.0-2.4","8pPr2qwIeU","65c433adee48048ed6f06a9c","6617fad957f7c6a12ea16e26","6622d0190a7f0839f619a034","
    <div id=""grid-container"">
        <!-- Grid items will be dynamically added here -->
    </div>    ","null","","","","","","","","","","","",""
"","null","html-keyboard-response","226","326543","0.0-13.0-0.5","8pPr2qwIeU","65c433adee48048ed6f06a9c","6617fad957f7c6a12ea16e26","6622d0190a7f0839f619a034","fixation cross","null","","","","","","","","","","","",""
"","null","html-keyboard-response","227","327346","0.0-13.0-1.5","8pPr2qwIeU","65c433adee48048ed6f06a9c","6617fad957f7c6a12ea16e26","6622d0190a7f0839f619a034","
        <div id=""grid-container"">
        <!-- Grid items will be dynamically added here -->
    </div>    ","null","","","","","","","","","","","",""
"","830","html-keyboard-response","228","327376","0.0-13.0-2.5","8pPr2qwIeU","65c433adee48048ed6f06a9c","6617fad957f7c6a12ea16e26","6622d0190a7f0839f619a034","mask grid","p","","","","","Phylogenetic_Distractor_Nonthreat_target","800","onmask","p","9","Phylogenetic","true","experimental"
"","null","html-keyboard-response","229","328088","0.0-13.0-0.6","8pPr2qwIeU","65c433adee48048ed6f06a9c","6617fad957f7c6a12ea16e26","6622d0190a7f0839f619a034","fixation cross","null","","","","","","","","","","","",""
"","null","html-keyboard-response","230","328892","0.0-13.0-1.6","8pPr2qwIeU","65c433adee48048ed6f06a9c","6617fad957f7c6a12ea16e26","6622d0190a7f0839f619a034","
        <div id=""grid-container"">
        <!-- Grid items will be dynamically added here -->
    </div>    ","null","","","","","","","","","","","",""
"","1274","html-keyboard-response","231","329367","0.0-13.0-2.6","8pPr2qwIeU","65c433adee48048ed6f06a9c","6617fad957f7c6a12ea16e26","6622d0190a7f0839f619a034","mask grid","p","","","","","Phylogenetic_Distractor_Nonthreat_target","800","onmask","p","6","Phylogenetic","true","experimental"
"","null","html-keyboard-response","232","330079","0.0-13.0-0.7","8pPr2qwIeU","65c433adee48048ed6f06a9c","6617fad957f7c6a12ea16e26","6622d0190a7f0839f619a034","fixation cross","null","","","","","","","","","","","",""
"","759","html-keyboard-response","233","330840","0.0-13.0-1.7","8pPr2qwIeU","65c433adee48048ed6f06a9c","6617fad957f7c6a12ea16e26","6622d0190a7f0839f619a034","image grid","p","","","","","Phylogenetic_Distractor_Nonthreat_target","800","ongrid","p","1","Phylogenetic","true","experimental"
"","null","html-keyboard-response","234","331007","0.0-13.0-2.7","8pPr2qwIeU","65c433adee48048ed6f06a9c","6617fad957f7c6a12ea16e26","6622d0190a7f0839f619a034","
    <div id=""grid-container"">
        <!-- Grid items will be dynamically added here -->
    </div>    ","null","","","","","","","","","","","",""
"","null","html-keyboard-response","235","331724","0.0-13.0-0.8","8pPr2qwIeU","65c433adee48048ed6f06a9c","6617fad957f7c6a12ea16e26","6622d0190a7f0839f619a034","fixation cross","null","","","","","","","","","","","",""
"","736","html-keyboard-response","236","332461","0.0-13.0-1.8","8pPr2qwIeU","65c433adee48048ed6f06a9c","6617fad957f7c6a12ea16e26","6622d0190a7f0839f619a034","image grid","q","","","","","Phylogenetic_Distractor_Threat_target","800","ongrid","q","3","Phylogenetic","true","experimental"
"","null","html-keyboard-response","237","332616","0.0-13.0-2.8","8pPr2qwIeU","65c433adee48048ed6f06a9c","6617fad957f7c6a12ea16e26","6622d0190a7f0839f619a034","
    <div id=""grid-container"">
        <!-- Grid items will be dynamically added here -->
    </div>    ","null","","","","","","","","","","","",""
"","null","html-keyboard-response","238","333334","0.0-13.0-0.9","8pPr2qwIeU","65c433adee48048ed6f06a9c","6617fad957f7c6a12ea16e26","6622d0190a7f0839f619a034","fixation cross","null","","","","","","","","","","","",""
"","796","html-keyboard-response","239","334131","0.0-13.0-1.9","8pPr2qwIeU","65c433adee48048ed6f06a9c","6617fad957f7c6a12ea16e26","6622d0190a7f0839f619a034","image grid","p","","","","","Phylogenetic_Distractor_Nonthreat_target","800","ongrid","p","5","Phylogenetic","true","experimental"
"","null","html-keyboard-response","240","334285","0.0-13.0-2.9","8pPr2qwIeU","65c433adee48048ed6f06a9c","6617fad957f7c6a12ea16e26","6622d0190a7f0839f619a034","
    <div id=""grid-container"">
        <!-- Grid items will be dynamically added here -->
    </div>    ","null","","","","","","","","","","","",""
"","null","html-keyboard-response","241","335005","0.0-13.0-0.10","8pPr2qwIeU","65c433adee48048ed6f06a9c","6617fad957f7c6a12ea16e26","6622d0190a7f0839f619a034","fixation cross","null","","","","","","","","","","","",""
"","null","html-keyboard-response","242","335808","0.0-13.0-1.10","8pPr2qwIeU","65c433adee48048ed6f06a9c","6617fad957f7c6a12ea16e26","6622d0190a7f0839f619a034","
        <div id=""grid-container"">
        <!-- Grid items will be dynamically added here -->
    </div>    ","null","","","","","","","","","","","",""
"","1326","html-keyboard-response","243","336335","0.0-13.0-2.10","8pPr2qwIeU","65c433adee48048ed6f06a9c","6617fad957f7c6a12ea16e26","6622d0190a7f0839f619a034","mask grid","p","","","","","Phylogenetic_Distractor_Nonthreat_target","800","onmask","p","9","Phylogenetic","true","experimental"
"","null","html-keyboard-response","244","337046","0.0-13.0-0.11","8pPr2qwIeU","65c433adee48048ed6f06a9c","6617fad957f7c6a12ea16e26","6622d0190a7f0839f619a034","fixation cross","null","","","","","","","","","","","",""
"","755","html-keyboard-response","245","337802","0.0-13.0-1.11","8pPr2qwIeU","65c433adee48048ed6f06a9c","6617fad957f7c6a12ea16e26","6622d0190a7f0839f619a034","image grid","q","","","","","Phylogenetic_Distractor_Threat_target","800","ongrid","q","4","Phylogenetic","true","experimental"
"","null","html-keyboard-response","246","337956","0.0-13.0-2.11","8pPr2qwIeU","65c433adee48048ed6f06a9c","6617fad957f7c6a12ea16e26","6622d0190a7f0839f619a034","
    <div id=""grid-container"">
        <!-- Grid items will be dynamically added here -->
    </div>    ","null","","","","","","","","","","","",""
"","null","html-keyboard-response","247","338675","0.0-13.0-0.12","8pPr2qwIeU","65c433adee48048ed6f06a9c","6617fad957f7c6a12ea16e26","6622d0190a7f0839f619a034","fixation cross","null","","","","","","","","","","","",""
"","765","html-keyboard-response","248","339441","0.0-13.0-1.12","8pPr2qwIeU","65c433adee48048ed6f06a9c","6617fad957f7c6a12ea16e26","6622d0190a7f0839f619a034","image grid","q","","","","","Phylogenetic_Distractor_Threat_target","800","ongrid","q","6","Phylogenetic","true","experimental"
"","null","html-keyboard-response","249","339607","0.0-13.0-2.12","8pPr2qwIeU","65c433adee48048ed6f06a9c","6617fad957f7c6a12ea16e26","6622d0190a7f0839f619a034","
    <div id=""grid-container"">
        <!-- Grid items will be dynamically added here -->
    </div>    ","null","","","","","","","","","","","",""
"","null","html-keyboard-response","250","340330","0.0-13.0-0.13","8pPr2qwIeU","65c433adee48048ed6f06a9c","6617fad957f7c6a12ea16e26","6622d0190a7f0839f619a034","fixation cross","null","","","","","","","","","","","",""
"","null","html-keyboard-response","251","341143","0.0-13.0-1.13","8pPr2qwIeU","65c433adee48048ed6f06a9c","6617fad957f7c6a12ea16e26","6622d0190a7f0839f619a034","
        <div id=""grid-container"">
        <!-- Grid items will be dynamically added here -->
    </div>    ","null","","","","","","","","","","","",""
"","1450","html-keyboard-response","252","341794","0.0-13.0-2.13","8pPr2qwIeU","65c433adee48048ed6f06a9c","6617fad957f7c6a12ea16e26","6622d0190a7f0839f619a034","mask grid","p","","","","","Phylogenetic_Distractor_notarget","800","onmask"," ","6","Phylogenetic","false","experimental"
"","null","html-keyboard-response","253","342516","0.0-13.0-0.14","8pPr2qwIeU","65c433adee48048ed6f06a9c","6617fad957f7c6a12ea16e26","6622d0190a7f0839f619a034","fixation cross","null","","","","","","","","","","","",""
"","null","html-keyboard-response","254","343321","0.0-13.0-1.14","8pPr2qwIeU","65c433adee48048ed6f06a9c","6617fad957f7c6a12ea16e26","6622d0190a7f0839f619a034","
        <div id=""grid-container"">
        <!-- Grid items will be dynamically added here -->
    </div>    ","null","","","","","","","","","","","",""
"","1017","html-keyboard-response","255","343539","0.0-13.0-2.14","8pPr2qwIeU","65c433adee48048ed6f06a9c","6617fad957f7c6a12ea16e26","6622d0190a7f0839f619a034","mask grid","p","","","","","Phylogenetic_Distractor_Nonthreat_target","800","onmask","p","2","Phylogenetic","true","experimental"
"","null","html-keyboard-response","256","344265","0.0-13.0-0.15","8pPr2qwIeU","65c433adee48048ed6f06a9c","6617fad957f7c6a12ea16e26","6622d0190a7f0839f619a034","fixation cross","null","","","","","","","","","","","",""
"","664","html-keyboard-response","257","344930","0.0-13.0-1.15","8pPr2qwIeU","65c433adee48048ed6f06a9c","6617fad957f7c6a12ea16e26","6622d0190a7f0839f619a034","image grid","p","","","","","Phylogenetic_Distractor_Nonthreat_target","800","ongrid","p","4","Phylogenetic","true","experimental"
"","null","html-keyboard-response","258","345097","0.0-13.0-2.15","8pPr2qwIeU","65c433adee48048ed6f06a9c","6617fad957f7c6a12ea16e26","6622d0190a7f0839f619a034","
    <div id=""grid-container"">
        <!-- Grid items will be dynamically added here -->
    </div>    ","null","","","","","","","","","","","",""
"","null","html-keyboard-response","259","345811","0.0-13.0-0.16","8pPr2qwIeU","65c433adee48048ed6f06a9c","6617fad957f7c6a12ea16e26","6622d0190a7f0839f619a034","fixation cross","null","","","","","","","","","","","",""
"","null","html-keyboard-response","260","346621","0.0-13.0-1.16","8pPr2qwIeU","65c433adee48048ed6f06a9c","6617fad957f7c6a12ea16e26","6622d0190a7f0839f619a034","
        <div id=""grid-container"">
        <!-- Grid items will be dynamically added here -->
    </div>    ","null","","","","","","","","","","","",""
"","954","html-keyboard-response","261","346776","0.0-13.0-2.16","8pPr2qwIeU","65c433adee48048ed6f06a9c","6617fad957f7c6a12ea16e26","6622d0190a7f0839f619a034","mask grid","q","","","","","Phylogenetic_Distractor_Threat_target","800","onmask","q","5","Phylogenetic","true","experimental"
"","null","html-keyboard-response","262","347496","0.0-13.0-0.17","8pPr2qwIeU","65c433adee48048ed6f06a9c","6617fad957f7c6a12ea16e26","6622d0190a7f0839f619a034","fixation cross","null","","","","","","","","","","","",""
"","590","html-keyboard-response","263","348087","0.0-13.0-1.17","8pPr2qwIeU","65c433adee48048ed6f06a9c","6617fad957f7c6a12ea16e26","6622d0190a7f0839f619a034","image grid","q","","","","","Phylogenetic_Distractor_Threat_target","800","ongrid","q","4","Phylogenetic","true","experimental"
"","null","html-keyboard-response","264","348247","0.0-13.0-2.17","8pPr2qwIeU","65c433adee48048ed6f06a9c","6617fad957f7c6a12ea16e26","6622d0190a7f0839f619a034","
    <div id=""grid-container"">
        <!-- Grid items will be dynamically added here -->
    </div>    ","null","","","","","","","","","","","",""
"","null","html-keyboard-response","265","348958","0.0-13.0-0.18","8pPr2qwIeU","65c433adee48048ed6f06a9c","6617fad957f7c6a12ea16e26","6622d0190a7f0839f619a034","fixation cross","null","","","","","","","","","","","",""
"","677","html-keyboard-response","266","349636","0.0-13.0-1.18","8pPr2qwIeU","65c433adee48048ed6f06a9c","6617fad957f7c6a12ea16e26","6622d0190a7f0839f619a034","image grid","p","","","","","Phylogenetic_Distractor_Nonthreat_target","800","ongrid","p","5","Phylogenetic","true","experimental"
"","null","html-keyboard-response","267","349797","0.0-13.0-2.18","8pPr2qwIeU","65c433adee48048ed6f06a9c","6617fad957f7c6a12ea16e26","6622d0190a7f0839f619a034","
    <div id=""grid-container"">
        <!-- Grid items will be dynamically added here -->
    </div>    ","null","","","","","","","","","","","",""
"","null","html-keyboard-response","268","350514","0.0-13.0-0.19","8pPr2qwIeU","65c433adee48048ed6f06a9c","6617fad957f7c6a12ea16e26","6622d0190a7f0839f619a034","fixation cross","null","","","","","","","","","","","",""
"","765","html-keyboard-response","269","351280","0.0-13.0-1.19","8pPr2qwIeU","65c433adee48048ed6f06a9c","6617fad957f7c6a12ea16e26","6622d0190a7f0839f619a034","image grid","q","","","","","Phylogenetic_Distractor_Threat_target","800","ongrid","q","1","Phylogenetic","true","experimental"
"","null","html-keyboard-response","270","351446","0.0-13.0-2.19","8pPr2qwIeU","65c433adee48048ed6f06a9c","6617fad957f7c6a12ea16e26","6622d0190a7f0839f619a034","
    <div id=""grid-container"">
        <!-- Grid items will be dynamically added here -->
    </div>    ","null","","","","","","","","","","","",""
"","null","html-keyboard-response","271","352165","0.0-13.0-0.20","8pPr2qwIeU","65c433adee48048ed6f06a9c","6617fad957f7c6a12ea16e26","6622d0190a7f0839f619a034","fixation cross","null","","","","","","","","","","","",""
"","null","html-keyboard-response","272","352972","0.0-13.0-1.20","8pPr2qwIeU","65c433adee48048ed6f06a9c","6617fad957f7c6a12ea16e26","6622d0190a7f0839f619a034","
        <div id=""grid-container"">
        <!-- Grid items will be dynamically added here -->
    </div>    ","null","","","","","","","","","","","",""
"","1237","html-keyboard-response","273","353409","0.0-13.0-2.20","8pPr2qwIeU","65c433adee48048ed6f06a9c","6617fad957f7c6a12ea16e26","6622d0190a7f0839f619a034","mask grid","p","","","","","Phylogenetic_Distractor_Nonthreat_target","800","onmask","p","8","Phylogenetic","true","experimental"
"","null","html-keyboard-response","274","354126","0.0-13.0-0.21","8pPr2qwIeU","65c433adee48048ed6f06a9c","6617fad957f7c6a12ea16e26","6622d0190a7f0839f619a034","fixation cross","null","","","","","","","","","","","",""
"","null","html-keyboard-response","275","354938","0.0-13.0-1.21","8pPr2qwIeU","65c433adee48048ed6f06a9c","6617fad957f7c6a12ea16e26","6622d0190a7f0839f619a034","
        <div id=""grid-container"">
        <!-- Grid items will be dynamically added here -->
    </div>    ","null","","","","","","","","","","","",""
"","913","html-keyboard-response","276","355052","0.0-13.0-2.21","8pPr2qwIeU","65c433adee48048ed6f06a9c","6617fad957f7c6a12ea16e26","6622d0190a7f0839f619a034","mask grid","p","","","","","Phylogenetic_Distractor_Nonthreat_target","800","onmask","p","4","Phylogenetic","true","experimental"
"","null","html-keyboard-response","277","355772","0.0-13.0-0.22","8pPr2qwIeU","65c433adee48048ed6f06a9c","6617fad957f7c6a12ea16e26","6622d0190a7f0839f619a034","fixation cross","null","","","","","","","","","","","",""
"","null","html-keyboard-response","278","356585","0.0-13.0-1.22","8pPr2qwIeU","65c433adee48048ed6f06a9c","6617fad957f7c6a12ea16e26","6622d0190a7f0839f619a034","
        <div id=""grid-container"">
        <!-- Grid items will be dynamically added here -->
    </div>    ","null","","","","","","","","","","","",""
"","826","html-keyboard-response","279","356611","0.0-13.0-2.22","8pPr2qwIeU","65c433adee48048ed6f06a9c","6617fad957f7c6a12ea16e26","6622d0190a7f0839f619a034","mask grid","p","","","","","Phylogenetic_Distractor_Nonthreat_target","800","onmask","p","4","Phylogenetic","true","experimental"
"","null","html-keyboard-response","280","357326","0.0-13.0-0.23","8pPr2qwIeU","65c433adee48048ed6f06a9c","6617fad957f7c6a12ea16e26","6622d0190a7f0839f619a034","fixation cross","null","","","","","","","","","","","",""
"","799","html-keyboard-response","281","358126","0.0-13.0-1.23","8pPr2qwIeU","65c433adee48048ed6f06a9c","6617fad957f7c6a12ea16e26","6622d0190a7f0839f619a034","image grid","q","","","","","Phylogenetic_Distractor_Threat_target","800","ongrid","q","6","Phylogenetic","true","experimental"
"","null","html-keyboard-response","282","358281","0.0-13.0-2.23","8pPr2qwIeU","65c433adee48048ed6f06a9c","6617fad957f7c6a12ea16e26","6622d0190a7f0839f619a034","
    <div id=""grid-container"">
        <!-- Grid items will be dynamically added here -->
    </div>    ","null","","","","","","","","","","","",""
"","null","html-keyboard-response","283","358991","0.0-13.0-0.24","8pPr2qwIeU","65c433adee48048ed6f06a9c","6617fad957f7c6a12ea16e26","6622d0190a7f0839f619a034","fixation cross","null","","","","","","","","","","","",""
"","null","html-keyboard-response","284","359793","0.0-13.0-1.24","8pPr2qwIeU","65c433adee48048ed6f06a9c","6617fad957f7c6a12ea16e26","6622d0190a7f0839f619a034","
        <div id=""grid-container"">
        <!-- Grid items will be dynamically added here -->
    </div>    ","null","","","","","","","","","","","",""
"","1087","html-keyboard-response","285","360081","0.0-13.0-2.24","8pPr2qwIeU","65c433adee48048ed6f06a9c","6617fad957f7c6a12ea16e26","6622d0190a7f0839f619a034","mask grid","q","","","","","Phylogenetic_Distractor_Threat_target","800","onmask","q","9","Phylogenetic","true","experimental"
"","null","html-keyboard-response","286","360801","0.0-13.0-0.25","8pPr2qwIeU","65c433adee48048ed6f06a9c","6617fad957f7c6a12ea16e26","6622d0190a7f0839f619a034","fixation cross","null","","","","","","","","","","","",""
"","null","html-keyboard-response","287","361617","0.0-13.0-1.25","8pPr2qwIeU","65c433adee48048ed6f06a9c","6617fad957f7c6a12ea16e26","6622d0190a7f0839f619a034","
        <div id=""grid-container"">
        <!-- Grid items will be dynamically added here -->
    </div>    ","null","","","","","","","","","","","",""
"","1156","html-keyboard-response","288","361974","0.0-13.0-2.25","8pPr2qwIeU","65c433adee48048ed6f06a9c","6617fad957f7c6a12ea16e26","6622d0190a7f0839f619a034","mask grid"," ","","","","","Phylogenetic_Distractor_notarget","800","onmask"," ","1","Phylogenetic","true","experimental"
"","null","html-keyboard-response","289","362690","0.0-13.0-0.26","8pPr2qwIeU","65c433adee48048ed6f06a9c","6617fad957f7c6a12ea16e26","6622d0190a7f0839f619a034","fixation cross","null","","","","","","","","","","","",""
"","null","html-keyboard-response","290","363499","0.0-13.0-1.26","8pPr2qwIeU","65c433adee48048ed6f06a9c","6617fad957f7c6a12ea16e26","6622d0190a7f0839f619a034","
        <div id=""grid-container"">
        <!-- Grid items will be dynamically added here -->
    </div>    ","null","","","","","","","","","","","",""
"","820","html-keyboard-response","291","363520","0.0-13.0-2.26","8pPr2qwIeU","65c433adee48048ed6f06a9c","6617fad957f7c6a12ea16e26","6622d0190a7f0839f619a034","mask grid","p","","","","","Phylogenetic_Distractor_Nonthreat_target","800","onmask","p","1","Phylogenetic","true","experimental"
"","null","html-keyboard-response","292","364238","0.0-13.0-0.27","8pPr2qwIeU","65c433adee48048ed6f06a9c","6617fad957f7c6a12ea16e26","6622d0190a7f0839f619a034","fixation cross","null","","","","","","","","","","","",""
"","null","html-keyboard-response","293","365045","0.0-13.0-1.27","8pPr2qwIeU","65c433adee48048ed6f06a9c","6617fad957f7c6a12ea16e26","6622d0190a7f0839f619a034","
        <div id=""grid-container"">
        <!-- Grid items will be dynamically added here -->
    </div>    ","null","","","","","","","","","","","",""
"","917","html-keyboard-response","294","365164","0.0-13.0-2.27","8pPr2qwIeU","65c433adee48048ed6f06a9c","6617fad957f7c6a12ea16e26","6622d0190a7f0839f619a034","mask grid","q","","","","","Phylogenetic_Distractor_Threat_target","800","onmask","q","8","Phylogenetic","true","experimental"
"","null","html-keyboard-response","295","365879","0.0-13.0-0.28","8pPr2qwIeU","65c433adee48048ed6f06a9c","6617fad957f7c6a12ea16e26","6622d0190a7f0839f619a034","fixation cross","null","","","","","","","","","","","",""
"","null","html-keyboard-response","296","366691","0.0-13.0-1.28","8pPr2qwIeU","65c433adee48048ed6f06a9c","6617fad957f7c6a12ea16e26","6622d0190a7f0839f619a034","
        <div id=""grid-container"">
        <!-- Grid items will be dynamically added here -->
    </div>    ","null","","","","","","","","","","","",""
"","1704","html-keyboard-response","297","367596","0.0-13.0-2.28","8pPr2qwIeU","65c433adee48048ed6f06a9c","6617fad957f7c6a12ea16e26","6622d0190a7f0839f619a034","mask grid"," ","","","","","Phylogenetic_Distractor_Nonthreat_target","800","onmask","p","6","Phylogenetic","false","experimental"
"","null","html-keyboard-response","298","368312","0.0-13.0-0.29","8pPr2qwIeU","65c433adee48048ed6f06a9c","6617fad957f7c6a12ea16e26","6622d0190a7f0839f619a034","fixation cross","null","","","","","","","","","","","",""
"","null","html-keyboard-response","299","369122","0.0-13.0-1.29","8pPr2qwIeU","65c433adee48048ed6f06a9c","6617fad957f7c6a12ea16e26","6622d0190a7f0839f619a034","
        <div id=""grid-container"">
        <!-- Grid items will be dynamically added here -->
    </div>    ","null","","","","","","","","","","","",""
"","1060","html-keyboard-response","300","369383","0.0-13.0-2.29","8pPr2qwIeU","65c433adee48048ed6f06a9c","6617fad957f7c6a12ea16e26","6622d0190a7f0839f619a034","mask grid","p","","","","","Phylogenetic_Distractor_Nonthreat_target","800","onmask","p","8","Phylogenetic","true","experimental"
"","null","html-keyboard-response","301","370095","0.0-13.0-0.30","8pPr2qwIeU","65c433adee48048ed6f06a9c","6617fad957f7c6a12ea16e26","6622d0190a7f0839f619a034","fixation cross","null","","","","","","","","","","","",""
"","null","html-keyboard-response","302","370912","0.0-13.0-1.30","8pPr2qwIeU","65c433adee48048ed6f06a9c","6617fad957f7c6a12ea16e26","6622d0190a7f0839f619a034","
        <div id=""grid-container"">
        <!-- Grid items will be dynamically added here -->
    </div>    ","null","","","","","","","","","","","",""
"","982","html-keyboard-response","303","371095","0.0-13.0-2.30","8pPr2qwIeU","65c433adee48048ed6f06a9c","6617fad957f7c6a12ea16e26","6622d0190a7f0839f619a034","mask grid","q","","","","","Phylogenetic_Distractor_Threat_target","800","onmask","q","5","Phylogenetic","true","experimental"
"","null","html-keyboard-response","304","371813","0.0-13.0-0.31","8pPr2qwIeU","65c433adee48048ed6f06a9c","6617fad957f7c6a12ea16e26","6622d0190a7f0839f619a034","fixation cross","null","","","","","","","","","","","",""
"","669","html-keyboard-response","305","372484","0.0-13.0-1.31","8pPr2qwIeU","65c433adee48048ed6f06a9c","6617fad957f7c6a12ea16e26","6622d0190a7f0839f619a034","image grid","q","","","","","Phylogenetic_Distractor_Threat_target","800","ongrid","q","1","Phylogenetic","true","experimental"
"","null","html-keyboard-response","306","372646","0.0-13.0-2.31","8pPr2qwIeU","65c433adee48048ed6f06a9c","6617fad957f7c6a12ea16e26","6622d0190a7f0839f619a034","
    <div id=""grid-container"">
        <!-- Grid items will be dynamically added here -->
    </div>    ","null","","","","","","","","","","","",""
"","null","html-keyboard-response","307","373368","0.0-13.0-0.32","8pPr2qwIeU","65c433adee48048ed6f06a9c","6617fad957f7c6a12ea16e26","6622d0190a7f0839f619a034","fixation cross","null","","","","","","","","","","","",""
"","null","html-keyboard-response","308","374181","0.0-13.0-1.32","8pPr2qwIeU","65c433adee48048ed6f06a9c","6617fad957f7c6a12ea16e26","6622d0190a7f0839f619a034","
        <div id=""grid-container"">
        <!-- Grid items will be dynamically added here -->
    </div>    ","null","","","","","","","","","","","",""
"","1280","html-keyboard-response","309","374662","0.0-13.0-2.32","8pPr2qwIeU","65c433adee48048ed6f06a9c","6617fad957f7c6a12ea16e26","6622d0190a7f0839f619a034","mask grid","p","","","","","Phylogenetic_Distractor_Nonthreat_target","800","onmask","p","4","Phylogenetic","true","experimental"
"","null","html-keyboard-response","310","375381","0.0-13.0-0.33","8pPr2qwIeU","65c433adee48048ed6f06a9c","6617fad957f7c6a12ea16e26","6622d0190a7f0839f619a034","fixation cross","null","","","","","","","","","","","",""
"","null","html-keyboard-response","311","376193","0.0-13.0-1.33","8pPr2qwIeU","65c433adee48048ed6f06a9c","6617fad957f7c6a12ea16e26","6622d0190a7f0839f619a034","
        <div id=""grid-container"">
        <!-- Grid items will be dynamically added here -->
    </div>    ","null","","","","","","","","","","","",""
"","861","html-keyboard-response","312","376250","0.0-13.0-2.33","8pPr2qwIeU","65c433adee48048ed6f06a9c","6617fad957f7c6a12ea16e26","6622d0190a7f0839f619a034","mask grid","p","","","","","Phylogenetic_Distractor_notarget","800","onmask"," ","1","Phylogenetic","false","experimental"
"","null","html-keyboard-response","313","376963","0.0-13.0-0.34","8pPr2qwIeU","65c433adee48048ed6f06a9c","6617fad957f7c6a12ea16e26","6622d0190a7f0839f619a034","fixation cross","null","","","","","","","","","","","",""
"","null","html-keyboard-response","314","377778","0.0-13.0-1.34","8pPr2qwIeU","65c433adee48048ed6f06a9c","6617fad957f7c6a12ea16e26","6622d0190a7f0839f619a034","
        <div id=""grid-container"">
        <!-- Grid items will be dynamically added here -->
    </div>    ","null","","","","","","","","","","","",""
"","1286","html-keyboard-response","315","378266","0.0-13.0-2.34","8pPr2qwIeU","65c433adee48048ed6f06a9c","6617fad957f7c6a12ea16e26","6622d0190a7f0839f619a034","mask grid","p","","","","","Phylogenetic_Distractor_Threat_target","800","onmask","q","7","Phylogenetic","false","experimental"
"","null","html-keyboard-response","316","378984","0.0-13.0-0.35","8pPr2qwIeU","65c433adee48048ed6f06a9c","6617fad957f7c6a12ea16e26","6622d0190a7f0839f619a034","fixation cross","null","","","","","","","","","","","",""
"","null","html-keyboard-response","317","379791","0.0-13.0-1.35","8pPr2qwIeU","65c433adee48048ed6f06a9c","6617fad957f7c6a12ea16e26","6622d0190a7f0839f619a034","
        <div id=""grid-container"">
        <!-- Grid items will be dynamically added here -->
    </div>    ","null","","","","","","","","","","","",""
"","1293","html-keyboard-response","318","380285","0.0-13.0-2.35","8pPr2qwIeU","65c433adee48048ed6f06a9c","6617fad957f7c6a12ea16e26","6622d0190a7f0839f619a034","mask grid","p","","","","","Phylogenetic_Distractor_notarget","800","onmask"," ","5","Phylogenetic","false","experimental"
"","null","html-keyboard-response","319","381008","0.0-13.0-0.36","8pPr2qwIeU","65c433adee48048ed6f06a9c","6617fad957f7c6a12ea16e26","6622d0190a7f0839f619a034","fixation cross","null","","","","","","","","","","","",""
"","null","html-keyboard-response","320","381823","0.0-13.0-1.36","8pPr2qwIeU","65c433adee48048ed6f06a9c","6617fad957f7c6a12ea16e26","6622d0190a7f0839f619a034","
        <div id=""grid-container"">
        <!-- Grid items will be dynamically added here -->
    </div>    ","null","","","","","","","","","","","",""
"","979","html-keyboard-response","321","382002","0.0-13.0-2.36","8pPr2qwIeU","65c433adee48048ed6f06a9c","6617fad957f7c6a12ea16e26","6622d0190a7f0839f619a034","mask grid","p","","","","","Phylogenetic_Distractor_Nonthreat_target","800","onmask","p","2","Phylogenetic","true","experimental"
"","null","html-keyboard-response","322","382713","0.0-13.0-0.37","8pPr2qwIeU","65c433adee48048ed6f06a9c","6617fad957f7c6a12ea16e26","6622d0190a7f0839f619a034","fixation cross","null","","","","","","","","","","","",""
"","610","html-keyboard-response","323","383324","0.0-13.0-1.37","8pPr2qwIeU","65c433adee48048ed6f06a9c","6617fad957f7c6a12ea16e26","6622d0190a7f0839f619a034","image grid","p","","","","","Phylogenetic_Distractor_Nonthreat_target","800","ongrid","p","4","Phylogenetic","true","experimental"
"","null","html-keyboard-response","324","383489","0.0-13.0-2.37","8pPr2qwIeU","65c433adee48048ed6f06a9c","6617fad957f7c6a12ea16e26","6622d0190a7f0839f619a034","
    <div id=""grid-container"">
        <!-- Grid items will be dynamically added here -->
    </div>    ","null","","","","","","","","","","","",""
"","null","html-keyboard-response","325","384205","0.0-13.0-0.38","8pPr2qwIeU","65c433adee48048ed6f06a9c","6617fad957f7c6a12ea16e26","6622d0190a7f0839f619a034","fixation cross","null","","","","","","","","","","","",""
"","813","html-keyboard-response","326","385019","0.0-13.0-1.38","8pPr2qwIeU","65c433adee48048ed6f06a9c","6617fad957f7c6a12ea16e26","6622d0190a7f0839f619a034","image grid","q","","","","","Phylogenetic_Distractor_Threat_target","800","ongrid","q","6","Phylogenetic","true","experimental"
"","null","html-keyboard-response","327","385174","0.0-13.0-2.38","8pPr2qwIeU","65c433adee48048ed6f06a9c","6617fad957f7c6a12ea16e26","6622d0190a7f0839f619a034","
    <div id=""grid-container"">
        <!-- Grid items will be dynamically added here -->
    </div>    ","null","","","","","","","","","","","",""
"","null","html-keyboard-response","328","385886","0.0-13.0-0.39","8pPr2qwIeU","65c433adee48048ed6f06a9c","6617fad957f7c6a12ea16e26","6622d0190a7f0839f619a034","fixation cross","null","","","","","","","","","","","",""
"","null","html-keyboard-response","329","386693","0.0-13.0-1.39","8pPr2qwIeU","65c433adee48048ed6f06a9c","6617fad957f7c6a12ea16e26","6622d0190a7f0839f619a034","
        <div id=""grid-container"">
        <!-- Grid items will be dynamically added here -->
    </div>    ","null","","","","","","","","","","","",""
"","943","html-keyboard-response","330","386837","0.0-13.0-2.39","8pPr2qwIeU","65c433adee48048ed6f06a9c","6617fad957f7c6a12ea16e26","6622d0190a7f0839f619a034","mask grid","q","","","","","Phylogenetic_Distractor_Threat_target","800","onmask","q","9","Phylogenetic","true","experimental"
"","18548","html-keyboard-response","331","405599","0.0-14.0","8pPr2qwIeU","65c433adee48048ed6f06a9c","6617fad957f7c6a12ea16e26","6622d0190a7f0839f619a034","break screen"," ","","","","","","","","","","","",""
"","null","html-keyboard-response","332","408104","0.0-15.0-0.0","8pPr2qwIeU","65c433adee48048ed6f06a9c","6617fad957f7c6a12ea16e26","6622d0190a7f0839f619a034","fixation cross","null","","","","","","","","","","","",""
"","1477","html-keyboard-response","333","409582","0.0-15.0-1.0","8pPr2qwIeU","65c433adee48048ed6f06a9c","6617fad957f7c6a12ea16e26","6622d0190a7f0839f619a034","image grid","q","","","","","Ontogenetic_Distractor_Threat_target","2500","ongrid","q","5","Ontogenetic","true","experimental"
"","null","html-keyboard-response","334","409735","0.0-15.0-2.0","8pPr2qwIeU","65c433adee48048ed6f06a9c","6617fad957f7c6a12ea16e26","6622d0190a7f0839f619a034","
    <div id=""grid-container"">
        <!-- Grid items will be dynamically added here -->
    </div>    ","null","","","","","","","","","","","",""
"","null","html-keyboard-response","335","410449","0.0-15.0-0.1","8pPr2qwIeU","65c433adee48048ed6f06a9c","6617fad957f7c6a12ea16e26","6622d0190a7f0839f619a034","fixation cross","null","","","","","","","","","","","",""
"","null","html-keyboard-response","336","412954","0.0-15.0-1.1","8pPr2qwIeU","65c433adee48048ed6f06a9c","6617fad957f7c6a12ea16e26","6622d0190a7f0839f619a034","
        <div id=""grid-container"">
        <!-- Grid items will be dynamically added here -->
    </div>    ","null","","","","","","","","","","","",""
"","2500","html-keyboard-response","337","417958","0.0-15.0-2.1","8pPr2qwIeU","65c433adee48048ed6f06a9c","6617fad957f7c6a12ea16e26","6622d0190a7f0839f619a034","mask grid","null","","","","","Ontogenetic_Distractor_Nonthreat_target","2500","onmask","p","5","Ontogenetic","false","experimental"
"","null","html-keyboard-response","338","418668","0.0-15.0-0.2","8pPr2qwIeU","65c433adee48048ed6f06a9c","6617fad957f7c6a12ea16e26","6622d0190a7f0839f619a034","fixation cross","null","","","","","","","","","","","",""
"","1106","html-keyboard-response","339","419775","0.0-15.0-1.2","8pPr2qwIeU","65c433adee48048ed6f06a9c","6617fad957f7c6a12ea16e26","6622d0190a7f0839f619a034","image grid","p","","","","","Ontogenetic_Distractor_Nonthreat_target","2500","ongrid","p","2","Ontogenetic","true","experimental"
"","null","html-keyboard-response","340","419930","0.0-15.0-2.2","8pPr2qwIeU","65c433adee48048ed6f06a9c","6617fad957f7c6a12ea16e26","6622d0190a7f0839f619a034","
    <div id=""grid-container"">
        <!-- Grid items will be dynamically added here -->
    </div>    ","null","","","","","","","","","","","",""
"","null","html-keyboard-response","341","420644","0.0-15.0-0.3","8pPr2qwIeU","65c433adee48048ed6f06a9c","6617fad957f7c6a12ea16e26","6622d0190a7f0839f619a034","fixation cross","null","","","","","","","","","","","",""
"","793","html-keyboard-response","342","421439","0.0-15.0-1.3","8pPr2qwIeU","65c433adee48048ed6f06a9c","6617fad957f7c6a12ea16e26","6622d0190a7f0839f619a034","image grid","p","","","","","Ontogenetic_Distractor_Nonthreat_target","2500","ongrid","p","1","Ontogenetic","true","experimental"
"","null","html-keyboard-response","343","421596","0.0-15.0-2.3","8pPr2qwIeU","65c433adee48048ed6f06a9c","6617fad957f7c6a12ea16e26","6622d0190a7f0839f619a034","
    <div id=""grid-container"">
        <!-- Grid items will be dynamically added here -->
    </div>    ","null","","","","","","","","","","","",""
"","null","html-keyboard-response","344","422320","0.0-15.0-0.4","8pPr2qwIeU","65c433adee48048ed6f06a9c","6617fad957f7c6a12ea16e26","6622d0190a7f0839f619a034","fixation cross","null","","","","","","","","","","","",""
"","null","html-keyboard-response","345","424825","0.0-15.0-1.4","8pPr2qwIeU","65c433adee48048ed6f06a9c","6617fad957f7c6a12ea16e26","6622d0190a7f0839f619a034","
        <div id=""grid-container"">
        <!-- Grid items will be dynamically added here -->
    </div>    ","null","","","","","","","","","","","",""
"","3050","html-keyboard-response","346","425376","0.0-15.0-2.4","8pPr2qwIeU","65c433adee48048ed6f06a9c","6617fad957f7c6a12ea16e26","6622d0190a7f0839f619a034","mask grid","p","","","","","Ontogenetic_Distractor_notarget","2500","onmask"," ","5","Ontogenetic","false","experimental"
"","null","html-keyboard-response","347","426104","0.0-15.0-0.5","8pPr2qwIeU","65c433adee48048ed6f06a9c","6617fad957f7c6a12ea16e26","6622d0190a7f0839f619a034","fixation cross","null","","","","","","","","","","","",""
"","null","html-keyboard-response","348","428618","0.0-15.0-1.5","8pPr2qwIeU","65c433adee48048ed6f06a9c","6617fad957f7c6a12ea16e26","6622d0190a7f0839f619a034","
        <div id=""grid-container"">
        <!-- Grid items will be dynamically added here -->
    </div>    ","null","","","","","","","","","","","",""
"","2725","html-keyboard-response","349","428844","0.0-15.0-2.5","8pPr2qwIeU","65c433adee48048ed6f06a9c","6617fad957f7c6a12ea16e26","6622d0190a7f0839f619a034","mask grid","q","","","","","Ontogenetic_Distractor_Threat_target","2500","onmask","q","4","Ontogenetic","true","experimental"
"","null","html-keyboard-response","350","429557","0.0-15.0-0.6","8pPr2qwIeU","65c433adee48048ed6f06a9c","6617fad957f7c6a12ea16e26","6622d0190a7f0839f619a034","fixation cross","null","","","","","","","","","","","",""
"","1391","html-keyboard-response","351","430949","0.0-15.0-1.6","8pPr2qwIeU","65c433adee48048ed6f06a9c","6617fad957f7c6a12ea16e26","6622d0190a7f0839f619a034","image grid","q","","","","","Ontogenetic_Distractor_Threat_target","2500","ongrid","q","5","Ontogenetic","true","experimental"
"","null","html-keyboard-response","352","431113","0.0-15.0-2.6","8pPr2qwIeU","65c433adee48048ed6f06a9c","6617fad957f7c6a12ea16e26","6622d0190a7f0839f619a034","
    <div id=""grid-container"">
        <!-- Grid items will be dynamically added here -->
    </div>    ","null","","","","","","","","","","","",""
"","null","html-keyboard-response","353","431828","0.0-15.0-0.7","8pPr2qwIeU","65c433adee48048ed6f06a9c","6617fad957f7c6a12ea16e26","6622d0190a7f0839f619a034","fixation cross","null","","","","","","","","","","","",""
"","1398","html-keyboard-response","354","433227","0.0-15.0-1.7","8pPr2qwIeU","65c433adee48048ed6f06a9c","6617fad957f7c6a12ea16e26","6622d0190a7f0839f619a034","image grid","q","","","","","Ontogenetic_Distractor_Threat_target","2500","ongrid","q","1","Ontogenetic","true","experimental"
"","null","html-keyboard-response","355","433386","0.0-15.0-2.7","8pPr2qwIeU","65c433adee48048ed6f06a9c","6617fad957f7c6a12ea16e26","6622d0190a7f0839f619a034","
    <div id=""grid-container"">
        <!-- Grid items will be dynamically added here -->
    </div>    ","null","","","","","","","","","","","",""
"","null","html-keyboard-response","356","434097","0.0-15.0-0.8","8pPr2qwIeU","65c433adee48048ed6f06a9c","6617fad957f7c6a12ea16e26","6622d0190a7f0839f619a034","fixation cross","null","","","","","","","","","","","",""
"","835","html-keyboard-response","357","434933","0.0-15.0-1.8","8pPr2qwIeU","65c433adee48048ed6f06a9c","6617fad957f7c6a12ea16e26","6622d0190a7f0839f619a034","image grid","p","","","","","Ontogenetic_Distractor_Nonthreat_target","2500","ongrid","p","5","Ontogenetic","true","experimental"
"","null","html-keyboard-response","358","435087","0.0-15.0-2.8","8pPr2qwIeU","65c433adee48048ed6f06a9c","6617fad957f7c6a12ea16e26","6622d0190a7f0839f619a034","
    <div id=""grid-container"">
        <!-- Grid items will be dynamically added here -->
    </div>    ","null","","","","","","","","","","","",""
"","null","html-keyboard-response","359","435803","0.0-15.0-0.9","8pPr2qwIeU","65c433adee48048ed6f06a9c","6617fad957f7c6a12ea16e26","6622d0190a7f0839f619a034","fixation cross","null","","","","","","","","","","","",""
"","1788","html-keyboard-response","360","437585","0.0-15.0-1.9","8pPr2qwIeU","65c433adee48048ed6f06a9c","6617fad957f7c6a12ea16e26","6622d0190a7f0839f619a034","image grid","p","","","","","Ontogenetic_Distractor_Nonthreat_target","2500","ongrid","p","2","Ontogenetic","true","experimental"
"","null","html-keyboard-response","361","437743","0.0-15.0-2.9","8pPr2qwIeU","65c433adee48048ed6f06a9c","6617fad957f7c6a12ea16e26","6622d0190a7f0839f619a034","
    <div id=""grid-container"">
        <!-- Grid items will be dynamically added here -->
    </div>    ","null","","","","","","","","","","","",""
"","null","html-keyboard-response","362","438461","0.0-15.0-0.10","8pPr2qwIeU","65c433adee48048ed6f06a9c","6617fad957f7c6a12ea16e26","6622d0190a7f0839f619a034","fixation cross","null","","","","","","","","","","","",""
"","1338","html-keyboard-response","363","439800","0.0-15.0-1.10","8pPr2qwIeU","65c433adee48048ed6f06a9c","6617fad957f7c6a12ea16e26","6622d0190a7f0839f619a034","image grid","q","","","","","Ontogenetic_Distractor_Threat_target","2500","ongrid","q","7","Ontogenetic","true","experimental"
"","null","html-keyboard-response","364","439955","0.0-15.0-2.10","8pPr2qwIeU","65c433adee48048ed6f06a9c","6617fad957f7c6a12ea16e26","6622d0190a7f0839f619a034","
    <div id=""grid-container"">
        <!-- Grid items will be dynamically added here -->
    </div>    ","null","","","","","","","","","","","",""
"","null","html-keyboard-response","365","440665","0.0-15.0-0.11","8pPr2qwIeU","65c433adee48048ed6f06a9c","6617fad957f7c6a12ea16e26","6622d0190a7f0839f619a034","fixation cross","null","","","","","","","","","","","",""
"","2191","html-keyboard-response","366","442858","0.0-15.0-1.11","8pPr2qwIeU","65c433adee48048ed6f06a9c","6617fad957f7c6a12ea16e26","6622d0190a7f0839f619a034","image grid","q","","","","","Ontogenetic_Distractor_Threat_target","2500","ongrid","q","5","Ontogenetic","true","experimental"
"","null","html-keyboard-response","367","443012","0.0-15.0-2.11","8pPr2qwIeU","65c433adee48048ed6f06a9c","6617fad957f7c6a12ea16e26","6622d0190a7f0839f619a034","
    <div id=""grid-container"">
        <!-- Grid items will be dynamically added here -->
    </div>    ","null","","","","","","","","","","","",""
"","null","html-keyboard-response","368","443729","0.0-15.0-0.12","8pPr2qwIeU","65c433adee48048ed6f06a9c","6617fad957f7c6a12ea16e26","6622d0190a7f0839f619a034","fixation cross","null","","","","","","","","","","","",""
"","2435","html-keyboard-response","369","446165","0.0-15.0-1.12","8pPr2qwIeU","65c433adee48048ed6f06a9c","6617fad957f7c6a12ea16e26","6622d0190a7f0839f619a034","image grid"," ","","","","","Ontogenetic_Distractor_notarget","2500","ongrid"," ","9","Ontogenetic","true","experimental"
