"success","rt","trial_type","trial_index","time_elapsed","internal_node_id","unique_identifier","subject_id","study_id","session_id","stimulus","response","timeout","failed_images","failed_audio","failed_video","task","time_manipulation","respondedwhen","correctresponse","targetimagelocation","blocktype","correct","roundtype"
"true","2303","fullscreen","0","3313","0.0-0.0","jTsrEgDTmP","5ddd730ffce606ce31a105d4","6617fad957f7c6a12ea16e26","6622cc85ee910cdaa54dbb9b","","","","","","","","","","","","","",""
"","14790","html-keyboard-response","1","18107","0.0-1.0","jTsrEgDTmP","5ddd730ffce606ce31a105d4","6617fad957f7c6a12ea16e26","6622cc85ee910cdaa54dbb9b","instruction screen 0"," ","","","","","","","","","","","",""
"true","","preload","2","20587","0.0-2.0","jTsrEgDTmP","5ddd730ffce606ce31a105d4","6617fad957f7c6a12ea16e26","6622cc85ee910cdaa54dbb9b","","","false","[]","[]","[]","","","","","","","",""
"","24983","html-keyboard-response","3","45570","0.0-3.0","jTsrEgDTmP","5ddd730ffce606ce31a105d4","6617fad957f7c6a12ea16e26","6622cc85ee910cdaa54dbb9b","instruction screen 1"," ","","","","","","","","","","","",""
"","12757","html-keyboard-response","4","58337","0.0-4.0","jTsrEgDTmP","5ddd730ffce606ce31a105d4","6617fad957f7c6a12ea16e26","6622cc85ee910cdaa54dbb9b","instruction screen 2","q","","","","","","","","","","","",""
"","9706","html-keyboard-response","5","68053","0.0-5.0","jTsrEgDTmP","5ddd730ffce606ce31a105d4","6617fad957f7c6a12ea16e26","6622cc85ee910cdaa54dbb9b","instruction screen 3","p","","","","","","","","","","","",""
"","21244","html-keyboard-response","6","89300","0.0-6.0","jTsrEgDTmP","5ddd730ffce606ce31a105d4","6617fad957f7c6a12ea16e26","6622cc85ee910cdaa54dbb9b","instruction screen 4"," ","","","","","","","","","","","",""
"","24194","html-keyboard-response","7","113513","0.0-7.0","jTsrEgDTmP","5ddd730ffce606ce31a105d4","6617fad957f7c6a12ea16e26","6622cc85ee910cdaa54dbb9b","instruction screen 5"," ","","","","","","","","","","","",""
"","null","html-keyboard-response","8","114035","0.0-8.0","jTsrEgDTmP","5ddd730ffce606ce31a105d4","6617fad957f7c6a12ea16e26","6622cc85ee910cdaa54dbb9b","fixation cross","null","","","","","","","","","","","",""
"","null","html-keyboard-response","9","114538","0.0-9.0-0.0","jTsrEgDTmP","5ddd730ffce606ce31a105d4","6617fad957f7c6a12ea16e26","6622cc85ee910cdaa54dbb9b","fixation cross","null","","","","","","","","","","","",""
"","1831","html-keyboard-response","10","116372","0.0-9.0-1.0","jTsrEgDTmP","5ddd730ffce606ce31a105d4","6617fad957f7c6a12ea16e26","6622cc85ee910cdaa54dbb9b","image grid","q","","","","","Phylogenetic_Distractor_Threat_target","3000","ongrid","q","9","Phylogenetic","true","practice"
"","null","html-keyboard-response","11","116527","0.0-9.0-2.0","jTsrEgDTmP","5ddd730ffce606ce31a105d4","6617fad957f7c6a12ea16e26","6622cc85ee910cdaa54dbb9b","
    <div id=""grid-container"">
        <!-- Grid items will be dynamically added here -->
    </div>    ","null","","","","","","","","","","","",""
"","null","html-keyboard-response","12","117735","0.0-9.0-3.0","jTsrEgDTmP","5ddd730ffce606ce31a105d4","6617fad957f7c6a12ea16e26","6622cc85ee910cdaa54dbb9b","feedback screen","null","","","","","","","","","","","",""
"","null","html-keyboard-response","13","118240","0.0-9.0-0.1","jTsrEgDTmP","5ddd730ffce606ce31a105d4","6617fad957f7c6a12ea16e26","6622cc85ee910cdaa54dbb9b","fixation cross","null","","","","","","","","","","","",""
"","1290","html-keyboard-response","14","119532","0.0-9.0-1.1","jTsrEgDTmP","5ddd730ffce606ce31a105d4","6617fad957f7c6a12ea16e26","6622cc85ee910cdaa54dbb9b","image grid","p","","","","","Ontogenetic_Distractor_Nonthreat_target","2900","ongrid","p","1","Phylogenetic","true","practice"
"","null","html-keyboard-response","15","119685","0.0-9.0-2.1","jTsrEgDTmP","5ddd730ffce606ce31a105d4","6617fad957f7c6a12ea16e26","6622cc85ee910cdaa54dbb9b","
    <div id=""grid-container"">
        <!-- Grid items will be dynamically added here -->
    </div>    ","null","","","","","","","","","","","",""
"","null","html-keyboard-response","16","120889","0.0-9.0-3.1","jTsrEgDTmP","5ddd730ffce606ce31a105d4","6617fad957f7c6a12ea16e26","6622cc85ee910cdaa54dbb9b","feedback screen","null","","","","","","","","","","","",""
"","null","html-keyboard-response","17","121393","0.0-9.0-0.2","jTsrEgDTmP","5ddd730ffce606ce31a105d4","6617fad957f7c6a12ea16e26","6622cc85ee910cdaa54dbb9b","fixation cross","null","","","","","","","","","","","",""
"","2050","html-keyboard-response","18","123445","0.0-9.0-1.2","jTsrEgDTmP","5ddd730ffce606ce31a105d4","6617fad957f7c6a12ea16e26","6622cc85ee910cdaa54dbb9b","image grid","p","","","","","Phylogenetic_Distractor_Threat_target","2800","ongrid","q","7","Phylogenetic","false","practice"
"","null","html-keyboard-response","19","123597","0.0-9.0-2.2","jTsrEgDTmP","5ddd730ffce606ce31a105d4","6617fad957f7c6a12ea16e26","6622cc85ee910cdaa54dbb9b","
    <div id=""grid-container"">
        <!-- Grid items will be dynamically added here -->
    </div>    ","null","","","","","","","","","","","",""
"","null","html-keyboard-response","20","124805","0.0-9.0-3.2","jTsrEgDTmP","5ddd730ffce606ce31a105d4","6617fad957f7c6a12ea16e26","6622cc85ee910cdaa54dbb9b","feedback screen","null","","","","","","","","","","","",""
"","null","html-keyboard-response","21","125309","0.0-9.0-0.3","jTsrEgDTmP","5ddd730ffce606ce31a105d4","6617fad957f7c6a12ea16e26","6622cc85ee910cdaa54dbb9b","fixation cross","null","","","","","","","","","","","",""
"","1703","html-keyboard-response","22","127014","0.0-9.0-1.3","jTsrEgDTmP","5ddd730ffce606ce31a105d4","6617fad957f7c6a12ea16e26","6622cc85ee910cdaa54dbb9b","image grid"," ","","","","","Phylogenetic_Distractor_notarget","2700","ongrid"," ","6","Phylogenetic","true","practice"
"","null","html-keyboard-response","23","127166","0.0-9.0-2.3","jTsrEgDTmP","5ddd730ffce606ce31a105d4","6617fad957f7c6a12ea16e26","6622cc85ee910cdaa54dbb9b","
    <div id=""grid-container"">
        <!-- Grid items will be dynamically added here -->
    </div>    ","null","","","","","","","","","","","",""
"","null","html-keyboard-response","24","128371","0.0-9.0-3.3","jTsrEgDTmP","5ddd730ffce606ce31a105d4","6617fad957f7c6a12ea16e26","6622cc85ee910cdaa54dbb9b","feedback screen","null","","","","","","","","","","","",""
"","null","html-keyboard-response","25","128876","0.0-9.0-0.4","jTsrEgDTmP","5ddd730ffce606ce31a105d4","6617fad957f7c6a12ea16e26","6622cc85ee910cdaa54dbb9b","fixation cross","null","","","","","","","","","","","",""
"","2312","html-keyboard-response","26","131189","0.0-9.0-1.4","jTsrEgDTmP","5ddd730ffce606ce31a105d4","6617fad957f7c6a12ea16e26","6622cc85ee910cdaa54dbb9b","image grid","q","","","","","Phylogenetic_Distractor_Nonthreat_target","2600","ongrid","p","6","Phylogenetic","false","practice"
"","null","html-keyboard-response","27","131341","0.0-9.0-2.4","jTsrEgDTmP","5ddd730ffce606ce31a105d4","6617fad957f7c6a12ea16e26","6622cc85ee910cdaa54dbb9b","
    <div id=""grid-container"">
        <!-- Grid items will be dynamically added here -->
    </div>    ","null","","","","","","","","","","","",""
"","null","html-keyboard-response","28","132546","0.0-9.0-3.4","jTsrEgDTmP","5ddd730ffce606ce31a105d4","6617fad957f7c6a12ea16e26","6622cc85ee910cdaa54dbb9b","feedback screen","null","","","","","","","","","","","",""
"","null","html-keyboard-response","29","133053","0.0-9.0-0.5","jTsrEgDTmP","5ddd730ffce606ce31a105d4","6617fad957f7c6a12ea16e26","6622cc85ee910cdaa54dbb9b","fixation cross","null","","","","","","","","","","","",""
"","1396","html-keyboard-response","30","134451","0.0-9.0-1.5","jTsrEgDTmP","5ddd730ffce606ce31a105d4","6617fad957f7c6a12ea16e26","6622cc85ee910cdaa54dbb9b","image grid","q","","","","","Ontogenetic_Distractor_Nonthreat_target","2500","ongrid","p","6","Phylogenetic","false","practice"
"","null","html-keyboard-response","31","134606","0.0-9.0-2.5","jTsrEgDTmP","5ddd730ffce606ce31a105d4","6617fad957f7c6a12ea16e26","6622cc85ee910cdaa54dbb9b","
    <div id=""grid-container"">
        <!-- Grid items will be dynamically added here -->
    </div>    ","null","","","","","","","","","","","",""
"","null","html-keyboard-response","32","135817","0.0-9.0-3.5","jTsrEgDTmP","5ddd730ffce606ce31a105d4","6617fad957f7c6a12ea16e26","6622cc85ee910cdaa54dbb9b","feedback screen","null","","","","","","","","","","","",""
"","null","html-keyboard-response","33","136334","0.0-9.0-0.6","jTsrEgDTmP","5ddd730ffce606ce31a105d4","6617fad957f7c6a12ea16e26","6622cc85ee910cdaa54dbb9b","fixation cross","null","","","","","","","","","","","",""
"","1511","html-keyboard-response","34","137848","0.0-9.0-1.6","jTsrEgDTmP","5ddd730ffce606ce31a105d4","6617fad957f7c6a12ea16e26","6622cc85ee910cdaa54dbb9b","image grid","q","","","","","Phylogenetic_Distractor_Threat_target","2400","ongrid","q","8","Phylogenetic","true","practice"
"","null","html-keyboard-response","35","138005","0.0-9.0-2.6","jTsrEgDTmP","5ddd730ffce606ce31a105d4","6617fad957f7c6a12ea16e26","6622cc85ee910cdaa54dbb9b","
    <div id=""grid-container"">
        <!-- Grid items will be dynamically added here -->
    </div>    ","null","","","","","","","","","","","",""
"","null","html-keyboard-response","36","139212","0.0-9.0-3.6","jTsrEgDTmP","5ddd730ffce606ce31a105d4","6617fad957f7c6a12ea16e26","6622cc85ee910cdaa54dbb9b","feedback screen","null","","","","","","","","","","","",""
"","null","html-keyboard-response","37","139718","0.0-9.0-0.7","jTsrEgDTmP","5ddd730ffce606ce31a105d4","6617fad957f7c6a12ea16e26","6622cc85ee910cdaa54dbb9b","fixation cross","null","","","","","","","","","","","",""
"","2158","html-keyboard-response","38","141877","0.0-9.0-1.7","jTsrEgDTmP","5ddd730ffce606ce31a105d4","6617fad957f7c6a12ea16e26","6622cc85ee910cdaa54dbb9b","image grid"," ","","","","","Phylogenetic_Distractor_Nonthreat_target","2300","ongrid","p","4","Phylogenetic","false","practice"
"","null","html-keyboard-response","39","142030","0.0-9.0-2.7","jTsrEgDTmP","5ddd730ffce606ce31a105d4","6617fad957f7c6a12ea16e26","6622cc85ee910cdaa54dbb9b","
    <div id=""grid-container"">
        <!-- Grid items will be dynamically added here -->
    </div>    ","null","","","","","","","","","","","",""
"","null","html-keyboard-response","40","143237","0.0-9.0-3.7","jTsrEgDTmP","5ddd730ffce606ce31a105d4","6617fad957f7c6a12ea16e26","6622cc85ee910cdaa54dbb9b","feedback screen","null","","","","","","","","","","","",""
"","null","html-keyboard-response","41","143741","0.0-9.0-0.8","jTsrEgDTmP","5ddd730ffce606ce31a105d4","6617fad957f7c6a12ea16e26","6622cc85ee910cdaa54dbb9b","fixation cross","null","","","","","","","","","","","",""
"","1339","html-keyboard-response","42","145082","0.0-9.0-1.8","jTsrEgDTmP","5ddd730ffce606ce31a105d4","6617fad957f7c6a12ea16e26","6622cc85ee910cdaa54dbb9b","image grid"," ","","","","","Ontogenetic_Distractor_notarget","2200","ongrid"," ","4","Phylogenetic","true","practice"
"","null","html-keyboard-response","43","145235","0.0-9.0-2.8","jTsrEgDTmP","5ddd730ffce606ce31a105d4","6617fad957f7c6a12ea16e26","6622cc85ee910cdaa54dbb9b","
    <div id=""grid-container"">
        <!-- Grid items will be dynamically added here -->
    </div>    ","null","","","","","","","","","","","",""
"","null","html-keyboard-response","44","146440","0.0-9.0-3.8","jTsrEgDTmP","5ddd730ffce606ce31a105d4","6617fad957f7c6a12ea16e26","6622cc85ee910cdaa54dbb9b","feedback screen","null","","","","","","","","","","","",""
"","null","html-keyboard-response","45","146947","0.0-9.0-0.9","jTsrEgDTmP","5ddd730ffce606ce31a105d4","6617fad957f7c6a12ea16e26","6622cc85ee910cdaa54dbb9b","fixation cross","null","","","","","","","","","","","",""
"","null","html-keyboard-response","46","149052","0.0-9.0-1.9","jTsrEgDTmP","5ddd730ffce606ce31a105d4","6617fad957f7c6a12ea16e26","6622cc85ee910cdaa54dbb9b","
        <div id=""grid-container"">
        <!-- Grid items will be dynamically added here -->
    </div>    ","null","","","","","","","","","","","",""
"","2145","html-keyboard-response","47","149099","0.0-9.0-2.9","jTsrEgDTmP","5ddd730ffce606ce31a105d4","6617fad957f7c6a12ea16e26","6622cc85ee910cdaa54dbb9b","mask grid","q","","","","","Ontogenetic_Distractor_Threat_target","2100","onmask","q","9","Phylogenetic","true","practice"
"","null","html-keyboard-response","48","150303","0.0-9.0-3.9","jTsrEgDTmP","5ddd730ffce606ce31a105d4","6617fad957f7c6a12ea16e26","6622cc85ee910cdaa54dbb9b","feedback screen","null","","","","","","","","","","","",""
"","null","html-keyboard-response","49","150808","0.0-9.0-0.10","jTsrEgDTmP","5ddd730ffce606ce31a105d4","6617fad957f7c6a12ea16e26","6622cc85ee910cdaa54dbb9b","fixation cross","null","","","","","","","","","","","",""
"","null","html-keyboard-response","50","152811","0.0-9.0-1.10","jTsrEgDTmP","5ddd730ffce606ce31a105d4","6617fad957f7c6a12ea16e26","6622cc85ee910cdaa54dbb9b","
        <div id=""grid-container"">
        <!-- Grid items will be dynamically added here -->
    </div>    ","null","","","","","","","","","","","",""
"","2340","html-keyboard-response","51","153152","0.0-9.0-2.10","jTsrEgDTmP","5ddd730ffce606ce31a105d4","6617fad957f7c6a12ea16e26","6622cc85ee910cdaa54dbb9b","mask grid","p","","","","","Phylogenetic_Distractor_Nonthreat_target","2000","onmask","p","6","Phylogenetic","true","practice"
"","null","html-keyboard-response","52","154358","0.0-9.0-3.10","jTsrEgDTmP","5ddd730ffce606ce31a105d4","6617fad957f7c6a12ea16e26","6622cc85ee910cdaa54dbb9b","feedback screen","null","","","","","","","","","","","",""
"","null","html-keyboard-response","53","154863","0.0-9.0-0.11","jTsrEgDTmP","5ddd730ffce606ce31a105d4","6617fad957f7c6a12ea16e26","6622cc85ee910cdaa54dbb9b","fixation cross","null","","","","","","","","","","","",""
"","1550","html-keyboard-response","54","156415","0.0-9.0-1.11","jTsrEgDTmP","5ddd730ffce606ce31a105d4","6617fad957f7c6a12ea16e26","6622cc85ee910cdaa54dbb9b","image grid"," ","","","","","Ontogenetic_Distractor_notarget","1900","ongrid"," ","5","Phylogenetic","true","practice"
"","null","html-keyboard-response","55","156569","0.0-9.0-2.11","jTsrEgDTmP","5ddd730ffce606ce31a105d4","6617fad957f7c6a12ea16e26","6622cc85ee910cdaa54dbb9b","
    <div id=""grid-container"">
        <!-- Grid items will be dynamically added here -->
    </div>    ","null","","","","","","","","","","","",""
"","null","html-keyboard-response","56","157774","0.0-9.0-3.11","jTsrEgDTmP","5ddd730ffce606ce31a105d4","6617fad957f7c6a12ea16e26","6622cc85ee910cdaa54dbb9b","feedback screen","null","","","","","","","","","","","",""
"","null","html-keyboard-response","57","158278","0.0-9.0-0.12","jTsrEgDTmP","5ddd730ffce606ce31a105d4","6617fad957f7c6a12ea16e26","6622cc85ee910cdaa54dbb9b","fixation cross","null","","","","","","","","","","","",""
"","1613","html-keyboard-response","58","159894","0.0-9.0-1.12","jTsrEgDTmP","5ddd730ffce606ce31a105d4","6617fad957f7c6a12ea16e26","6622cc85ee910cdaa54dbb9b","image grid","q","","","","","Ontogenetic_Distractor_Threat_target","1800","ongrid","q","8","Phylogenetic","true","practice"
"","null","html-keyboard-response","59","160047","0.0-9.0-2.12","jTsrEgDTmP","5ddd730ffce606ce31a105d4","6617fad957f7c6a12ea16e26","6622cc85ee910cdaa54dbb9b","
    <div id=""grid-container"">
        <!-- Grid items will be dynamically added here -->
    </div>    ","null","","","","","","","","","","","",""
"","null","html-keyboard-response","60","161251","0.0-9.0-3.12","jTsrEgDTmP","5ddd730ffce606ce31a105d4","6617fad957f7c6a12ea16e26","6622cc85ee910cdaa54dbb9b","feedback screen","null","","","","","","","","","","","",""
"","null","html-keyboard-response","61","161768","0.0-9.0-0.13","jTsrEgDTmP","5ddd730ffce606ce31a105d4","6617fad957f7c6a12ea16e26","6622cc85ee910cdaa54dbb9b","fixation cross","null","","","","","","","","","","","",""
"","1082","html-keyboard-response","62","162851","0.0-9.0-1.13","jTsrEgDTmP","5ddd730ffce606ce31a105d4","6617fad957f7c6a12ea16e26","6622cc85ee910cdaa54dbb9b","image grid","p","","","","","Ontogenetic_Distractor_Nonthreat_target","1700","ongrid","p","1","Phylogenetic","true","practice"
"","null","html-keyboard-response","63","163007","0.0-9.0-2.13","jTsrEgDTmP","5ddd730ffce606ce31a105d4","6617fad957f7c6a12ea16e26","6622cc85ee910cdaa54dbb9b","
    <div id=""grid-container"">
        <!-- Grid items will be dynamically added here -->
    </div>    ","null","","","","","","","","","","","",""
"","null","html-keyboard-response","64","164213","0.0-9.0-3.13","jTsrEgDTmP","5ddd730ffce606ce31a105d4","6617fad957f7c6a12ea16e26","6622cc85ee910cdaa54dbb9b","feedback screen","null","","","","","","","","","","","",""
"","null","html-keyboard-response","65","164717","0.0-9.0-0.14","jTsrEgDTmP","5ddd730ffce606ce31a105d4","6617fad957f7c6a12ea16e26","6622cc85ee910cdaa54dbb9b","fixation cross","null","","","","","","","","","","","",""
"","null","html-keyboard-response","66","166321","0.0-9.0-1.14","jTsrEgDTmP","5ddd730ffce606ce31a105d4","6617fad957f7c6a12ea16e26","6622cc85ee910cdaa54dbb9b","
        <div id=""grid-container"">
        <!-- Grid items will be dynamically added here -->
    </div>    ","null","","","","","","","","","","","",""
"","1868","html-keyboard-response","67","166590","0.0-9.0-2.14","jTsrEgDTmP","5ddd730ffce606ce31a105d4","6617fad957f7c6a12ea16e26","6622cc85ee910cdaa54dbb9b","mask grid"," ","","","","","Phylogenetic_Distractor_Nonthreat_target","1600","onmask","p","1","Phylogenetic","false","practice"
"","null","html-keyboard-response","68","167796","0.0-9.0-3.14","jTsrEgDTmP","5ddd730ffce606ce31a105d4","6617fad957f7c6a12ea16e26","6622cc85ee910cdaa54dbb9b","feedback screen","null","","","","","","","","","","","",""
"","null","html-keyboard-response","69","168301","0.0-9.0-0.15","jTsrEgDTmP","5ddd730ffce606ce31a105d4","6617fad957f7c6a12ea16e26","6622cc85ee910cdaa54dbb9b","fixation cross","null","","","","","","","","","","","",""
"","null","html-keyboard-response","70","169804","0.0-9.0-1.15","jTsrEgDTmP","5ddd730ffce606ce31a105d4","6617fad957f7c6a12ea16e26","6622cc85ee910cdaa54dbb9b","
        <div id=""grid-container"">
        <!-- Grid items will be dynamically added here -->
    </div>    ","null","","","","","","","","","","","",""
"","6041","html-keyboard-response","71","174349","0.0-9.0-2.15","jTsrEgDTmP","5ddd730ffce606ce31a105d4","6617fad957f7c6a12ea16e26","6622cc85ee910cdaa54dbb9b","mask grid","q","","","","","Phylogenetic_Distractor_Threat_target","1500","onmask","q","7","Phylogenetic","true","practice"
"","null","html-keyboard-response","72","175552","0.0-9.0-3.15","jTsrEgDTmP","5ddd730ffce606ce31a105d4","6617fad957f7c6a12ea16e26","6622cc85ee910cdaa54dbb9b","feedback screen","null","","","","","","","","","","","",""
"","null","html-keyboard-response","73","176056","0.0-9.0-0.16","jTsrEgDTmP","5ddd730ffce606ce31a105d4","6617fad957f7c6a12ea16e26","6622cc85ee910cdaa54dbb9b","fixation cross","null","","","","","","","","","","","",""
"","1159","html-keyboard-response","74","177216","0.0-9.0-1.16","jTsrEgDTmP","5ddd730ffce606ce31a105d4","6617fad957f7c6a12ea16e26","6622cc85ee910cdaa54dbb9b","image grid","q","","","","","Ontogenetic_Distractor_Threat_target","1400","ongrid","q","8","Phylogenetic","true","practice"
"","null","html-keyboard-response","75","177369","0.0-9.0-2.16","jTsrEgDTmP","5ddd730ffce606ce31a105d4","6617fad957f7c6a12ea16e26","6622cc85ee910cdaa54dbb9b","
    <div id=""grid-container"">
        <!-- Grid items will be dynamically added here -->
    </div>    ","null","","","","","","","","","","","",""
"","null","html-keyboard-response","76","178573","0.0-9.0-3.16","jTsrEgDTmP","5ddd730ffce606ce31a105d4","6617fad957f7c6a12ea16e26","6622cc85ee910cdaa54dbb9b","feedback screen","null","","","","","","","","","","","",""
"","null","html-keyboard-response","77","179079","0.0-9.0-0.17","jTsrEgDTmP","5ddd730ffce606ce31a105d4","6617fad957f7c6a12ea16e26","6622cc85ee910cdaa54dbb9b","fixation cross","null","","","","","","","","","","","",""
"","null","html-keyboard-response","78","180384","0.0-9.0-1.17","jTsrEgDTmP","5ddd730ffce606ce31a105d4","6617fad957f7c6a12ea16e26","6622cc85ee910cdaa54dbb9b","
        <div id=""grid-container"">
        <!-- Grid items will be dynamically added here -->
    </div>    ","null","","","","","","","","","","","",""
"","5819","html-keyboard-response","79","184905","0.0-9.0-2.17","jTsrEgDTmP","5ddd730ffce606ce31a105d4","6617fad957f7c6a12ea16e26","6622cc85ee910cdaa54dbb9b","mask grid","p","","","","","Ontogenetic_Distractor_Nonthreat_target","1300","onmask","p","6","Phylogenetic","true","practice"
"","null","html-keyboard-response","80","186111","0.0-9.0-3.17","jTsrEgDTmP","5ddd730ffce606ce31a105d4","6617fad957f7c6a12ea16e26","6622cc85ee910cdaa54dbb9b","feedback screen","null","","","","","","","","","","","",""
"","null","html-keyboard-response","81","186616","0.0-9.0-0.18","jTsrEgDTmP","5ddd730ffce606ce31a105d4","6617fad957f7c6a12ea16e26","6622cc85ee910cdaa54dbb9b","fixation cross","null","","","","","","","","","","","",""
"","null","html-keyboard-response","82","187822","0.0-9.0-1.18","jTsrEgDTmP","5ddd730ffce606ce31a105d4","6617fad957f7c6a12ea16e26","6622cc85ee910cdaa54dbb9b","
        <div id=""grid-container"">
        <!-- Grid items will be dynamically added here -->
    </div>    ","null","","","","","","","","","","","",""
"","1591","html-keyboard-response","83","188215","0.0-9.0-2.18","jTsrEgDTmP","5ddd730ffce606ce31a105d4","6617fad957f7c6a12ea16e26","6622cc85ee910cdaa54dbb9b","mask grid","q","","","","","Ontogenetic_Distractor_Threat_target","1200","onmask","q","2","Phylogenetic","true","practice"
"","null","html-keyboard-response","84","189420","0.0-9.0-3.18","jTsrEgDTmP","5ddd730ffce606ce31a105d4","6617fad957f7c6a12ea16e26","6622cc85ee910cdaa54dbb9b","feedback screen","null","","","","","","","","","","","",""
"","null","html-keyboard-response","85","189924","0.0-9.0-0.19","jTsrEgDTmP","5ddd730ffce606ce31a105d4","6617fad957f7c6a12ea16e26","6622cc85ee910cdaa54dbb9b","fixation cross","null","","","","","","","","","","","",""
"","null","html-keyboard-response","86","191029","0.0-9.0-1.19","jTsrEgDTmP","5ddd730ffce606ce31a105d4","6617fad957f7c6a12ea16e26","6622cc85ee910cdaa54dbb9b","
        <div id=""grid-container"">
        <!-- Grid items will be dynamically added here -->
    </div>    ","null","","","","","","","","","","","",""
"","1678","html-keyboard-response","87","191608","0.0-9.0-2.19","jTsrEgDTmP","5ddd730ffce606ce31a105d4","6617fad957f7c6a12ea16e26","6622cc85ee910cdaa54dbb9b","mask grid"," ","","","","","Phylogenetic_Distractor_notarget","1100","onmask"," ","7","Phylogenetic","true","practice"
"","null","html-keyboard-response","88","192816","0.0-9.0-3.19","jTsrEgDTmP","5ddd730ffce606ce31a105d4","6617fad957f7c6a12ea16e26","6622cc85ee910cdaa54dbb9b","feedback screen","null","","","","","","","","","","","",""
"","6521","html-keyboard-response","89","199350","0.0-10.0","jTsrEgDTmP","5ddd730ffce606ce31a105d4","6617fad957f7c6a12ea16e26","6622cc85ee910cdaa54dbb9b","pre-experimental_briefing"," ","","","","","","","","","","","",""
"","null","html-keyboard-response","90","201854","0.0-11.0-0.0","jTsrEgDTmP","5ddd730ffce606ce31a105d4","6617fad957f7c6a12ea16e26","6622cc85ee910cdaa54dbb9b","fixation cross","null","","","","","","","","","","","",""
"","null","html-keyboard-response","91","204357","0.0-11.0-1.0","jTsrEgDTmP","5ddd730ffce606ce31a105d4","6617fad957f7c6a12ea16e26","6622cc85ee910cdaa54dbb9b","
        <div id=""grid-container"">
        <!-- Grid items will be dynamically added here -->
    </div>    ","null","","","","","","","","","","","",""
"","2522","html-keyboard-response","92","204382","0.0-11.0-2.0","jTsrEgDTmP","5ddd730ffce606ce31a105d4","6617fad957f7c6a12ea16e26","6622cc85ee910cdaa54dbb9b","mask grid","p","","","","","Phylogenetic_Distractor_Nonthreat_target","2500","onmask","p","7","Phylogenetic","true","experimental"
"","null","html-keyboard-response","93","205086","0.0-11.0-0.1","jTsrEgDTmP","5ddd730ffce606ce31a105d4","6617fad957f7c6a12ea16e26","6622cc85ee910cdaa54dbb9b","fixation cross","null","","","","","","","","","","","",""
"","1255","html-keyboard-response","94","206342","0.0-11.0-1.1","jTsrEgDTmP","5ddd730ffce606ce31a105d4","6617fad957f7c6a12ea16e26","6622cc85ee910cdaa54dbb9b","image grid","q","","","","","Phylogenetic_Distractor_Threat_target","2500","ongrid","q","6","Phylogenetic","true","experimental"
"","null","html-keyboard-response","95","206496","0.0-11.0-2.1","jTsrEgDTmP","5ddd730ffce606ce31a105d4","6617fad957f7c6a12ea16e26","6622cc85ee910cdaa54dbb9b","
    <div id=""grid-container"">
        <!-- Grid items will be dynamically added here -->
    </div>    ","null","","","","","","","","","","","",""
"","null","html-keyboard-response","96","207201","0.0-11.0-0.2","jTsrEgDTmP","5ddd730ffce606ce31a105d4","6617fad957f7c6a12ea16e26","6622cc85ee910cdaa54dbb9b","fixation cross","null","","","","","","","","","","","",""
"","null","html-keyboard-response","97","209704","0.0-11.0-1.2","jTsrEgDTmP","5ddd730ffce606ce31a105d4","6617fad957f7c6a12ea16e26","6622cc85ee910cdaa54dbb9b","
        <div id=""grid-container"">
        <!-- Grid items will be dynamically added here -->
    </div>    ","null","","","","","","","","","","","",""
"","2522","html-keyboard-response","98","209728","0.0-11.0-2.2","jTsrEgDTmP","5ddd730ffce606ce31a105d4","6617fad957f7c6a12ea16e26","6622cc85ee910cdaa54dbb9b","mask grid","q","","","","","Phylogenetic_Distractor_Threat_target","2500","onmask","q","9","Phylogenetic","true","experimental"
"","null","html-keyboard-response","99","210432","0.0-11.0-0.3","jTsrEgDTmP","5ddd730ffce606ce31a105d4","6617fad957f7c6a12ea16e26","6622cc85ee910cdaa54dbb9b","fixation cross","null","","","","","","","","","","","",""
"","2025","html-keyboard-response","100","212460","0.0-11.0-1.3","jTsrEgDTmP","5ddd730ffce606ce31a105d4","6617fad957f7c6a12ea16e26","6622cc85ee910cdaa54dbb9b","image grid"," ","","","","","Phylogenetic_Distractor_notarget","2500","ongrid"," ","2","Phylogenetic","true","experimental"
"","null","html-keyboard-response","101","212613","0.0-11.0-2.3","jTsrEgDTmP","5ddd730ffce606ce31a105d4","6617fad957f7c6a12ea16e26","6622cc85ee910cdaa54dbb9b","
    <div id=""grid-container"">
        <!-- Grid items will be dynamically added here -->
    </div>    ","null","","","","","","","","","","","",""
"","null","html-keyboard-response","102","213321","0.0-11.0-0.4","jTsrEgDTmP","5ddd730ffce606ce31a105d4","6617fad957f7c6a12ea16e26","6622cc85ee910cdaa54dbb9b","fixation cross","null","","","","","","","","","","","",""
"","2413","html-keyboard-response","103","215735","0.0-11.0-1.4","jTsrEgDTmP","5ddd730ffce606ce31a105d4","6617fad957f7c6a12ea16e26","6622cc85ee910cdaa54dbb9b","image grid","q","","","","","Phylogenetic_Distractor_Nonthreat_target","2500","ongrid","p","7","Phylogenetic","false","experimental"
"","null","html-keyboard-response","104","215888","0.0-11.0-2.4","jTsrEgDTmP","5ddd730ffce606ce31a105d4","6617fad957f7c6a12ea16e26","6622cc85ee910cdaa54dbb9b","
    <div id=""grid-container"">
        <!-- Grid items will be dynamically added here -->
    </div>    ","null","","","","","","","","","","","",""
"","null","html-keyboard-response","105","216592","0.0-11.0-0.5","jTsrEgDTmP","5ddd730ffce606ce31a105d4","6617fad957f7c6a12ea16e26","6622cc85ee910cdaa54dbb9b","fixation cross","null","","","","","","","","","","","",""
"","1113","html-keyboard-response","106","217707","0.0-11.0-1.5","jTsrEgDTmP","5ddd730ffce606ce31a105d4","6617fad957f7c6a12ea16e26","6622cc85ee910cdaa54dbb9b","image grid","q","","","","","Phylogenetic_Distractor_Threat_target","2500","ongrid","q","2","Phylogenetic","true","experimental"
"","null","html-keyboard-response","107","217860","0.0-11.0-2.5","jTsrEgDTmP","5ddd730ffce606ce31a105d4","6617fad957f7c6a12ea16e26","6622cc85ee910cdaa54dbb9b","
    <div id=""grid-container"">
        <!-- Grid items will be dynamically added here -->
    </div>    ","null","","","","","","","","","","","",""
"","null","html-keyboard-response","108","218563","0.0-11.0-0.6","jTsrEgDTmP","5ddd730ffce606ce31a105d4","6617fad957f7c6a12ea16e26","6622cc85ee910cdaa54dbb9b","fixation cross","null","","","","","","","","","","","",""
"","898","html-keyboard-response","109","219465","0.0-11.0-1.6","jTsrEgDTmP","5ddd730ffce606ce31a105d4","6617fad957f7c6a12ea16e26","6622cc85ee910cdaa54dbb9b","image grid","q","","","","","Phylogenetic_Distractor_Threat_target","2500","ongrid","q","6","Phylogenetic","true","experimental"
"","null","html-keyboard-response","110","219621","0.0-11.0-2.6","jTsrEgDTmP","5ddd730ffce606ce31a105d4","6617fad957f7c6a12ea16e26","6622cc85ee910cdaa54dbb9b","
    <div id=""grid-container"">
        <!-- Grid items will be dynamically added here -->
    </div>    ","null","","","","","","","","","","","",""
"","null","html-keyboard-response","111","220326","0.0-11.0-0.7","jTsrEgDTmP","5ddd730ffce606ce31a105d4","6617fad957f7c6a12ea16e26","6622cc85ee910cdaa54dbb9b","fixation cross","null","","","","","","","","","","","",""
"","1971","html-keyboard-response","112","222298","0.0-11.0-1.7","jTsrEgDTmP","5ddd730ffce606ce31a105d4","6617fad957f7c6a12ea16e26","6622cc85ee910cdaa54dbb9b","image grid"," ","","","","","Phylogenetic_Distractor_Nonthreat_target","2500","ongrid","p","2","Phylogenetic","false","experimental"
"","null","html-keyboard-response","113","222451","0.0-11.0-2.7","jTsrEgDTmP","5ddd730ffce606ce31a105d4","6617fad957f7c6a12ea16e26","6622cc85ee910cdaa54dbb9b","
    <div id=""grid-container"">
        <!-- Grid items will be dynamically added here -->
    </div>    ","null","","","","","","","","","","","",""
"","null","html-keyboard-response","114","223157","0.0-11.0-0.8","jTsrEgDTmP","5ddd730ffce606ce31a105d4","6617fad957f7c6a12ea16e26","6622cc85ee910cdaa54dbb9b","fixation cross","null","","","","","","","","","","","",""
"","null","html-keyboard-response","115","225660","0.0-11.0-1.8","jTsrEgDTmP","5ddd730ffce606ce31a105d4","6617fad957f7c6a12ea16e26","6622cc85ee910cdaa54dbb9b","
        <div id=""grid-container"">
        <!-- Grid items will be dynamically added here -->
    </div>    ","null","","","","","","","","","","","",""
"","2757","html-keyboard-response","116","225918","0.0-11.0-2.8","jTsrEgDTmP","5ddd730ffce606ce31a105d4","6617fad957f7c6a12ea16e26","6622cc85ee910cdaa54dbb9b","mask grid","q","","","","","Phylogenetic_Distractor_Nonthreat_target","2500","onmask","p","5","Phylogenetic","false","experimental"
"","null","html-keyboard-response","117","226623","0.0-11.0-0.9","jTsrEgDTmP","5ddd730ffce606ce31a105d4","6617fad957f7c6a12ea16e26","6622cc85ee910cdaa54dbb9b","fixation cross","null","","","","","","","","","","","",""
"","1507","html-keyboard-response","118","228132","0.0-11.0-1.9","jTsrEgDTmP","5ddd730ffce606ce31a105d4","6617fad957f7c6a12ea16e26","6622cc85ee910cdaa54dbb9b","image grid"," ","","","","","Phylogenetic_Distractor_notarget","2500","ongrid"," ","9","Phylogenetic","true","experimental"
"","null","html-keyboard-response","119","228286","0.0-11.0-2.9","jTsrEgDTmP","5ddd730ffce606ce31a105d4","6617fad957f7c6a12ea16e26","6622cc85ee910cdaa54dbb9b","
    <div id=""grid-container"">
        <!-- Grid items will be dynamically added here -->
    </div>    ","null","","","","","","","","","","","",""
"","null","html-keyboard-response","120","228989","0.0-11.0-0.10","jTsrEgDTmP","5ddd730ffce606ce31a105d4","6617fad957f7c6a12ea16e26","6622cc85ee910cdaa54dbb9b","fixation cross","null","","","","","","","","","","","",""
"","1443","html-keyboard-response","121","230435","0.0-11.0-1.10","jTsrEgDTmP","5ddd730ffce606ce31a105d4","6617fad957f7c6a12ea16e26","6622cc85ee910cdaa54dbb9b","image grid","q","","","","","Phylogenetic_Distractor_Nonthreat_target","2500","ongrid","p","9","Phylogenetic","false","experimental"
"","null","html-keyboard-response","122","230588","0.0-11.0-2.10","jTsrEgDTmP","5ddd730ffce606ce31a105d4","6617fad957f7c6a12ea16e26","6622cc85ee910cdaa54dbb9b","
    <div id=""grid-container"">
        <!-- Grid items will be dynamically added here -->
    </div>    ","null","","","","","","","","","","","",""
"","null","html-keyboard-response","123","231292","0.0-11.0-0.11","jTsrEgDTmP","5ddd730ffce606ce31a105d4","6617fad957f7c6a12ea16e26","6622cc85ee910cdaa54dbb9b","fixation cross","null","","","","","","","","","","","",""
"","1669","html-keyboard-response","124","232963","0.0-11.0-1.11","jTsrEgDTmP","5ddd730ffce606ce31a105d4","6617fad957f7c6a12ea16e26","6622cc85ee910cdaa54dbb9b","image grid","p","","","","","Phylogenetic_Distractor_Nonthreat_target","2500","ongrid","p","1","Phylogenetic","true","experimental"
"","null","html-keyboard-response","125","233116","0.0-11.0-2.11","jTsrEgDTmP","5ddd730ffce606ce31a105d4","6617fad957f7c6a12ea16e26","6622cc85ee910cdaa54dbb9b","
    <div id=""grid-container"">
        <!-- Grid items will be dynamically added here -->
    </div>    ","null","","","","","","","","","","","",""
"","null","html-keyboard-response","126","233822","0.0-11.0-0.12","jTsrEgDTmP","5ddd730ffce606ce31a105d4","6617fad957f7c6a12ea16e26","6622cc85ee910cdaa54dbb9b","fixation cross","null","","","","","","","","","","","",""
"","1588","html-keyboard-response","127","235412","0.0-11.0-1.12","jTsrEgDTmP","5ddd730ffce606ce31a105d4","6617fad957f7c6a12ea16e26","6622cc85ee910cdaa54dbb9b","image grid","q","","","","","Phylogenetic_Distractor_Nonthreat_target","2500","ongrid","p","5","Phylogenetic","false","experimental"
"","null","html-keyboard-response","128","235564","0.0-11.0-2.12","jTsrEgDTmP","5ddd730ffce606ce31a105d4","6617fad957f7c6a12ea16e26","6622cc85ee910cdaa54dbb9b","
    <div id=""grid-container"">
        <!-- Grid items will be dynamically added here -->
    </div>    ","null","","","","","","","","","","","",""
"","null","html-keyboard-response","129","236268","0.0-11.0-0.13","jTsrEgDTmP","5ddd730ffce606ce31a105d4","6617fad957f7c6a12ea16e26","6622cc85ee910cdaa54dbb9b","fixation cross","null","","","","","","","","","","","",""
"","1075","html-keyboard-response","130","237346","0.0-11.0-1.13","jTsrEgDTmP","5ddd730ffce606ce31a105d4","6617fad957f7c6a12ea16e26","6622cc85ee910cdaa54dbb9b","image grid","q","","","","","Phylogenetic_Distractor_Threat_target","2500","ongrid","q","9","Phylogenetic","true","experimental"
"","null","html-keyboard-response","131","237500","0.0-11.0-2.13","jTsrEgDTmP","5ddd730ffce606ce31a105d4","6617fad957f7c6a12ea16e26","6622cc85ee910cdaa54dbb9b","
    <div id=""grid-container"">
        <!-- Grid items will be dynamically added here -->
    </div>    ","null","","","","","","","","","","","",""
"","null","html-keyboard-response","132","238205","0.0-11.0-0.14","jTsrEgDTmP","5ddd730ffce606ce31a105d4","6617fad957f7c6a12ea16e26","6622cc85ee910cdaa54dbb9b","fixation cross","null","","","","","","","","","","","",""
"","1190","html-keyboard-response","133","239397","0.0-11.0-1.14","jTsrEgDTmP","5ddd730ffce606ce31a105d4","6617fad957f7c6a12ea16e26","6622cc85ee910cdaa54dbb9b","image grid","q","","","","","Phylogenetic_Distractor_Threat_target","2500","ongrid","q","8","Phylogenetic","true","experimental"
"","null","html-keyboard-response","134","239551","0.0-11.0-2.14","jTsrEgDTmP","5ddd730ffce606ce31a105d4","6617fad957f7c6a12ea16e26","6622cc85ee910cdaa54dbb9b","
    <div id=""grid-container"">
        <!-- Grid items will be dynamically added here -->
    </div>    ","null","","","","","","","","","","","",""
"","null","html-keyboard-response","135","240255","0.0-11.0-0.15","jTsrEgDTmP","5ddd730ffce606ce31a105d4","6617fad957f7c6a12ea16e26","6622cc85ee910cdaa54dbb9b","fixation cross","null","","","","","","","","","","","",""
"","1767","html-keyboard-response","136","242026","0.0-11.0-1.15","jTsrEgDTmP","5ddd730ffce606ce31a105d4","6617fad957f7c6a12ea16e26","6622cc85ee910cdaa54dbb9b","image grid","p","","","","","Phylogenetic_Distractor_Nonthreat_target","2500","ongrid","p","2","Phylogenetic","true","experimental"
"","null","html-keyboard-response","137","242180","0.0-11.0-2.15","jTsrEgDTmP","5ddd730ffce606ce31a105d4","6617fad957f7c6a12ea16e26","6622cc85ee910cdaa54dbb9b","
    <div id=""grid-container"">
        <!-- Grid items will be dynamically added here -->
    </div>    ","null","","","","","","","","","","","",""
"","null","html-keyboard-response","138","242886","0.0-11.0-0.16","jTsrEgDTmP","5ddd730ffce606ce31a105d4","6617fad957f7c6a12ea16e26","6622cc85ee910cdaa54dbb9b","fixation cross","null","","","","","","","","","","","",""
"","1313","html-keyboard-response","139","244201","0.0-11.0-1.16","jTsrEgDTmP","5ddd730ffce606ce31a105d4","6617fad957f7c6a12ea16e26","6622cc85ee910cdaa54dbb9b","image grid","p","","","","","Phylogenetic_Distractor_Nonthreat_target","2500","ongrid","p","9","Phylogenetic","true","experimental"
"","null","html-keyboard-response","140","244354","0.0-11.0-2.16","jTsrEgDTmP","5ddd730ffce606ce31a105d4","6617fad957f7c6a12ea16e26","6622cc85ee910cdaa54dbb9b","
    <div id=""grid-container"">
        <!-- Grid items will be dynamically added here -->
    </div>    ","null","","","","","","","","","","","",""
"","null","html-keyboard-response","141","245058","0.0-11.0-0.17","jTsrEgDTmP","5ddd730ffce606ce31a105d4","6617fad957f7c6a12ea16e26","6622cc85ee910cdaa54dbb9b","fixation cross","null","","","","","","","","","","","",""
"","1046","html-keyboard-response","142","246106","0.0-11.0-1.17","jTsrEgDTmP","5ddd730ffce606ce31a105d4","6617fad957f7c6a12ea16e26","6622cc85ee910cdaa54dbb9b","image grid","p","","","","","Phylogenetic_Distractor_Nonthreat_target","2500","ongrid","p","8","Phylogenetic","true","experimental"
"","null","html-keyboard-response","143","246259","0.0-11.0-2.17","jTsrEgDTmP","5ddd730ffce606ce31a105d4","6617fad957f7c6a12ea16e26","6622cc85ee910cdaa54dbb9b","
    <div id=""grid-container"">
        <!-- Grid items will be dynamically added here -->
    </div>    ","null","","","","","","","","","","","",""
"","null","html-keyboard-response","144","246963","0.0-11.0-0.18","jTsrEgDTmP","5ddd730ffce606ce31a105d4","6617fad957f7c6a12ea16e26","6622cc85ee910cdaa54dbb9b","fixation cross","null","","","","","","","","","","","",""
"","1287","html-keyboard-response","145","248252","0.0-11.0-1.18","jTsrEgDTmP","5ddd730ffce606ce31a105d4","6617fad957f7c6a12ea16e26","6622cc85ee910cdaa54dbb9b","image grid","q","","","","","Phylogenetic_Distractor_Threat_target","2500","ongrid","q","7","Phylogenetic","true","experimental"
"","null","html-keyboard-response","146","248405","0.0-11.0-2.18","jTsrEgDTmP","5ddd730ffce606ce31a105d4","6617fad957f7c6a12ea16e26","6622cc85ee910cdaa54dbb9b","
    <div id=""grid-container"">
        <!-- Grid items will be dynamically added here -->
    </div>    ","null","","","","","","","","","","","",""
"","null","html-keyboard-response","147","249112","0.0-11.0-0.19","jTsrEgDTmP","5ddd730ffce606ce31a105d4","6617fad957f7c6a12ea16e26","6622cc85ee910cdaa54dbb9b","fixation cross","null","","","","","","","","","","","",""
"","902","html-keyboard-response","148","250016","0.0-11.0-1.19","jTsrEgDTmP","5ddd730ffce606ce31a105d4","6617fad957f7c6a12ea16e26","6622cc85ee910cdaa54dbb9b","image grid","q","","","","","Phylogenetic_Distractor_Threat_target","2500","ongrid","q","8","Phylogenetic","true","experimental"
"","null","html-keyboard-response","149","250169","0.0-11.0-2.19","jTsrEgDTmP","5ddd730ffce606ce31a105d4","6617fad957f7c6a12ea16e26","6622cc85ee910cdaa54dbb9b","
    <div id=""grid-container"">
        <!-- Grid items will be dynamically added here -->
    </div>    ","null","","","","","","","","","","","",""
"","null","html-keyboard-response","150","250873","0.0-11.0-0.20","jTsrEgDTmP","5ddd730ffce606ce31a105d4","6617fad957f7c6a12ea16e26","6622cc85ee910cdaa54dbb9b","fixation cross","null","","","","","","","","","","","",""
"","1455","html-keyboard-response","151","252330","0.0-11.0-1.20","jTsrEgDTmP","5ddd730ffce606ce31a105d4","6617fad957f7c6a12ea16e26","6622cc85ee910cdaa54dbb9b","image grid","q","","","","","Phylogenetic_Distractor_Nonthreat_target","2500","ongrid","p","1","Phylogenetic","false","experimental"
"","null","html-keyboard-response","152","252485","0.0-11.0-2.20","jTsrEgDTmP","5ddd730ffce606ce31a105d4","6617fad957f7c6a12ea16e26","6622cc85ee910cdaa54dbb9b","
    <div id=""grid-container"">
        <!-- Grid items will be dynamically added here -->
    </div>    ","null","","","","","","","","","","","",""
"","null","html-keyboard-response","153","253191","0.0-11.0-0.21","jTsrEgDTmP","5ddd730ffce606ce31a105d4","6617fad957f7c6a12ea16e26","6622cc85ee910cdaa54dbb9b","fixation cross","null","","","","","","","","","","","",""
"","2436","html-keyboard-response","154","255628","0.0-11.0-1.21","jTsrEgDTmP","5ddd730ffce606ce31a105d4","6617fad957f7c6a12ea16e26","6622cc85ee910cdaa54dbb9b","image grid","p","","","","","Phylogenetic_Distractor_Nonthreat_target","2500","ongrid","p","9","Phylogenetic","true","experimental"
"","null","html-keyboard-response","155","255782","0.0-11.0-2.21","jTsrEgDTmP","5ddd730ffce606ce31a105d4","6617fad957f7c6a12ea16e26","6622cc85ee910cdaa54dbb9b","
    <div id=""grid-container"">
        <!-- Grid items will be dynamically added here -->
    </div>    ","null","","","","","","","","","","","",""
"","null","html-keyboard-response","156","256485","0.0-11.0-0.22","jTsrEgDTmP","5ddd730ffce606ce31a105d4","6617fad957f7c6a12ea16e26","6622cc85ee910cdaa54dbb9b","fixation cross","null","","","","","","","","","","","",""
"","1958","html-keyboard-response","157","258444","0.0-11.0-1.22","jTsrEgDTmP","5ddd730ffce606ce31a105d4","6617fad957f7c6a12ea16e26","6622cc85ee910cdaa54dbb9b","image grid"," ","","","","","Phylogenetic_Distractor_notarget","2500","ongrid"," ","4","Phylogenetic","true","experimental"
"","null","html-keyboard-response","158","258600","0.0-11.0-2.22","jTsrEgDTmP","5ddd730ffce606ce31a105d4","6617fad957f7c6a12ea16e26","6622cc85ee910cdaa54dbb9b","
    <div id=""grid-container"">
        <!-- Grid items will be dynamically added here -->
    </div>    ","null","","","","","","","","","","","",""
"","null","html-keyboard-response","159","259305","0.0-11.0-0.23","jTsrEgDTmP","5ddd730ffce606ce31a105d4","6617fad957f7c6a12ea16e26","6622cc85ee910cdaa54dbb9b","fixation cross","null","","","","","","","","","","","",""
"","1094","html-keyboard-response","160","260401","0.0-11.0-1.23","jTsrEgDTmP","5ddd730ffce606ce31a105d4","6617fad957f7c6a12ea16e26","6622cc85ee910cdaa54dbb9b","image grid","q","","","","","Phylogenetic_Distractor_Threat_target","2500","ongrid","q","4","Phylogenetic","true","experimental"
"","null","html-keyboard-response","161","260555","0.0-11.0-2.23","jTsrEgDTmP","5ddd730ffce606ce31a105d4","6617fad957f7c6a12ea16e26","6622cc85ee910cdaa54dbb9b","
    <div id=""grid-container"">
        <!-- Grid items will be dynamically added here -->
    </div>    ","null","","","","","","","","","","","",""
"","null","html-keyboard-response","162","261259","0.0-11.0-0.24","jTsrEgDTmP","5ddd730ffce606ce31a105d4","6617fad957f7c6a12ea16e26","6622cc85ee910cdaa54dbb9b","fixation cross","null","","","","","","","","","","","",""
"","1129","html-keyboard-response","163","262390","0.0-11.0-1.24","jTsrEgDTmP","5ddd730ffce606ce31a105d4","6617fad957f7c6a12ea16e26","6622cc85ee910cdaa54dbb9b","image grid","q","","","","","Phylogenetic_Distractor_Nonthreat_target","2500","ongrid","p","8","Phylogenetic","false","experimental"
"","null","html-keyboard-response","164","262544","0.0-11.0-2.24","jTsrEgDTmP","5ddd730ffce606ce31a105d4","6617fad957f7c6a12ea16e26","6622cc85ee910cdaa54dbb9b","
    <div id=""grid-container"">
        <!-- Grid items will be dynamically added here -->
    </div>    ","null","","","","","","","","","","","",""
"","null","html-keyboard-response","165","263249","0.0-11.0-0.25","jTsrEgDTmP","5ddd730ffce606ce31a105d4","6617fad957f7c6a12ea16e26","6622cc85ee910cdaa54dbb9b","fixation cross","null","","","","","","","","","","","",""
"","1074","html-keyboard-response","166","264324","0.0-11.0-1.25","jTsrEgDTmP","5ddd730ffce606ce31a105d4","6617fad957f7c6a12ea16e26","6622cc85ee910cdaa54dbb9b","image grid","q","","","","","Phylogenetic_Distractor_Threat_target","2500","ongrid","q","3","Phylogenetic","true","experimental"
"","null","html-keyboard-response","167","264478","0.0-11.0-2.25","jTsrEgDTmP","5ddd730ffce606ce31a105d4","6617fad957f7c6a12ea16e26","6622cc85ee910cdaa54dbb9b","
    <div id=""grid-container"">
        <!-- Grid items will be dynamically added here -->
    </div>    ","null","","","","","","","","","","","",""
"","null","html-keyboard-response","168","265182","0.0-11.0-0.26","jTsrEgDTmP","5ddd730ffce606ce31a105d4","6617fad957f7c6a12ea16e26","6622cc85ee910cdaa54dbb9b","fixation cross","null","","","","","","","","","","","",""
"","911","html-keyboard-response","169","266095","0.0-11.0-1.26","jTsrEgDTmP","5ddd730ffce606ce31a105d4","6617fad957f7c6a12ea16e26","6622cc85ee910cdaa54dbb9b","image grid","q","","","","","Phylogenetic_Distractor_Threat_target","2500","ongrid","q","3","Phylogenetic","true","experimental"
"","null","html-keyboard-response","170","266249","0.0-11.0-2.26","jTsrEgDTmP","5ddd730ffce606ce31a105d4","6617fad957f7c6a12ea16e26","6622cc85ee910cdaa54dbb9b","
    <div id=""grid-container"">
        <!-- Grid items will be dynamically added here -->
    </div>    ","null","","","","","","","","","","","",""
"","null","html-keyboard-response","171","266954","0.0-11.0-0.27","jTsrEgDTmP","5ddd730ffce606ce31a105d4","6617fad957f7c6a12ea16e26","6622cc85ee910cdaa54dbb9b","fixation cross","null","","","","","","","","","","","",""
"","1066","html-keyboard-response","172","268024","0.0-11.0-1.27","jTsrEgDTmP","5ddd730ffce606ce31a105d4","6617fad957f7c6a12ea16e26","6622cc85ee910cdaa54dbb9b","image grid","q","","","","","Phylogenetic_Distractor_Threat_target","2500","ongrid","q","1","Phylogenetic","true","experimental"
"","null","html-keyboard-response","173","268176","0.0-11.0-2.27","jTsrEgDTmP","5ddd730ffce606ce31a105d4","6617fad957f7c6a12ea16e26","6622cc85ee910cdaa54dbb9b","
    <div id=""grid-container"">
        <!-- Grid items will be dynamically added here -->
    </div>    ","null","","","","","","","","","","","",""
"","null","html-keyboard-response","174","268880","0.0-11.0-0.28","jTsrEgDTmP","5ddd730ffce606ce31a105d4","6617fad957f7c6a12ea16e26","6622cc85ee910cdaa54dbb9b","fixation cross","null","","","","","","","","","","","",""
"","844","html-keyboard-response","175","269728","0.0-11.0-1.28","jTsrEgDTmP","5ddd730ffce606ce31a105d4","6617fad957f7c6a12ea16e26","6622cc85ee910cdaa54dbb9b","image grid","q","","","","","Phylogenetic_Distractor_Threat_target","2500","ongrid","q","1","Phylogenetic","true","experimental"
"","null","html-keyboard-response","176","269881","0.0-11.0-2.28","jTsrEgDTmP","5ddd730ffce606ce31a105d4","6617fad957f7c6a12ea16e26","6622cc85ee910cdaa54dbb9b","
    <div id=""grid-container"">
        <!-- Grid items will be dynamically added here -->
    </div>    ","null","","","","","","","","","","","",""
"","null","html-keyboard-response","177","270586","0.0-11.0-0.29","jTsrEgDTmP","5ddd730ffce606ce31a105d4","6617fad957f7c6a12ea16e26","6622cc85ee910cdaa54dbb9b","fixation cross","null","","","","","","","","","","","",""
"","944","html-keyboard-response","178","271530","0.0-11.0-1.29","jTsrEgDTmP","5ddd730ffce606ce31a105d4","6617fad957f7c6a12ea16e26","6622cc85ee910cdaa54dbb9b","image grid","q","","","","","Phylogenetic_Distractor_Nonthreat_target","2500","ongrid","p","2","Phylogenetic","false","experimental"
"","null","html-keyboard-response","179","271683","0.0-11.0-2.29","jTsrEgDTmP","5ddd730ffce606ce31a105d4","6617fad957f7c6a12ea16e26","6622cc85ee910cdaa54dbb9b","
    <div id=""grid-container"">
        <!-- Grid items will be dynamically added here -->
    </div>    ","null","","","","","","","","","","","",""
"","null","html-keyboard-response","180","272387","0.0-11.0-0.30","jTsrEgDTmP","5ddd730ffce606ce31a105d4","6617fad957f7c6a12ea16e26","6622cc85ee910cdaa54dbb9b","fixation cross","null","","","","","","","","","","","",""
"","1308","html-keyboard-response","181","273697","0.0-11.0-1.30","jTsrEgDTmP","5ddd730ffce606ce31a105d4","6617fad957f7c6a12ea16e26","6622cc85ee910cdaa54dbb9b","image grid","p","","","","","Phylogenetic_Distractor_Nonthreat_target","2500","ongrid","p","6","Phylogenetic","true","experimental"
"","null","html-keyboard-response","182","273850","0.0-11.0-2.30","jTsrEgDTmP","5ddd730ffce606ce31a105d4","6617fad957f7c6a12ea16e26","6622cc85ee910cdaa54dbb9b","
    <div id=""grid-container"">
        <!-- Grid items will be dynamically added here -->
    </div>    ","null","","","","","","","","","","","",""
"","null","html-keyboard-response","183","274554","0.0-11.0-0.31","jTsrEgDTmP","5ddd730ffce606ce31a105d4","6617fad957f7c6a12ea16e26","6622cc85ee910cdaa54dbb9b","fixation cross","null","","","","","","","","","","","",""
"","1770","html-keyboard-response","184","276325","0.0-11.0-1.31","jTsrEgDTmP","5ddd730ffce606ce31a105d4","6617fad957f7c6a12ea16e26","6622cc85ee910cdaa54dbb9b","image grid","p","","","","","Phylogenetic_Distractor_Nonthreat_target","2500","ongrid","p","4","Phylogenetic","true","experimental"
"","null","html-keyboard-response","185","276479","0.0-11.0-2.31","jTsrEgDTmP","5ddd730ffce606ce31a105d4","6617fad957f7c6a12ea16e26","6622cc85ee910cdaa54dbb9b","
    <div id=""grid-container"">
        <!-- Grid items will be dynamically added here -->
    </div>    ","null","","","","","","","","","","","",""
"","null","html-keyboard-response","186","277182","0.0-11.0-0.32","jTsrEgDTmP","5ddd730ffce606ce31a105d4","6617fad957f7c6a12ea16e26","6622cc85ee910cdaa54dbb9b","fixation cross","null","","","","","","","","","","","",""
"","868","html-keyboard-response","187","278052","0.0-11.0-1.32","jTsrEgDTmP","5ddd730ffce606ce31a105d4","6617fad957f7c6a12ea16e26","6622cc85ee910cdaa54dbb9b","image grid","q","","","","","Phylogenetic_Distractor_Threat_target","2500","ongrid","q","4","Phylogenetic","true","experimental"
"","null","html-keyboard-response","188","278205","0.0-11.0-2.32","jTsrEgDTmP","5ddd730ffce606ce31a105d4","6617fad957f7c6a12ea16e26","6622cc85ee910cdaa54dbb9b","
    <div id=""grid-container"">
        <!-- Grid items will be dynamically added here -->
    </div>    ","null","","","","","","","","","","","",""
"","null","html-keyboard-response","189","278908","0.0-11.0-0.33","jTsrEgDTmP","5ddd730ffce606ce31a105d4","6617fad957f7c6a12ea16e26","6622cc85ee910cdaa54dbb9b","fixation cross","null","","","","","","","","","","","",""
"","1064","html-keyboard-response","190","279974","0.0-11.0-1.33","jTsrEgDTmP","5ddd730ffce606ce31a105d4","6617fad957f7c6a12ea16e26","6622cc85ee910cdaa54dbb9b","image grid","q","","","","","Phylogenetic_Distractor_Threat_target","2500","ongrid","q","3","Phylogenetic","true","experimental"
"","null","html-keyboard-response","191","280128","0.0-11.0-2.33","jTsrEgDTmP","5ddd730ffce606ce31a105d4","6617fad957f7c6a12ea16e26","6622cc85ee910cdaa54dbb9b","
    <div id=""grid-container"">
        <!-- Grid items will be dynamically added here -->
    </div>    ","null","","","","","","","","","","","",""
"","null","html-keyboard-response","192","280832","0.0-11.0-0.34","jTsrEgDTmP","5ddd730ffce606ce31a105d4","6617fad957f7c6a12ea16e26","6622cc85ee910cdaa54dbb9b","fixation cross","null","","","","","","","","","","","",""
"","793","html-keyboard-response","193","281627","0.0-11.0-1.34","jTsrEgDTmP","5ddd730ffce606ce31a105d4","6617fad957f7c6a12ea16e26","6622cc85ee910cdaa54dbb9b","image grid","q","","","","","Phylogenetic_Distractor_Threat_target","2500","ongrid","q","4","Phylogenetic","true","experimental"
"","null","html-keyboard-response","194","281781","0.0-11.0-2.34","jTsrEgDTmP","5ddd730ffce606ce31a105d4","6617fad957f7c6a12ea16e26","6622cc85ee910cdaa54dbb9b","
    <div id=""grid-container"">
        <!-- Grid items will be dynamically added here -->
    </div>    ","null","","","","","","","","","","","",""
"","null","html-keyboard-response","195","282487","0.0-11.0-0.35","jTsrEgDTmP","5ddd730ffce606ce31a105d4","6617fad957f7c6a12ea16e26","6622cc85ee910cdaa54dbb9b","fixation cross","null","","","","","","","","","","","",""
"","778","html-keyboard-response","196","283267","0.0-11.0-1.35","jTsrEgDTmP","5ddd730ffce606ce31a105d4","6617fad957f7c6a12ea16e26","6622cc85ee910cdaa54dbb9b","image grid","q","","","","","Phylogenetic_Distractor_Threat_target","2500","ongrid","q","4","Phylogenetic","true","experimental"
"","null","html-keyboard-response","197","283420","0.0-11.0-2.35","jTsrEgDTmP","5ddd730ffce606ce31a105d4","6617fad957f7c6a12ea16e26","6622cc85ee910cdaa54dbb9b","
    <div id=""grid-container"">
        <!-- Grid items will be dynamically added here -->
    </div>    ","null","","","","","","","","","","","",""
"","null","html-keyboard-response","198","284127","0.0-11.0-0.36","jTsrEgDTmP","5ddd730ffce606ce31a105d4","6617fad957f7c6a12ea16e26","6622cc85ee910cdaa54dbb9b","fixation cross","null","","","","","","","","","","","",""
"","2034","html-keyboard-response","199","286163","0.0-11.0-1.36","jTsrEgDTmP","5ddd730ffce606ce31a105d4","6617fad957f7c6a12ea16e26","6622cc85ee910cdaa54dbb9b","image grid"," ","","","","","Phylogenetic_Distractor_notarget","2500","ongrid"," ","8","Phylogenetic","true","experimental"
"","null","html-keyboard-response","200","286322","0.0-11.0-2.36","jTsrEgDTmP","5ddd730ffce606ce31a105d4","6617fad957f7c6a12ea16e26","6622cc85ee910cdaa54dbb9b","
    <div id=""grid-container"">
        <!-- Grid items will be dynamically added here -->
    </div>    ","null","","","","","","","","","","","",""
"","null","html-keyboard-response","201","287028","0.0-11.0-0.37","jTsrEgDTmP","5ddd730ffce606ce31a105d4","6617fad957f7c6a12ea16e26","6622cc85ee910cdaa54dbb9b","fixation cross","null","","","","","","","","","","","",""
"","921","html-keyboard-response","202","287951","0.0-11.0-1.37","jTsrEgDTmP","5ddd730ffce606ce31a105d4","6617fad957f7c6a12ea16e26","6622cc85ee910cdaa54dbb9b","image grid","q","","","","","Phylogenetic_Distractor_Threat_target","2500","ongrid","q","1","Phylogenetic","true","experimental"
"","null","html-keyboard-response","203","288105","0.0-11.0-2.37","jTsrEgDTmP","5ddd730ffce606ce31a105d4","6617fad957f7c6a12ea16e26","6622cc85ee910cdaa54dbb9b","
    <div id=""grid-container"">
        <!-- Grid items will be dynamically added here -->
    </div>    ","null","","","","","","","","","","","",""
"","null","html-keyboard-response","204","288809","0.0-11.0-0.38","jTsrEgDTmP","5ddd730ffce606ce31a105d4","6617fad957f7c6a12ea16e26","6622cc85ee910cdaa54dbb9b","fixation cross","null","","","","","","","","","","","",""
"","null","html-keyboard-response","205","291311","0.0-11.0-1.38","jTsrEgDTmP","5ddd730ffce606ce31a105d4","6617fad957f7c6a12ea16e26","6622cc85ee910cdaa54dbb9b","
        <div id=""grid-container"">
        <!-- Grid items will be dynamically added here -->
    </div>    ","null","","","","","","","","","","","",""
"","2731","html-keyboard-response","206","291546","0.0-11.0-2.38","jTsrEgDTmP","5ddd730ffce606ce31a105d4","6617fad957f7c6a12ea16e26","6622cc85ee910cdaa54dbb9b","mask grid","q","","","","","Phylogenetic_Distractor_Nonthreat_target","2500","onmask","p","7","Phylogenetic","false","experimental"
"","null","html-keyboard-response","207","292251","0.0-11.0-0.39","jTsrEgDTmP","5ddd730ffce606ce31a105d4","6617fad957f7c6a12ea16e26","6622cc85ee910cdaa54dbb9b","fixation cross","null","","","","","","","","","","","",""
"","2293","html-keyboard-response","208","294545","0.0-11.0-1.39","jTsrEgDTmP","5ddd730ffce606ce31a105d4","6617fad957f7c6a12ea16e26","6622cc85ee910cdaa54dbb9b","image grid","p","","","","","Phylogenetic_Distractor_Nonthreat_target","2500","ongrid","p","3","Phylogenetic","true","experimental"
"","null","html-keyboard-response","209","294700","0.0-11.0-2.39","jTsrEgDTmP","5ddd730ffce606ce31a105d4","6617fad957f7c6a12ea16e26","6622cc85ee910cdaa54dbb9b","
    <div id=""grid-container"">
        <!-- Grid items will be dynamically added here -->
    </div>    ","null","","","","","","","","","","","",""
"","4670","html-keyboard-response","210","299582","0.0-12.0","jTsrEgDTmP","5ddd730ffce606ce31a105d4","6617fad957f7c6a12ea16e26","6622cc85ee910cdaa54dbb9b","break screen"," ","","","","","","","","","","","",""
"","null","html-keyboard-response","211","302086","0.0-13.0-0.0","jTsrEgDTmP","5ddd730ffce606ce31a105d4","6617fad957f7c6a12ea16e26","6622cc85ee910cdaa54dbb9b","fixation cross","null","","","","","","","","","","","",""
"","2286","html-keyboard-response","212","304373","0.0-13.0-1.0","jTsrEgDTmP","5ddd730ffce606ce31a105d4","6617fad957f7c6a12ea16e26","6622cc85ee910cdaa54dbb9b","image grid","p","","","","","Ontogenetic_Distractor_Nonthreat_target","2500","ongrid","p","5","Ontogenetic","true","experimental"
"","null","html-keyboard-response","213","304527","0.0-13.0-2.0","jTsrEgDTmP","5ddd730ffce606ce31a105d4","6617fad957f7c6a12ea16e26","6622cc85ee910cdaa54dbb9b","
    <div id=""grid-container"">
        <!-- Grid items will be dynamically added here -->
    </div>    ","null","","","","","","","","","","","",""
"","null","html-keyboard-response","214","305231","0.0-13.0-0.1","jTsrEgDTmP","5ddd730ffce606ce31a105d4","6617fad957f7c6a12ea16e26","6622cc85ee910cdaa54dbb9b","fixation cross","null","","","","","","","","","","","",""
"","1950","html-keyboard-response","215","307182","0.0-13.0-1.1","jTsrEgDTmP","5ddd730ffce606ce31a105d4","6617fad957f7c6a12ea16e26","6622cc85ee910cdaa54dbb9b","image grid"," ","","","","","Ontogenetic_Distractor_notarget","2500","ongrid"," ","8","Ontogenetic","true","experimental"
"","null","html-keyboard-response","216","307335","0.0-13.0-2.1","jTsrEgDTmP","5ddd730ffce606ce31a105d4","6617fad957f7c6a12ea16e26","6622cc85ee910cdaa54dbb9b","
    <div id=""grid-container"">
        <!-- Grid items will be dynamically added here -->
    </div>    ","null","","","","","","","","","","","",""
"","null","html-keyboard-response","217","308039","0.0-13.0-0.2","jTsrEgDTmP","5ddd730ffce606ce31a105d4","6617fad957f7c6a12ea16e26","6622cc85ee910cdaa54dbb9b","fixation cross","null","","","","","","","","","","","",""
"","1454","html-keyboard-response","218","309495","0.0-13.0-1.2","jTsrEgDTmP","5ddd730ffce606ce31a105d4","6617fad957f7c6a12ea16e26","6622cc85ee910cdaa54dbb9b","image grid","q","","","","","Ontogenetic_Distractor_Threat_target","2500","ongrid","q","8","Ontogenetic","true","experimental"
"","null","html-keyboard-response","219","309648","0.0-13.0-2.2","jTsrEgDTmP","5ddd730ffce606ce31a105d4","6617fad957f7c6a12ea16e26","6622cc85ee910cdaa54dbb9b","
    <div id=""grid-container"">
        <!-- Grid items will be dynamically added here -->
    </div>    ","null","","","","","","","","","","","",""
"","null","html-keyboard-response","220","310352","0.0-13.0-0.3","jTsrEgDTmP","5ddd730ffce606ce31a105d4","6617fad957f7c6a12ea16e26","6622cc85ee910cdaa54dbb9b","fixation cross","null","","","","","","","","","","","",""
"","1472","html-keyboard-response","221","311825","0.0-13.0-1.3","jTsrEgDTmP","5ddd730ffce606ce31a105d4","6617fad957f7c6a12ea16e26","6622cc85ee910cdaa54dbb9b","image grid","q","","","","","Ontogenetic_Distractor_Threat_target","2500","ongrid","q","7","Ontogenetic","true","experimental"
"","null","html-keyboard-response","222","311980","0.0-13.0-2.3","jTsrEgDTmP","5ddd730ffce606ce31a105d4","6617fad957f7c6a12ea16e26","6622cc85ee910cdaa54dbb9b","
    <div id=""grid-container"">
        <!-- Grid items will be dynamically added here -->
    </div>    ","null","","","","","","","","","","","",""
"","null","html-keyboard-response","223","312685","0.0-13.0-0.4","jTsrEgDTmP","5ddd730ffce606ce31a105d4","6617fad957f7c6a12ea16e26","6622cc85ee910cdaa54dbb9b","fixation cross","null","","","","","","","","","","","",""
"","1214","html-keyboard-response","224","313901","0.0-13.0-1.4","jTsrEgDTmP","5ddd730ffce606ce31a105d4","6617fad957f7c6a12ea16e26","6622cc85ee910cdaa54dbb9b","image grid","p","","","","","Ontogenetic_Distractor_Nonthreat_target","2500","ongrid","p","1","Ontogenetic","true","experimental"
"","null","html-keyboard-response","225","314054","0.0-13.0-2.4","jTsrEgDTmP","5ddd730ffce606ce31a105d4","6617fad957f7c6a12ea16e26","6622cc85ee910cdaa54dbb9b","
    <div id=""grid-container"">
        <!-- Grid items will be dynamically added here -->
    </div>    ","null","","","","","","","","","","","",""
"","null","html-keyboard-response","226","314760","0.0-13.0-0.5","jTsrEgDTmP","5ddd730ffce606ce31a105d4","6617fad957f7c6a12ea16e26","6622cc85ee910cdaa54dbb9b","fixation cross","null","","","","","","","","","","","",""
"","2011","html-keyboard-response","227","316771","0.0-13.0-1.5","jTsrEgDTmP","5ddd730ffce606ce31a105d4","6617fad957f7c6a12ea16e26","6622cc85ee910cdaa54dbb9b","image grid","p","","","","","Ontogenetic_Distractor_Nonthreat_target","2500","ongrid","p","3","Ontogenetic","true","experimental"
"","null","html-keyboard-response","228","316926","0.0-13.0-2.5","jTsrEgDTmP","5ddd730ffce606ce31a105d4","6617fad957f7c6a12ea16e26","6622cc85ee910cdaa54dbb9b","
    <div id=""grid-container"">
        <!-- Grid items will be dynamically added here -->
    </div>    ","null","","","","","","","","","","","",""
"","null","html-keyboard-response","229","317633","0.0-13.0-0.6","jTsrEgDTmP","5ddd730ffce606ce31a105d4","6617fad957f7c6a12ea16e26","6622cc85ee910cdaa54dbb9b","fixation cross","null","","","","","","","","","","","",""
"","1448","html-keyboard-response","230","319083","0.0-13.0-1.6","jTsrEgDTmP","5ddd730ffce606ce31a105d4","6617fad957f7c6a12ea16e26","6622cc85ee910cdaa54dbb9b","image grid","q","","","","","Ontogenetic_Distractor_Threat_target","2500","ongrid","q","4","Ontogenetic","true","experimental"
"","null","html-keyboard-response","231","319239","0.0-13.0-2.6","jTsrEgDTmP","5ddd730ffce606ce31a105d4","6617fad957f7c6a12ea16e26","6622cc85ee910cdaa54dbb9b","
    <div id=""grid-container"">
        <!-- Grid items will be dynamically added here -->
    </div>    ","null","","","","","","","","","","","",""
"","null","html-keyboard-response","232","319945","0.0-13.0-0.7","jTsrEgDTmP","5ddd730ffce606ce31a105d4","6617fad957f7c6a12ea16e26","6622cc85ee910cdaa54dbb9b","fixation cross","null","","","","","","","","","","","",""
"","1188","html-keyboard-response","233","321134","0.0-13.0-1.7","jTsrEgDTmP","5ddd730ffce606ce31a105d4","6617fad957f7c6a12ea16e26","6622cc85ee910cdaa54dbb9b","image grid","p","","","","","Ontogenetic_Distractor_Nonthreat_target","2500","ongrid","p","7","Ontogenetic","true","experimental"
"","null","html-keyboard-response","234","321289","0.0-13.0-2.7","jTsrEgDTmP","5ddd730ffce606ce31a105d4","6617fad957f7c6a12ea16e26","6622cc85ee910cdaa54dbb9b","
    <div id=""grid-container"">
        <!-- Grid items will be dynamically added here -->
    </div>    ","null","","","","","","","","","","","",""
"","null","html-keyboard-response","235","321992","0.0-13.0-0.8","jTsrEgDTmP","5ddd730ffce606ce31a105d4","6617fad957f7c6a12ea16e26","6622cc85ee910cdaa54dbb9b","fixation cross","null","","","","","","","","","","","",""
"","1414","html-keyboard-response","236","323407","0.0-13.0-1.8","jTsrEgDTmP","5ddd730ffce606ce31a105d4","6617fad957f7c6a12ea16e26","6622cc85ee910cdaa54dbb9b","image grid","p","","","","","Ontogenetic_Distractor_Nonthreat_target","2500","ongrid","p","6","Ontogenetic","true","experimental"
"","null","html-keyboard-response","237","323561","0.0-13.0-2.8","jTsrEgDTmP","5ddd730ffce606ce31a105d4","6617fad957f7c6a12ea16e26","6622cc85ee910cdaa54dbb9b","
    <div id=""grid-container"">
        <!-- Grid items will be dynamically added here -->
    </div>    ","null","","","","","","","","","","","",""
"","null","html-keyboard-response","238","324265","0.0-13.0-0.9","jTsrEgDTmP","5ddd730ffce606ce31a105d4","6617fad957f7c6a12ea16e26","6622cc85ee910cdaa54dbb9b","fixation cross","null","","","","","","","","","","","",""
"","1742","html-keyboard-response","239","326008","0.0-13.0-1.9","jTsrEgDTmP","5ddd730ffce606ce31a105d4","6617fad957f7c6a12ea16e26","6622cc85ee910cdaa54dbb9b","image grid"," ","","","","","Ontogenetic_Distractor_notarget","2500","ongrid"," ","6","Ontogenetic","true","experimental"
"","null","html-keyboard-response","240","326162","0.0-13.0-2.9","jTsrEgDTmP","5ddd730ffce606ce31a105d4","6617fad957f7c6a12ea16e26","6622cc85ee910cdaa54dbb9b","
    <div id=""grid-container"">
        <!-- Grid items will be dynamically added here -->
    </div>    ","null","","","","","","","","","","","",""
"","null","html-keyboard-response","241","326867","0.0-13.0-0.10","jTsrEgDTmP","5ddd730ffce606ce31a105d4","6617fad957f7c6a12ea16e26","6622cc85ee910cdaa54dbb9b","fixation cross","null","","","","","","","","","","","",""
"","1192","html-keyboard-response","242","328060","0.0-13.0-1.10","jTsrEgDTmP","5ddd730ffce606ce31a105d4","6617fad957f7c6a12ea16e26","6622cc85ee910cdaa54dbb9b","image grid","p","","","","","Ontogenetic_Distractor_Nonthreat_target","2500","ongrid","p","2","Ontogenetic","true","experimental"
"","null","html-keyboard-response","243","328214","0.0-13.0-2.10","jTsrEgDTmP","5ddd730ffce606ce31a105d4","6617fad957f7c6a12ea16e26","6622cc85ee910cdaa54dbb9b","
    <div id=""grid-container"">
        <!-- Grid items will be dynamically added here -->
    </div>    ","null","","","","","","","","","","","",""
"","null","html-keyboard-response","244","328920","0.0-13.0-0.11","jTsrEgDTmP","5ddd730ffce606ce31a105d4","6617fad957f7c6a12ea16e26","6622cc85ee910cdaa54dbb9b","fixation cross","null","","","","","","","","","","","",""
"","1038","html-keyboard-response","245","329959","0.0-13.0-1.11","jTsrEgDTmP","5ddd730ffce606ce31a105d4","6617fad957f7c6a12ea16e26","6622cc85ee910cdaa54dbb9b","image grid","q","","","","","Ontogenetic_Distractor_Threat_target","2500","ongrid","q","2","Ontogenetic","true","experimental"
"","null","html-keyboard-response","246","330113","0.0-13.0-2.11","jTsrEgDTmP","5ddd730ffce606ce31a105d4","6617fad957f7c6a12ea16e26","6622cc85ee910cdaa54dbb9b","
    <div id=""grid-container"">
        <!-- Grid items will be dynamically added here -->
    </div>    ","null","","","","","","","","","","","",""
"","null","html-keyboard-response","247","330819","0.0-13.0-0.12","jTsrEgDTmP","5ddd730ffce606ce31a105d4","6617fad957f7c6a12ea16e26","6622cc85ee910cdaa54dbb9b","fixation cross","null","","","","","","","","","","","",""
"","922","html-keyboard-response","248","331742","0.0-13.0-1.12","jTsrEgDTmP","5ddd730ffce606ce31a105d4","6617fad957f7c6a12ea16e26","6622cc85ee910cdaa54dbb9b","image grid","q","","","","","Ontogenetic_Distractor_Threat_target","2500","ongrid","q","3","Ontogenetic","true","experimental"
"","null","html-keyboard-response","249","331896","0.0-13.0-2.12","jTsrEgDTmP","5ddd730ffce606ce31a105d4","6617fad957f7c6a12ea16e26","6622cc85ee910cdaa54dbb9b","
    <div id=""grid-container"">
        <!-- Grid items will be dynamically added here -->
    </div>    ","null","","","","","","","","","","","",""
"","null","html-keyboard-response","250","332602","0.0-13.0-0.13","jTsrEgDTmP","5ddd730ffce606ce31a105d4","6617fad957f7c6a12ea16e26","6622cc85ee910cdaa54dbb9b","fixation cross","null","","","","","","","","","","","",""
"","1612","html-keyboard-response","251","334215","0.0-13.0-1.13","jTsrEgDTmP","5ddd730ffce606ce31a105d4","6617fad957f7c6a12ea16e26","6622cc85ee910cdaa54dbb9b","image grid","q","","","","","Ontogenetic_Distractor_Threat_target","2500","ongrid","q","9","Ontogenetic","true","experimental"
"","null","html-keyboard-response","252","334369","0.0-13.0-2.13","jTsrEgDTmP","5ddd730ffce606ce31a105d4","6617fad957f7c6a12ea16e26","6622cc85ee910cdaa54dbb9b","
    <div id=""grid-container"">
        <!-- Grid items will be dynamically added here -->
    </div>    ","null","","","","","","","","","","","",""
"","null","html-keyboard-response","253","335073","0.0-13.0-0.14","jTsrEgDTmP","5ddd730ffce606ce31a105d4","6617fad957f7c6a12ea16e26","6622cc85ee910cdaa54dbb9b","fixation cross","null","","","","","","","","","","","",""
"","1184","html-keyboard-response","254","336259","0.0-13.0-1.14","jTsrEgDTmP","5ddd730ffce606ce31a105d4","6617fad957f7c6a12ea16e26","6622cc85ee910cdaa54dbb9b","image grid","q","","","","","Ontogenetic_Distractor_Threat_target","2500","ongrid","q","2","Ontogenetic","true","experimental"
"","null","html-keyboard-response","255","336413","0.0-13.0-2.14","jTsrEgDTmP","5ddd730ffce606ce31a105d4","6617fad957f7c6a12ea16e26","6622cc85ee910cdaa54dbb9b","
    <div id=""grid-container"">
        <!-- Grid items will be dynamically added here -->
    </div>    ","null","","","","","","","","","","","",""
"","null","html-keyboard-response","256","337116","0.0-13.0-0.15","jTsrEgDTmP","5ddd730ffce606ce31a105d4","6617fad957f7c6a12ea16e26","6622cc85ee910cdaa54dbb9b","fixation cross","null","","","","","","","","","","","",""
"","2139","html-keyboard-response","257","339258","0.0-13.0-1.15","jTsrEgDTmP","5ddd730ffce606ce31a105d4","6617fad957f7c6a12ea16e26","6622cc85ee910cdaa54dbb9b","image grid"," ","","","","","Ontogenetic_Distractor_notarget","2500","ongrid"," ","5","Ontogenetic","true","experimental"
"","null","html-keyboard-response","258","339412","0.0-13.0-2.15","jTsrEgDTmP","5ddd730ffce606ce31a105d4","6617fad957f7c6a12ea16e26","6622cc85ee910cdaa54dbb9b","
    <div id=""grid-container"">
        <!-- Grid items will be dynamically added here -->
    </div>    ","null","","","","","","","","","","","",""
"","null","html-keyboard-response","259","340117","0.0-13.0-0.16","jTsrEgDTmP","5ddd730ffce606ce31a105d4","6617fad957f7c6a12ea16e26","6622cc85ee910cdaa54dbb9b","fixation cross","null","","","","","","","","","","","",""
"","1086","html-keyboard-response","260","341204","0.0-13.0-1.16","jTsrEgDTmP","5ddd730ffce606ce31a105d4","6617fad957f7c6a12ea16e26","6622cc85ee910cdaa54dbb9b","image grid","q","","","","","Ontogenetic_Distractor_Threat_target","2500","ongrid","q","4","Ontogenetic","true","experimental"
"","null","html-keyboard-response","261","341358","0.0-13.0-2.16","jTsrEgDTmP","5ddd730ffce606ce31a105d4","6617fad957f7c6a12ea16e26","6622cc85ee910cdaa54dbb9b","
    <div id=""grid-container"">
        <!-- Grid items will be dynamically added here -->
    </div>    ","null","","","","","","","","","","","",""
"","null","html-keyboard-response","262","342065","0.0-13.0-0.17","jTsrEgDTmP","5ddd730ffce606ce31a105d4","6617fad957f7c6a12ea16e26","6622cc85ee910cdaa54dbb9b","fixation cross","null","","","","","","","","","","","",""
"","915","html-keyboard-response","263","342982","0.0-13.0-1.17","jTsrEgDTmP","5ddd730ffce606ce31a105d4","6617fad957f7c6a12ea16e26","6622cc85ee910cdaa54dbb9b","image grid","p","","","","","Ontogenetic_Distractor_Nonthreat_target","2500","ongrid","p","7","Ontogenetic","true","experimental"
"","null","html-keyboard-response","264","343138","0.0-13.0-2.17","jTsrEgDTmP","5ddd730ffce606ce31a105d4","6617fad957f7c6a12ea16e26","6622cc85ee910cdaa54dbb9b","
    <div id=""grid-container"">
        <!-- Grid items will be dynamically added here -->
    </div>    ","null","","","","","","","","","","","",""
"","null","html-keyboard-response","265","343843","0.0-13.0-0.18","jTsrEgDTmP","5ddd730ffce606ce31a105d4","6617fad957f7c6a12ea16e26","6622cc85ee910cdaa54dbb9b","fixation cross","null","","","","","","","","","","","",""
"","1039","html-keyboard-response","266","344884","0.0-13.0-1.18","jTsrEgDTmP","5ddd730ffce606ce31a105d4","6617fad957f7c6a12ea16e26","6622cc85ee910cdaa54dbb9b","image grid","p","","","","","Ontogenetic_Distractor_Nonthreat_target","2500","ongrid","p","1","Ontogenetic","true","experimental"
"","null","html-keyboard-response","267","345039","0.0-13.0-2.18","jTsrEgDTmP","5ddd730ffce606ce31a105d4","6617fad957f7c6a12ea16e26","6622cc85ee910cdaa54dbb9b","
    <div id=""grid-container"">
        <!-- Grid items will be dynamically added here -->
    </div>    ","null","","","","","","","","","","","",""
"","null","html-keyboard-response","268","345743","0.0-13.0-0.19","jTsrEgDTmP","5ddd730ffce606ce31a105d4","6617fad957f7c6a12ea16e26","6622cc85ee910cdaa54dbb9b","fixation cross","null","","","","","","","","","","","",""
"","1005","html-keyboard-response","269","346750","0.0-13.0-1.19","jTsrEgDTmP","5ddd730ffce606ce31a105d4","6617fad957f7c6a12ea16e26","6622cc85ee910cdaa54dbb9b","image grid","p","","","","","Ontogenetic_Distractor_Nonthreat_target","2500","ongrid","p","8","Ontogenetic","true","experimental"
"","null","html-keyboard-response","270","346906","0.0-13.0-2.19","jTsrEgDTmP","5ddd730ffce606ce31a105d4","6617fad957f7c6a12ea16e26","6622cc85ee910cdaa54dbb9b","
    <div id=""grid-container"">
        <!-- Grid items will be dynamically added here -->
    </div>    ","null","","","","","","","","","","","",""
"","null","html-keyboard-response","271","347611","0.0-13.0-0.20","jTsrEgDTmP","5ddd730ffce606ce31a105d4","6617fad957f7c6a12ea16e26","6622cc85ee910cdaa54dbb9b","fixation cross","null","","","","","","","","","","","",""
"","2288","html-keyboard-response","272","349901","0.0-13.0-1.20","jTsrEgDTmP","5ddd730ffce606ce31a105d4","6617fad957f7c6a12ea16e26","6622cc85ee910cdaa54dbb9b","image grid","p","","","","","Ontogenetic_Distractor_Nonthreat_target","2500","ongrid","p","6","Ontogenetic","true","experimental"
"","null","html-keyboard-response","273","350055","0.0-13.0-2.20","jTsrEgDTmP","5ddd730ffce606ce31a105d4","6617fad957f7c6a12ea16e26","6622cc85ee910cdaa54dbb9b","
    <div id=""grid-container"">
        <!-- Grid items will be dynamically added here -->
    </div>    ","null","","","","","","","","","","","",""
"","null","html-keyboard-response","274","350759","0.0-13.0-0.21","jTsrEgDTmP","5ddd730ffce606ce31a105d4","6617fad957f7c6a12ea16e26","6622cc85ee910cdaa54dbb9b","fixation cross","null","","","","","","","","","","","",""
"","993","html-keyboard-response","275","351753","0.0-13.0-1.21","jTsrEgDTmP","5ddd730ffce606ce31a105d4","6617fad957f7c6a12ea16e26","6622cc85ee910cdaa54dbb9b","image grid","p","","","","","Ontogenetic_Distractor_Nonthreat_target","2500","ongrid","p","7","Ontogenetic","true","experimental"
"","null","html-keyboard-response","276","351908","0.0-13.0-2.21","jTsrEgDTmP","5ddd730ffce606ce31a105d4","6617fad957f7c6a12ea16e26","6622cc85ee910cdaa54dbb9b","
    <div id=""grid-container"">
        <!-- Grid items will be dynamically added here -->
    </div>    ","null","","","","","","","","","","","",""
"","null","html-keyboard-response","277","352612","0.0-13.0-0.22","jTsrEgDTmP","5ddd730ffce606ce31a105d4","6617fad957f7c6a12ea16e26","6622cc85ee910cdaa54dbb9b","fixation cross","null","","","","","","","","","","","",""
"","1357","html-keyboard-response","278","353970","0.0-13.0-1.22","jTsrEgDTmP","5ddd730ffce606ce31a105d4","6617fad957f7c6a12ea16e26","6622cc85ee910cdaa54dbb9b","image grid","p","","","","","Ontogenetic_Distractor_Nonthreat_target","2500","ongrid","p","9","Ontogenetic","true","experimental"
"","null","html-keyboard-response","279","354125","0.0-13.0-2.22","jTsrEgDTmP","5ddd730ffce606ce31a105d4","6617fad957f7c6a12ea16e26","6622cc85ee910cdaa54dbb9b","
    <div id=""grid-container"">
        <!-- Grid items will be dynamically added here -->
    </div>    ","null","","","","","","","","","","","",""
"","null","html-keyboard-response","280","354829","0.0-13.0-0.23","jTsrEgDTmP","5ddd730ffce606ce31a105d4","6617fad957f7c6a12ea16e26","6622cc85ee910cdaa54dbb9b","fixation cross","null","","","","","","","","","","","",""
"","2434","html-keyboard-response","281","357265","0.0-13.0-1.23","jTsrEgDTmP","5ddd730ffce606ce31a105d4","6617fad957f7c6a12ea16e26","6622cc85ee910cdaa54dbb9b","image grid"," ","","","","","Ontogenetic_Distractor_notarget","2500","ongrid"," ","1","Ontogenetic","true","experimental"
"","null","html-keyboard-response","282","357418","0.0-13.0-2.23","jTsrEgDTmP","5ddd730ffce606ce31a105d4","6617fad957f7c6a12ea16e26","6622cc85ee910cdaa54dbb9b","
    <div id=""grid-container"">
        <!-- Grid items will be dynamically added here -->
    </div>    ","null","","","","","","","","","","","",""
"","null","html-keyboard-response","283","358124","0.0-13.0-0.24","jTsrEgDTmP","5ddd730ffce606ce31a105d4","6617fad957f7c6a12ea16e26","6622cc85ee910cdaa54dbb9b","fixation cross","null","","","","","","","","","","","",""
"","1216","html-keyboard-response","284","359342","0.0-13.0-1.24","jTsrEgDTmP","5ddd730ffce606ce31a105d4","6617fad957f7c6a12ea16e26","6622cc85ee910cdaa54dbb9b","image grid","p","","","","","Ontogenetic_Distractor_Nonthreat_target","2500","ongrid","p","2","Ontogenetic","true","experimental"
"","null","html-keyboard-response","285","359496","0.0-13.0-2.24","jTsrEgDTmP","5ddd730ffce606ce31a105d4","6617fad957f7c6a12ea16e26","6622cc85ee910cdaa54dbb9b","
    <div id=""grid-container"">
        <!-- Grid items will be dynamically added here -->
    </div>    ","null","","","","","","","","","","","",""
"","null","html-keyboard-response","286","360200","0.0-13.0-0.25","jTsrEgDTmP","5ddd730ffce606ce31a105d4","6617fad957f7c6a12ea16e26","6622cc85ee910cdaa54dbb9b","fixation cross","null","","","","","","","","","","","",""
"","1188","html-keyboard-response","287","361390","0.0-13.0-1.25","jTsrEgDTmP","5ddd730ffce606ce31a105d4","6617fad957f7c6a12ea16e26","6622cc85ee910cdaa54dbb9b","image grid","p","","","","","Ontogenetic_Distractor_Nonthreat_target","2500","ongrid","p","4","Ontogenetic","true","experimental"
"","null","html-keyboard-response","288","361547","0.0-13.0-2.25","jTsrEgDTmP","5ddd730ffce606ce31a105d4","6617fad957f7c6a12ea16e26","6622cc85ee910cdaa54dbb9b","
    <div id=""grid-container"">
        <!-- Grid items will be dynamically added here -->
    </div>    ","null","","","","","","","","","","","",""
"","null","html-keyboard-response","289","362252","0.0-13.0-0.26","jTsrEgDTmP","5ddd730ffce606ce31a105d4","6617fad957f7c6a12ea16e26","6622cc85ee910cdaa54dbb9b","fixation cross","null","","","","","","","","","","","",""
"","1138","html-keyboard-response","290","363392","0.0-13.0-1.26","jTsrEgDTmP","5ddd730ffce606ce31a105d4","6617fad957f7c6a12ea16e26","6622cc85ee910cdaa54dbb9b","image grid","q","","","","","Ontogenetic_Distractor_Threat_target","2500","ongrid","q","4","Ontogenetic","true","experimental"
"","null","html-keyboard-response","291","363546","0.0-13.0-2.26","jTsrEgDTmP","5ddd730ffce606ce31a105d4","6617fad957f7c6a12ea16e26","6622cc85ee910cdaa54dbb9b","
    <div id=""grid-container"">
        <!-- Grid items will be dynamically added here -->
    </div>    ","null","","","","","","","","","","","",""
"","null","html-keyboard-response","292","364250","0.0-13.0-0.27","jTsrEgDTmP","5ddd730ffce606ce31a105d4","6617fad957f7c6a12ea16e26","6622cc85ee910cdaa54dbb9b","fixation cross","null","","","","","","","","","","","",""
"","1425","html-keyboard-response","293","365677","0.0-13.0-1.27","jTsrEgDTmP","5ddd730ffce606ce31a105d4","6617fad957f7c6a12ea16e26","6622cc85ee910cdaa54dbb9b","image grid","p","","","","","Ontogenetic_Distractor_Nonthreat_target","2500","ongrid","p","5","Ontogenetic","true","experimental"
"","null","html-keyboard-response","294","365831","0.0-13.0-2.27","jTsrEgDTmP","5ddd730ffce606ce31a105d4","6617fad957f7c6a12ea16e26","6622cc85ee910cdaa54dbb9b","
    <div id=""grid-container"">
        <!-- Grid items will be dynamically added here -->
    </div>    ","null","","","","","","","","","","","",""
"","null","html-keyboard-response","295","366535","0.0-13.0-0.28","jTsrEgDTmP","5ddd730ffce606ce31a105d4","6617fad957f7c6a12ea16e26","6622cc85ee910cdaa54dbb9b","fixation cross","null","","","","","","","","","","","",""
"","1068","html-keyboard-response","296","367604","0.0-13.0-1.28","jTsrEgDTmP","5ddd730ffce606ce31a105d4","6617fad957f7c6a12ea16e26","6622cc85ee910cdaa54dbb9b","image grid","p","","","","","Ontogenetic_Distractor_Nonthreat_target","2500","ongrid","p","3","Ontogenetic","true","experimental"
"","null","html-keyboard-response","297","367759","0.0-13.0-2.28","jTsrEgDTmP","5ddd730ffce606ce31a105d4","6617fad957f7c6a12ea16e26","6622cc85ee910cdaa54dbb9b","
    <div id=""grid-container"">
        <!-- Grid items will be dynamically added here -->
    </div>    ","null","","","","","","","","","","","",""
"","null","html-keyboard-response","298","368462","0.0-13.0-0.29","jTsrEgDTmP","5ddd730ffce606ce31a105d4","6617fad957f7c6a12ea16e26","6622cc85ee910cdaa54dbb9b","fixation cross","null","","","","","","","","","","","",""
"","1085","html-keyboard-response","299","369549","0.0-13.0-1.29","jTsrEgDTmP","5ddd730ffce606ce31a105d4","6617fad957f7c6a12ea16e26","6622cc85ee910cdaa54dbb9b","image grid","q","","","","","Ontogenetic_Distractor_Threat_target","2500","ongrid","q","1","Ontogenetic","true","experimental"
"","null","html-keyboard-response","300","369703","0.0-13.0-2.29","jTsrEgDTmP","5ddd730ffce606ce31a105d4","6617fad957f7c6a12ea16e26","6622cc85ee910cdaa54dbb9b","
    <div id=""grid-container"">
        <!-- Grid items will be dynamically added here -->
    </div>    ","null","","","","","","","","","","","",""
"","null","html-keyboard-response","301","370407","0.0-13.0-0.30","jTsrEgDTmP","5ddd730ffce606ce31a105d4","6617fad957f7c6a12ea16e26","6622cc85ee910cdaa54dbb9b","fixation cross","null","","","","","","","","","","","",""
"","1146","html-keyboard-response","302","371555","0.0-13.0-1.30","jTsrEgDTmP","5ddd730ffce606ce31a105d4","6617fad957f7c6a12ea16e26","6622cc85ee910cdaa54dbb9b","image grid","q","","","","","Ontogenetic_Distractor_Threat_target","2500","ongrid","q","4","Ontogenetic","true","experimental"
"","null","html-keyboard-response","303","371708","0.0-13.0-2.30","jTsrEgDTmP","5ddd730ffce606ce31a105d4","6617fad957f7c6a12ea16e26","6622cc85ee910cdaa54dbb9b","
    <div id=""grid-container"">
        <!-- Grid items will be dynamically added here -->
    </div>    ","null","","","","","","","","","","","",""
"","null","html-keyboard-response","304","372412","0.0-13.0-0.31","jTsrEgDTmP","5ddd730ffce606ce31a105d4","6617fad957f7c6a12ea16e26","6622cc85ee910cdaa54dbb9b","fixation cross","null","","","","","","","","","","","",""
"","872","html-keyboard-response","305","373285","0.0-13.0-1.31","jTsrEgDTmP","5ddd730ffce606ce31a105d4","6617fad957f7c6a12ea16e26","6622cc85ee910cdaa54dbb9b","image grid","q","","","","","Ontogenetic_Distractor_Threat_target","2500","ongrid","q","2","Ontogenetic","true","experimental"
"","null","html-keyboard-response","306","373439","0.0-13.0-2.31","jTsrEgDTmP","5ddd730ffce606ce31a105d4","6617fad957f7c6a12ea16e26","6622cc85ee910cdaa54dbb9b","
    <div id=""grid-container"">
        <!-- Grid items will be dynamically added here -->
    </div>    ","null","","","","","","","","","","","",""
"","null","html-keyboard-response","307","374146","0.0-13.0-0.32","jTsrEgDTmP","5ddd730ffce606ce31a105d4","6617fad957f7c6a12ea16e26","6622cc85ee910cdaa54dbb9b","fixation cross","null","","","","","","","","","","","",""
"","836","html-keyboard-response","308","374984","0.0-13.0-1.32","jTsrEgDTmP","5ddd730ffce606ce31a105d4","6617fad957f7c6a12ea16e26","6622cc85ee910cdaa54dbb9b","image grid","q","","","","","Ontogenetic_Distractor_Threat_target","2500","ongrid","q","4","Ontogenetic","true","experimental"
"","null","html-keyboard-response","309","375139","0.0-13.0-2.32","jTsrEgDTmP","5ddd730ffce606ce31a105d4","6617fad957f7c6a12ea16e26","6622cc85ee910cdaa54dbb9b","
    <div id=""grid-container"">
        <!-- Grid items will be dynamically added here -->
    </div>    ","null","","","","","","","","","","","",""
"","null","html-keyboard-response","310","375842","0.0-13.0-0.33","jTsrEgDTmP","5ddd730ffce606ce31a105d4","6617fad957f7c6a12ea16e26","6622cc85ee910cdaa54dbb9b","fixation cross","null","","","","","","","","","","","",""
"","1420","html-keyboard-response","311","377263","0.0-13.0-1.33","jTsrEgDTmP","5ddd730ffce606ce31a105d4","6617fad957f7c6a12ea16e26","6622cc85ee910cdaa54dbb9b","image grid","q","","","","","Ontogenetic_Distractor_Threat_target","2500","ongrid","q","6","Ontogenetic","true","experimental"
"","null","html-keyboard-response","312","377416","0.0-13.0-2.33","jTsrEgDTmP","5ddd730ffce606ce31a105d4","6617fad957f7c6a12ea16e26","6622cc85ee910cdaa54dbb9b","
    <div id=""grid-container"">
        <!-- Grid items will be dynamically added here -->
    </div>    ","null","","","","","","","","","","","",""
"","null","html-keyboard-response","313","378120","0.0-13.0-0.34","jTsrEgDTmP","5ddd730ffce606ce31a105d4","6617fad957f7c6a12ea16e26","6622cc85ee910cdaa54dbb9b","fixation cross","null","","","","","","","","","","","",""
"","877","html-keyboard-response","314","378998","0.0-13.0-1.34","jTsrEgDTmP","5ddd730ffce606ce31a105d4","6617fad957f7c6a12ea16e26","6622cc85ee910cdaa54dbb9b","image grid","q","","","","","Ontogenetic_Distractor_Threat_target","2500","ongrid","q","8","Ontogenetic","true","experimental"
"","null","html-keyboard-response","315","379152","0.0-13.0-2.34","jTsrEgDTmP","5ddd730ffce606ce31a105d4","6617fad957f7c6a12ea16e26","6622cc85ee910cdaa54dbb9b","
    <div id=""grid-container"">
        <!-- Grid items will be dynamically added here -->
    </div>    ","null","","","","","","","","","","","",""
"","null","html-keyboard-response","316","379857","0.0-13.0-0.35","jTsrEgDTmP","5ddd730ffce606ce31a105d4","6617fad957f7c6a12ea16e26","6622cc85ee910cdaa54dbb9b","fixation cross","null","","","","","","","","","","","",""
"","963","html-keyboard-response","317","380821","0.0-13.0-1.35","jTsrEgDTmP","5ddd730ffce606ce31a105d4","6617fad957f7c6a12ea16e26","6622cc85ee910cdaa54dbb9b","image grid","q","","","","","Ontogenetic_Distractor_Threat_target","2500","ongrid","q","1","Ontogenetic","true","experimental"
"","null","html-keyboard-response","318","380975","0.0-13.0-2.35","jTsrEgDTmP","5ddd730ffce606ce31a105d4","6617fad957f7c6a12ea16e26","6622cc85ee910cdaa54dbb9b","
    <div id=""grid-container"">
        <!-- Grid items will be dynamically added here -->
    </div>    ","null","","","","","","","","","","","",""
"","null","html-keyboard-response","319","381678","0.0-13.0-0.36","jTsrEgDTmP","5ddd730ffce606ce31a105d4","6617fad957f7c6a12ea16e26","6622cc85ee910cdaa54dbb9b","fixation cross","null","","","","","","","","","","","",""
"","895","html-keyboard-response","320","382576","0.0-13.0-1.36","jTsrEgDTmP","5ddd730ffce606ce31a105d4","6617fad957f7c6a12ea16e26","6622cc85ee910cdaa54dbb9b","image grid","q","","","","","Ontogenetic_Distractor_Threat_target","2500","ongrid","q","6","Ontogenetic","true","experimental"
"","null","html-keyboard-response","321","382730","0.0-13.0-2.36","jTsrEgDTmP","5ddd730ffce606ce31a105d4","6617fad957f7c6a12ea16e26","6622cc85ee910cdaa54dbb9b","
    <div id=""grid-container"">
        <!-- Grid items will be dynamically added here -->
    </div>    ","null","","","","","","","","","","","",""
"","null","html-keyboard-response","322","383434","0.0-13.0-0.37","jTsrEgDTmP","5ddd730ffce606ce31a105d4","6617fad957f7c6a12ea16e26","6622cc85ee910cdaa54dbb9b","fixation cross","null","","","","","","","","","","","",""
"","1671","html-keyboard-response","323","385108","0.0-13.0-1.37","jTsrEgDTmP","5ddd730ffce606ce31a105d4","6617fad957f7c6a12ea16e26","6622cc85ee910cdaa54dbb9b","image grid","p","","","","","Ontogenetic_Distractor_Nonthreat_target","2500","ongrid","p","6","Ontogenetic","true","experimental"
"","null","html-keyboard-response","324","385262","0.0-13.0-2.37","jTsrEgDTmP","5ddd730ffce606ce31a105d4","6617fad957f7c6a12ea16e26","6622cc85ee910cdaa54dbb9b","
    <div id=""grid-container"">
        <!-- Grid items will be dynamically added here -->
    </div>    ","null","","","","","","","","","","","",""
"","null","html-keyboard-response","325","385966","0.0-13.0-0.38","jTsrEgDTmP","5ddd730ffce606ce31a105d4","6617fad957f7c6a12ea16e26","6622cc85ee910cdaa54dbb9b","fixation cross","null","","","","","","","","","","","",""
"","2036","html-keyboard-response","326","388003","0.0-13.0-1.38","jTsrEgDTmP","5ddd730ffce606ce31a105d4","6617fad957f7c6a12ea16e26","6622cc85ee910cdaa54dbb9b","image grid","q","","","","","Ontogenetic_Distractor_Threat_target","2500","ongrid","q","1","Ontogenetic","true","experimental"
"","null","html-keyboard-response","327","388157","0.0-13.0-2.38","jTsrEgDTmP","5ddd730ffce606ce31a105d4","6617fad957f7c6a12ea16e26","6622cc85ee910cdaa54dbb9b","
    <div id=""grid-container"">
        <!-- Grid items will be dynamically added here -->
    </div>    ","null","","","","","","","","","","","",""
"","null","html-keyboard-response","328","388860","0.0-13.0-0.39","jTsrEgDTmP","5ddd730ffce606ce31a105d4","6617fad957f7c6a12ea16e26","6622cc85ee910cdaa54dbb9b","fixation cross","null","","","","","","","","","","","",""
"","1340","html-keyboard-response","329","390201","0.0-13.0-1.39","jTsrEgDTmP","5ddd730ffce606ce31a105d4","6617fad957f7c6a12ea16e26","6622cc85ee910cdaa54dbb9b","image grid","p","","","","","Ontogenetic_Distractor_Nonthreat_target","2500","ongrid","p","9","Ontogenetic","true","experimental"
"","null","html-keyboard-response","330","390360","0.0-13.0-2.39","jTsrEgDTmP","5ddd730ffce606ce31a105d4","6617fad957f7c6a12ea16e26","6622cc85ee910cdaa54dbb9b","
    <div id=""grid-container"">
        <!-- Grid items will be dynamically added here -->
    </div>    ","null","","","","","","","","","","","",""
"","13162","html-keyboard-response","331","403727","0.0-14.0","jTsrEgDTmP","5ddd730ffce606ce31a105d4","6617fad957f7c6a12ea16e26","6622cc85ee910cdaa54dbb9b","break screen"," ","","","","","","","","","","","",""
"","null","html-keyboard-response","332","406231","0.0-15.0-0.0","jTsrEgDTmP","5ddd730ffce606ce31a105d4","6617fad957f7c6a12ea16e26","6622cc85ee910cdaa54dbb9b","fixation cross","null","","","","","","","","","","","",""
"","null","html-keyboard-response","333","407036","0.0-15.0-1.0","jTsrEgDTmP","5ddd730ffce606ce31a105d4","6617fad957f7c6a12ea16e26","6622cc85ee910cdaa54dbb9b","
        <div id=""grid-container"">
        <!-- Grid items will be dynamically added here -->
    </div>    ","null","","","","","","","","","","","",""
"","1319","html-keyboard-response","334","407556","0.0-15.0-2.0","jTsrEgDTmP","5ddd730ffce606ce31a105d4","6617fad957f7c6a12ea16e26","6622cc85ee910cdaa54dbb9b","mask grid","q","","","","","Phylogenetic_Distractor_Threat_target","800","onmask","q","3","Phylogenetic","true","experimental"
"","null","html-keyboard-response","335","408261","0.0-15.0-0.1","jTsrEgDTmP","5ddd730ffce606ce31a105d4","6617fad957f7c6a12ea16e26","6622cc85ee910cdaa54dbb9b","fixation cross","null","","","","","","","","","","","",""
"","783","html-keyboard-response","336","409046","0.0-15.0-1.1","jTsrEgDTmP","5ddd730ffce606ce31a105d4","6617fad957f7c6a12ea16e26","6622cc85ee910cdaa54dbb9b","image grid","q","","","","","Phylogenetic_Distractor_Threat_target","800","ongrid","q","9","Phylogenetic","true","experimental"
"","null","html-keyboard-response","337","409200","0.0-15.0-2.1","jTsrEgDTmP","5ddd730ffce606ce31a105d4","6617fad957f7c6a12ea16e26","6622cc85ee910cdaa54dbb9b","
    <div id=""grid-container"">
        <!-- Grid items will be dynamically added here -->
    </div>    ","null","","","","","","","","","","","",""
"","null","html-keyboard-response","338","409905","0.0-15.0-0.2","jTsrEgDTmP","5ddd730ffce606ce31a105d4","6617fad957f7c6a12ea16e26","6622cc85ee910cdaa54dbb9b","fixation cross","null","","","","","","","","","","","",""
"","663","html-keyboard-response","339","410569","0.0-15.0-1.2","jTsrEgDTmP","5ddd730ffce606ce31a105d4","6617fad957f7c6a12ea16e26","6622cc85ee910cdaa54dbb9b","image grid","q","","","","","Phylogenetic_Distractor_Threat_target","800","ongrid","q","8","Phylogenetic","true","experimental"
"","null","html-keyboard-response","340","410723","0.0-15.0-2.2","jTsrEgDTmP","5ddd730ffce606ce31a105d4","6617fad957f7c6a12ea16e26","6622cc85ee910cdaa54dbb9b","
    <div id=""grid-container"">
        <!-- Grid items will be dynamically added here -->
    </div>    ","null","","","","","","","","","","","",""
"","null","html-keyboard-response","341","411430","0.0-15.0-0.3","jTsrEgDTmP","5ddd730ffce606ce31a105d4","6617fad957f7c6a12ea16e26","6622cc85ee910cdaa54dbb9b","fixation cross","null","","","","","","","","","","","",""
"","null","html-keyboard-response","342","412233","0.0-15.0-1.3","jTsrEgDTmP","5ddd730ffce606ce31a105d4","6617fad957f7c6a12ea16e26","6622cc85ee910cdaa54dbb9b","
        <div id=""grid-container"">
        <!-- Grid items will be dynamically added here -->
    </div>    ","null","","","","","","","","","","","",""
"","1192","html-keyboard-response","343","412626","0.0-15.0-2.3","jTsrEgDTmP","5ddd730ffce606ce31a105d4","6617fad957f7c6a12ea16e26","6622cc85ee910cdaa54dbb9b","mask grid","p","","","","","Phylogenetic_Distractor_Nonthreat_target","800","onmask","p","2","Phylogenetic","true","experimental"
"","null","html-keyboard-response","344","413333","0.0-15.0-0.4","jTsrEgDTmP","5ddd730ffce606ce31a105d4","6617fad957f7c6a12ea16e26","6622cc85ee910cdaa54dbb9b","fixation cross","null","","","","","","","","","","","",""
"","null","html-keyboard-response","345","414135","0.0-15.0-1.4","jTsrEgDTmP","5ddd730ffce606ce31a105d4","6617fad957f7c6a12ea16e26","6622cc85ee910cdaa54dbb9b","
        <div id=""grid-container"">
        <!-- Grid items will be dynamically added here -->
    </div>    ","null","","","","","","","","","","","",""
"","881","html-keyboard-response","346","414218","0.0-15.0-2.4","jTsrEgDTmP","5ddd730ffce606ce31a105d4","6617fad957f7c6a12ea16e26","6622cc85ee910cdaa54dbb9b","mask grid","p","","","","","Phylogenetic_Distractor_Nonthreat_target","800","onmask","p","4","Phylogenetic","true","experimental"
"","null","html-keyboard-response","347","414922","0.0-15.0-0.5","jTsrEgDTmP","5ddd730ffce606ce31a105d4","6617fad957f7c6a12ea16e26","6622cc85ee910cdaa54dbb9b","fixation cross","null","","","","","","","","","","","",""
"","null","html-keyboard-response","348","415727","0.0-15.0-1.5","jTsrEgDTmP","5ddd730ffce606ce31a105d4","6617fad957f7c6a12ea16e26","6622cc85ee910cdaa54dbb9b","
        <div id=""grid-container"">
        <!-- Grid items will be dynamically added here -->
    </div>    ","null","","","","","","","","","","","",""
"","963","html-keyboard-response","349","415893","0.0-15.0-2.5","jTsrEgDTmP","5ddd730ffce606ce31a105d4","6617fad957f7c6a12ea16e26","6622cc85ee910cdaa54dbb9b","mask grid","p","","","","","Phylogenetic_Distractor_Nonthreat_target","800","onmask","p","6","Phylogenetic","true","experimental"
"","null","html-keyboard-response","350","416604","0.0-15.0-0.6","jTsrEgDTmP","5ddd730ffce606ce31a105d4","6617fad957f7c6a12ea16e26","6622cc85ee910cdaa54dbb9b","fixation cross","null","","","","","","","","","","","",""
"","null","html-keyboard-response","351","417407","0.0-15.0-1.6","jTsrEgDTmP","5ddd730ffce606ce31a105d4","6617fad957f7c6a12ea16e26","6622cc85ee910cdaa54dbb9b","
        <div id=""grid-container"">
        <!-- Grid items will be dynamically added here -->
    </div>    ","null","","","","","","","","","","","",""
"","992","html-keyboard-response","352","417601","0.0-15.0-2.6","jTsrEgDTmP","5ddd730ffce606ce31a105d4","6617fad957f7c6a12ea16e26","6622cc85ee910cdaa54dbb9b","mask grid"," ","","","","","Phylogenetic_Distractor_notarget","800","onmask"," ","8","Phylogenetic","true","experimental"
"","null","html-keyboard-response","353","418308","0.0-15.0-0.7","jTsrEgDTmP","5ddd730ffce606ce31a105d4","6617fad957f7c6a12ea16e26","6622cc85ee910cdaa54dbb9b","fixation cross","null","","","","","","","","","","","",""
"","745","html-keyboard-response","354","419055","0.0-15.0-1.7","jTsrEgDTmP","5ddd730ffce606ce31a105d4","6617fad957f7c6a12ea16e26","6622cc85ee910cdaa54dbb9b","image grid","q","","","","","Phylogenetic_Distractor_Nonthreat_target","800","ongrid","p","4","Phylogenetic","false","experimental"
"","null","html-keyboard-response","355","419209","0.0-15.0-2.7","jTsrEgDTmP","5ddd730ffce606ce31a105d4","6617fad957f7c6a12ea16e26","6622cc85ee910cdaa54dbb9b","
    <div id=""grid-container"">
        <!-- Grid items will be dynamically added here -->
    </div>    ","null","","","","","","","","","","","",""
"","null","html-keyboard-response","356","419917","0.0-15.0-0.8","jTsrEgDTmP","5ddd730ffce606ce31a105d4","6617fad957f7c6a12ea16e26","6622cc85ee910cdaa54dbb9b","fixation cross","null","","","","","","","","","","","",""
"","618","html-keyboard-response","357","420536","0.0-15.0-1.8","jTsrEgDTmP","5ddd730ffce606ce31a105d4","6617fad957f7c6a12ea16e26","6622cc85ee910cdaa54dbb9b","image grid","q","","","","","Phylogenetic_Distractor_Threat_target","800","ongrid","q","5","Phylogenetic","true","experimental"
"","null","html-keyboard-response","358","420690","0.0-15.0-2.8","jTsrEgDTmP","5ddd730ffce606ce31a105d4","6617fad957f7c6a12ea16e26","6622cc85ee910cdaa54dbb9b","
    <div id=""grid-container"">
        <!-- Grid items will be dynamically added here -->
    </div>    ","null","","","","","","","","","","","",""
"","null","html-keyboard-response","359","421395","0.0-15.0-0.9","jTsrEgDTmP","5ddd730ffce606ce31a105d4","6617fad957f7c6a12ea16e26","6622cc85ee910cdaa54dbb9b","fixation cross","null","","","","","","","","","","","",""
"","650","html-keyboard-response","360","422046","0.0-15.0-1.9","jTsrEgDTmP","5ddd730ffce606ce31a105d4","6617fad957f7c6a12ea16e26","6622cc85ee910cdaa54dbb9b","image grid","q","","","","","Phylogenetic_Distractor_Threat_target","800","ongrid","q","9","Phylogenetic","true","experimental"
"","null","html-keyboard-response","361","422200","0.0-15.0-2.9","jTsrEgDTmP","5ddd730ffce606ce31a105d4","6617fad957f7c6a12ea16e26","6622cc85ee910cdaa54dbb9b","
    <div id=""grid-container"">
        <!-- Grid items will be dynamically added here -->
    </div>    ","null","","","","","","","","","","","",""
"","null","html-keyboard-response","362","422906","0.0-15.0-0.10","jTsrEgDTmP","5ddd730ffce606ce31a105d4","6617fad957f7c6a12ea16e26","6622cc85ee910cdaa54dbb9b","fixation cross","null","","","","","","","","","","","",""
"","598","html-keyboard-response","363","423505","0.0-15.0-1.10","jTsrEgDTmP","5ddd730ffce606ce31a105d4","6617fad957f7c6a12ea16e26","6622cc85ee910cdaa54dbb9b","image grid","q","","","","","Phylogenetic_Distractor_Threat_target","800","ongrid","q","5","Phylogenetic","true","experimental"
"","null","html-keyboard-response","364","423659","0.0-15.0-2.10","jTsrEgDTmP","5ddd730ffce606ce31a105d4","6617fad957f7c6a12ea16e26","6622cc85ee910cdaa54dbb9b","
    <div id=""grid-container"">
        <!-- Grid items will be dynamically added here -->
    </div>    ","null","","","","","","","","","","","",""
"","null","html-keyboard-response","365","424363","0.0-15.0-0.11","jTsrEgDTmP","5ddd730ffce606ce31a105d4","6617fad957f7c6a12ea16e26","6622cc85ee910cdaa54dbb9b","fixation cross","null","","","","","","","","","","","",""
"","619","html-keyboard-response","366","424983","0.0-15.0-1.11","jTsrEgDTmP","5ddd730ffce606ce31a105d4","6617fad957f7c6a12ea16e26","6622cc85ee910cdaa54dbb9b","image grid","q","","","","","Phylogenetic_Distractor_Threat_target","800","ongrid","q","8","Phylogenetic","true","experimental"
"","null","html-keyboard-response","367","425137","0.0-15.0-2.11","jTsrEgDTmP","5ddd730ffce606ce31a105d4","6617fad957f7c6a12ea16e26","6622cc85ee910cdaa54dbb9b","
    <div id=""grid-container"">
        <!-- Grid items will be dynamically added here -->
    </div>    ","null","","","","","","","","","","","",""
"","null","html-keyboard-response","368","425843","0.0-15.0-0.12","jTsrEgDTmP","5ddd730ffce606ce31a105d4","6617fad957f7c6a12ea16e26","6622cc85ee910cdaa54dbb9b","fixation cross","null","","","","","","","","","","","",""
"","null","html-keyboard-response","369","426645","0.0-15.0-1.12","jTsrEgDTmP","5ddd730ffce606ce31a105d4","6617fad957f7c6a12ea16e26","6622cc85ee910cdaa54dbb9b","
        <div id=""grid-container"">
        <!-- Grid items will be dynamically added here -->
    </div>    ","null","","","","","","","","","","","",""
