"success","rt","trial_type","trial_index","time_elapsed","internal_node_id","unique_identifier","subject_id","study_id","session_id","stimulus","response","timeout","failed_images","failed_audio","failed_video","task","time_manipulation","respondedwhen","correctresponse","targetimagelocation","blocktype","correct","roundtype"
"true","2040","fullscreen","0","3055","0.0-0.0","NVEfr0BLDs","5a3d4ffddaea400001ac15af","6617fad957f7c6a12ea16e26","6622cfea0e646e9171dce3c0","","","","","","","","","","","","","",""
"","9175","html-keyboard-response","1","12232","0.0-1.0","NVEfr0BLDs","5a3d4ffddaea400001ac15af","6617fad957f7c6a12ea16e26","6622cfea0e646e9171dce3c0","instruction screen 0"," ","","","","","","","","","","","",""
"true","","preload","2","13074","0.0-2.0","NVEfr0BLDs","5a3d4ffddaea400001ac15af","6617fad957f7c6a12ea16e26","6622cfea0e646e9171dce3c0","","","false","[]","[]","[]","","","","","","","",""
"","5926","html-keyboard-response","3","19000","0.0-3.0","NVEfr0BLDs","5a3d4ffddaea400001ac15af","6617fad957f7c6a12ea16e26","6622cfea0e646e9171dce3c0","instruction screen 1"," ","","","","","","","","","","","",""
"","4310","html-keyboard-response","4","23313","0.0-4.0","NVEfr0BLDs","5a3d4ffddaea400001ac15af","6617fad957f7c6a12ea16e26","6622cfea0e646e9171dce3c0","instruction screen 2","q","","","","","","","","","","","",""
"","2806","html-keyboard-response","5","26120","0.0-5.0","NVEfr0BLDs","5a3d4ffddaea400001ac15af","6617fad957f7c6a12ea16e26","6622cfea0e646e9171dce3c0","instruction screen 3","p","","","","","","","","","","","",""
"","2365","html-keyboard-response","6","28488","0.0-6.0","NVEfr0BLDs","5a3d4ffddaea400001ac15af","6617fad957f7c6a12ea16e26","6622cfea0e646e9171dce3c0","instruction screen 4"," ","","","","","","","","","","","",""
"","1351","html-keyboard-response","7","29841","0.0-7.0","NVEfr0BLDs","5a3d4ffddaea400001ac15af","6617fad957f7c6a12ea16e26","6622cfea0e646e9171dce3c0","instruction screen 5"," ","","","","","","","","","","","",""
"","null","html-keyboard-response","8","30354","0.0-8.0","NVEfr0BLDs","5a3d4ffddaea400001ac15af","6617fad957f7c6a12ea16e26","6622cfea0e646e9171dce3c0","fixation cross","null","","","","","","","","","","","",""
"","null","html-keyboard-response","9","30864","0.0-9.0-0.0","NVEfr0BLDs","5a3d4ffddaea400001ac15af","6617fad957f7c6a12ea16e26","6622cfea0e646e9171dce3c0","fixation cross","null","","","","","","","","","","","",""
"","1560","html-keyboard-response","10","32425","0.0-9.0-1.0","NVEfr0BLDs","5a3d4ffddaea400001ac15af","6617fad957f7c6a12ea16e26","6622cfea0e646e9171dce3c0","image grid","q","","","","","Ontogenetic_Distractor_Threat_target","3000","ongrid","q","4","Ontogenetic","true","practice"
"","null","html-keyboard-response","11","32588","0.0-9.0-2.0","NVEfr0BLDs","5a3d4ffddaea400001ac15af","6617fad957f7c6a12ea16e26","6622cfea0e646e9171dce3c0","
    <div id=""grid-container"">
        <!-- Grid items will be dynamically added here -->
    </div>    ","null","","","","","","","","","","","",""
"","null","html-keyboard-response","12","33815","0.0-9.0-3.0","NVEfr0BLDs","5a3d4ffddaea400001ac15af","6617fad957f7c6a12ea16e26","6622cfea0e646e9171dce3c0","feedback screen","null","","","","","","","","","","","",""
"","null","html-keyboard-response","13","34320","0.0-9.0-0.1","NVEfr0BLDs","5a3d4ffddaea400001ac15af","6617fad957f7c6a12ea16e26","6622cfea0e646e9171dce3c0","fixation cross","null","","","","","","","","","","","",""
"","1777","html-keyboard-response","14","36097","0.0-9.0-1.1","NVEfr0BLDs","5a3d4ffddaea400001ac15af","6617fad957f7c6a12ea16e26","6622cfea0e646e9171dce3c0","image grid","q","","","","","Phylogenetic_Distractor_Threat_target","2900","ongrid","q","1","Ontogenetic","true","practice"
"","null","html-keyboard-response","15","36251","0.0-9.0-2.1","NVEfr0BLDs","5a3d4ffddaea400001ac15af","6617fad957f7c6a12ea16e26","6622cfea0e646e9171dce3c0","
    <div id=""grid-container"">
        <!-- Grid items will be dynamically added here -->
    </div>    ","null","","","","","","","","","","","",""
"","null","html-keyboard-response","16","37473","0.0-9.0-3.1","NVEfr0BLDs","5a3d4ffddaea400001ac15af","6617fad957f7c6a12ea16e26","6622cfea0e646e9171dce3c0","feedback screen","null","","","","","","","","","","","",""
"","null","html-keyboard-response","17","37980","0.0-9.0-0.2","NVEfr0BLDs","5a3d4ffddaea400001ac15af","6617fad957f7c6a12ea16e26","6622cfea0e646e9171dce3c0","fixation cross","null","","","","","","","","","","","",""
"","2180","html-keyboard-response","18","40161","0.0-9.0-1.2","NVEfr0BLDs","5a3d4ffddaea400001ac15af","6617fad957f7c6a12ea16e26","6622cfea0e646e9171dce3c0","image grid"," ","","","","","Ontogenetic_Distractor_Nonthreat_target","2800","ongrid","p","9","Ontogenetic","false","practice"
"","null","html-keyboard-response","19","40315","0.0-9.0-2.2","NVEfr0BLDs","5a3d4ffddaea400001ac15af","6617fad957f7c6a12ea16e26","6622cfea0e646e9171dce3c0","
    <div id=""grid-container"">
        <!-- Grid items will be dynamically added here -->
    </div>    ","null","","","","","","","","","","","",""
"","null","html-keyboard-response","20","41537","0.0-9.0-3.2","NVEfr0BLDs","5a3d4ffddaea400001ac15af","6617fad957f7c6a12ea16e26","6622cfea0e646e9171dce3c0","feedback screen","null","","","","","","","","","","","",""
"","null","html-keyboard-response","21","42043","0.0-9.0-0.3","NVEfr0BLDs","5a3d4ffddaea400001ac15af","6617fad957f7c6a12ea16e26","6622cfea0e646e9171dce3c0","fixation cross","null","","","","","","","","","","","",""
"","1509","html-keyboard-response","22","43553","0.0-9.0-1.3","NVEfr0BLDs","5a3d4ffddaea400001ac15af","6617fad957f7c6a12ea16e26","6622cfea0e646e9171dce3c0","image grid"," ","","","","","Phylogenetic_Distractor_notarget","2700","ongrid"," ","1","Ontogenetic","true","practice"
"","null","html-keyboard-response","23","43709","0.0-9.0-2.3","NVEfr0BLDs","5a3d4ffddaea400001ac15af","6617fad957f7c6a12ea16e26","6622cfea0e646e9171dce3c0","
    <div id=""grid-container"">
        <!-- Grid items will be dynamically added here -->
    </div>    ","null","","","","","","","","","","","",""
"","null","html-keyboard-response","24","44935","0.0-9.0-3.3","NVEfr0BLDs","5a3d4ffddaea400001ac15af","6617fad957f7c6a12ea16e26","6622cfea0e646e9171dce3c0","feedback screen","null","","","","","","","","","","","",""
"","null","html-keyboard-response","25","45443","0.0-9.0-0.4","NVEfr0BLDs","5a3d4ffddaea400001ac15af","6617fad957f7c6a12ea16e26","6622cfea0e646e9171dce3c0","fixation cross","null","","","","","","","","","","","",""
"","2125","html-keyboard-response","26","47568","0.0-9.0-1.4","NVEfr0BLDs","5a3d4ffddaea400001ac15af","6617fad957f7c6a12ea16e26","6622cfea0e646e9171dce3c0","image grid","p","","","","","Phylogenetic_Distractor_Nonthreat_target","2600","ongrid","p","7","Ontogenetic","true","practice"
"","null","html-keyboard-response","27","47720","0.0-9.0-2.4","NVEfr0BLDs","5a3d4ffddaea400001ac15af","6617fad957f7c6a12ea16e26","6622cfea0e646e9171dce3c0","
    <div id=""grid-container"">
        <!-- Grid items will be dynamically added here -->
    </div>    ","null","","","","","","","","","","","",""
"","null","html-keyboard-response","28","48931","0.0-9.0-3.4","NVEfr0BLDs","5a3d4ffddaea400001ac15af","6617fad957f7c6a12ea16e26","6622cfea0e646e9171dce3c0","feedback screen","null","","","","","","","","","","","",""
"","null","html-keyboard-response","29","49438","0.0-9.0-0.5","NVEfr0BLDs","5a3d4ffddaea400001ac15af","6617fad957f7c6a12ea16e26","6622cfea0e646e9171dce3c0","fixation cross","null","","","","","","","","","","","",""
"","1530","html-keyboard-response","30","50968","0.0-9.0-1.5","NVEfr0BLDs","5a3d4ffddaea400001ac15af","6617fad957f7c6a12ea16e26","6622cfea0e646e9171dce3c0","image grid"," ","","","","","Ontogenetic_Distractor_notarget","2500","ongrid"," ","5","Ontogenetic","true","practice"
"","null","html-keyboard-response","31","51129","0.0-9.0-2.5","NVEfr0BLDs","5a3d4ffddaea400001ac15af","6617fad957f7c6a12ea16e26","6622cfea0e646e9171dce3c0","
    <div id=""grid-container"">
        <!-- Grid items will be dynamically added here -->
    </div>    ","null","","","","","","","","","","","",""
"","null","html-keyboard-response","32","52356","0.0-9.0-3.5","NVEfr0BLDs","5a3d4ffddaea400001ac15af","6617fad957f7c6a12ea16e26","6622cfea0e646e9171dce3c0","feedback screen","null","","","","","","","","","","","",""
"","null","html-keyboard-response","33","52861","0.0-9.0-0.6","NVEfr0BLDs","5a3d4ffddaea400001ac15af","6617fad957f7c6a12ea16e26","6622cfea0e646e9171dce3c0","fixation cross","null","","","","","","","","","","","",""
"","1066","html-keyboard-response","34","53928","0.0-9.0-1.6","NVEfr0BLDs","5a3d4ffddaea400001ac15af","6617fad957f7c6a12ea16e26","6622cfea0e646e9171dce3c0","image grid","q","","","","","Ontogenetic_Distractor_Threat_target","2400","ongrid","q","6","Ontogenetic","true","practice"
"","null","html-keyboard-response","35","54091","0.0-9.0-2.6","NVEfr0BLDs","5a3d4ffddaea400001ac15af","6617fad957f7c6a12ea16e26","6622cfea0e646e9171dce3c0","
    <div id=""grid-container"">
        <!-- Grid items will be dynamically added here -->
    </div>    ","null","","","","","","","","","","","",""
"","null","html-keyboard-response","36","55312","0.0-9.0-3.6","NVEfr0BLDs","5a3d4ffddaea400001ac15af","6617fad957f7c6a12ea16e26","6622cfea0e646e9171dce3c0","feedback screen","null","","","","","","","","","","","",""
"","null","html-keyboard-response","37","55818","0.0-9.0-0.7","NVEfr0BLDs","5a3d4ffddaea400001ac15af","6617fad957f7c6a12ea16e26","6622cfea0e646e9171dce3c0","fixation cross","null","","","","","","","","","","","",""
"","1086","html-keyboard-response","38","56904","0.0-9.0-1.7","NVEfr0BLDs","5a3d4ffddaea400001ac15af","6617fad957f7c6a12ea16e26","6622cfea0e646e9171dce3c0","image grid","q","","","","","Ontogenetic_Distractor_Threat_target","2300","ongrid","q","4","Ontogenetic","true","practice"
"","null","html-keyboard-response","39","57060","0.0-9.0-2.7","NVEfr0BLDs","5a3d4ffddaea400001ac15af","6617fad957f7c6a12ea16e26","6622cfea0e646e9171dce3c0","
    <div id=""grid-container"">
        <!-- Grid items will be dynamically added here -->
    </div>    ","null","","","","","","","","","","","",""
"","null","html-keyboard-response","40","58280","0.0-9.0-3.7","NVEfr0BLDs","5a3d4ffddaea400001ac15af","6617fad957f7c6a12ea16e26","6622cfea0e646e9171dce3c0","feedback screen","null","","","","","","","","","","","",""
"","null","html-keyboard-response","41","58788","0.0-9.0-0.8","NVEfr0BLDs","5a3d4ffddaea400001ac15af","6617fad957f7c6a12ea16e26","6622cfea0e646e9171dce3c0","fixation cross","null","","","","","","","","","","","",""
"","2092","html-keyboard-response","42","60880","0.0-9.0-1.8","NVEfr0BLDs","5a3d4ffddaea400001ac15af","6617fad957f7c6a12ea16e26","6622cfea0e646e9171dce3c0","image grid","q","","","","","Phylogenetic_Distractor_Threat_target","2200","ongrid","q","8","Ontogenetic","true","practice"
"","null","html-keyboard-response","43","61046","0.0-9.0-2.8","NVEfr0BLDs","5a3d4ffddaea400001ac15af","6617fad957f7c6a12ea16e26","6622cfea0e646e9171dce3c0","
    <div id=""grid-container"">
        <!-- Grid items will be dynamically added here -->
    </div>    ","null","","","","","","","","","","","",""
"","null","html-keyboard-response","44","62275","0.0-9.0-3.8","NVEfr0BLDs","5a3d4ffddaea400001ac15af","6617fad957f7c6a12ea16e26","6622cfea0e646e9171dce3c0","feedback screen","null","","","","","","","","","","","",""
"","null","html-keyboard-response","45","62782","0.0-9.0-0.9","NVEfr0BLDs","5a3d4ffddaea400001ac15af","6617fad957f7c6a12ea16e26","6622cfea0e646e9171dce3c0","fixation cross","null","","","","","","","","","","","",""
"","null","html-keyboard-response","46","64896","0.0-9.0-1.9","NVEfr0BLDs","5a3d4ffddaea400001ac15af","6617fad957f7c6a12ea16e26","6622cfea0e646e9171dce3c0","
        <div id=""grid-container"">
        <!-- Grid items will be dynamically added here -->
    </div>    ","null","","","","","","","","","","","",""
"","2579","html-keyboard-response","47","65376","0.0-9.0-2.9","NVEfr0BLDs","5a3d4ffddaea400001ac15af","6617fad957f7c6a12ea16e26","6622cfea0e646e9171dce3c0","mask grid","p","","","","","Phylogenetic_Distractor_Nonthreat_target","2100","onmask","p","5","Ontogenetic","true","practice"
"","null","html-keyboard-response","48","66602","0.0-9.0-3.9","NVEfr0BLDs","5a3d4ffddaea400001ac15af","6617fad957f7c6a12ea16e26","6622cfea0e646e9171dce3c0","feedback screen","null","","","","","","","","","","","",""
"","null","html-keyboard-response","49","67108","0.0-9.0-0.10","NVEfr0BLDs","5a3d4ffddaea400001ac15af","6617fad957f7c6a12ea16e26","6622cfea0e646e9171dce3c0","fixation cross","null","","","","","","","","","","","",""
"","1219","html-keyboard-response","50","68328","0.0-9.0-1.10","NVEfr0BLDs","5a3d4ffddaea400001ac15af","6617fad957f7c6a12ea16e26","6622cfea0e646e9171dce3c0","image grid","p","","","","","Ontogenetic_Distractor_Nonthreat_target","2000","ongrid","p","6","Ontogenetic","true","practice"
"","null","html-keyboard-response","51","68488","0.0-9.0-2.10","NVEfr0BLDs","5a3d4ffddaea400001ac15af","6617fad957f7c6a12ea16e26","6622cfea0e646e9171dce3c0","
    <div id=""grid-container"">
        <!-- Grid items will be dynamically added here -->
    </div>    ","null","","","","","","","","","","","",""
"","null","html-keyboard-response","52","69714","0.0-9.0-3.10","NVEfr0BLDs","5a3d4ffddaea400001ac15af","6617fad957f7c6a12ea16e26","6622cfea0e646e9171dce3c0","feedback screen","null","","","","","","","","","","","",""
"","null","html-keyboard-response","53","70219","0.0-9.0-0.11","NVEfr0BLDs","5a3d4ffddaea400001ac15af","6617fad957f7c6a12ea16e26","6622cfea0e646e9171dce3c0","fixation cross","null","","","","","","","","","","","",""
"","1589","html-keyboard-response","54","71808","0.0-9.0-1.11","NVEfr0BLDs","5a3d4ffddaea400001ac15af","6617fad957f7c6a12ea16e26","6622cfea0e646e9171dce3c0","image grid","q","","","","","Phylogenetic_Distractor_Threat_target","1900","ongrid","q","2","Ontogenetic","true","practice"
"","null","html-keyboard-response","55","71970","0.0-9.0-2.11","NVEfr0BLDs","5a3d4ffddaea400001ac15af","6617fad957f7c6a12ea16e26","6622cfea0e646e9171dce3c0","
    <div id=""grid-container"">
        <!-- Grid items will be dynamically added here -->
    </div>    ","null","","","","","","","","","","","",""
"","null","html-keyboard-response","56","73199","0.0-9.0-3.11","NVEfr0BLDs","5a3d4ffddaea400001ac15af","6617fad957f7c6a12ea16e26","6622cfea0e646e9171dce3c0","feedback screen","null","","","","","","","","","","","",""
"","null","html-keyboard-response","57","73704","0.0-9.0-0.12","NVEfr0BLDs","5a3d4ffddaea400001ac15af","6617fad957f7c6a12ea16e26","6622cfea0e646e9171dce3c0","fixation cross","null","","","","","","","","","","","",""
"","1376","html-keyboard-response","58","75080","0.0-9.0-1.12","NVEfr0BLDs","5a3d4ffddaea400001ac15af","6617fad957f7c6a12ea16e26","6622cfea0e646e9171dce3c0","image grid"," ","","","","","Phylogenetic_Distractor_notarget","1800","ongrid"," ","7","Ontogenetic","true","practice"
"","null","html-keyboard-response","59","75236","0.0-9.0-2.12","NVEfr0BLDs","5a3d4ffddaea400001ac15af","6617fad957f7c6a12ea16e26","6622cfea0e646e9171dce3c0","
    <div id=""grid-container"">
        <!-- Grid items will be dynamically added here -->
    </div>    ","null","","","","","","","","","","","",""
"","null","html-keyboard-response","60","76463","0.0-9.0-3.12","NVEfr0BLDs","5a3d4ffddaea400001ac15af","6617fad957f7c6a12ea16e26","6622cfea0e646e9171dce3c0","feedback screen","null","","","","","","","","","","","",""
"","null","html-keyboard-response","61","76971","0.0-9.0-0.13","NVEfr0BLDs","5a3d4ffddaea400001ac15af","6617fad957f7c6a12ea16e26","6622cfea0e646e9171dce3c0","fixation cross","null","","","","","","","","","","","",""
"","null","html-keyboard-response","62","78678","0.0-9.0-1.13","NVEfr0BLDs","5a3d4ffddaea400001ac15af","6617fad957f7c6a12ea16e26","6622cfea0e646e9171dce3c0","
        <div id=""grid-container"">
        <!-- Grid items will be dynamically added here -->
    </div>    ","null","","","","","","","","","","","",""
"","2014","html-keyboard-response","63","78993","0.0-9.0-2.13","NVEfr0BLDs","5a3d4ffddaea400001ac15af","6617fad957f7c6a12ea16e26","6622cfea0e646e9171dce3c0","mask grid","p","","","","","Phylogenetic_Distractor_Nonthreat_target","1700","onmask","p","5","Ontogenetic","true","practice"
"","null","html-keyboard-response","64","80210","0.0-9.0-3.13","NVEfr0BLDs","5a3d4ffddaea400001ac15af","6617fad957f7c6a12ea16e26","6622cfea0e646e9171dce3c0","feedback screen","null","","","","","","","","","","","",""
"","null","html-keyboard-response","65","80718","0.0-9.0-0.14","NVEfr0BLDs","5a3d4ffddaea400001ac15af","6617fad957f7c6a12ea16e26","6622cfea0e646e9171dce3c0","fixation cross","null","","","","","","","","","","","",""
"","1450","html-keyboard-response","66","82168","0.0-9.0-1.14","NVEfr0BLDs","5a3d4ffddaea400001ac15af","6617fad957f7c6a12ea16e26","6622cfea0e646e9171dce3c0","image grid"," ","","","","","Ontogenetic_Distractor_notarget","1600","ongrid"," ","4","Ontogenetic","true","practice"
"","null","html-keyboard-response","67","82327","0.0-9.0-2.14","NVEfr0BLDs","5a3d4ffddaea400001ac15af","6617fad957f7c6a12ea16e26","6622cfea0e646e9171dce3c0","
    <div id=""grid-container"">
        <!-- Grid items will be dynamically added here -->
    </div>    ","null","","","","","","","","","","","",""
"","null","html-keyboard-response","68","83549","0.0-9.0-3.14","NVEfr0BLDs","5a3d4ffddaea400001ac15af","6617fad957f7c6a12ea16e26","6622cfea0e646e9171dce3c0","feedback screen","null","","","","","","","","","","","",""
"","null","html-keyboard-response","69","84058","0.0-9.0-0.15","NVEfr0BLDs","5a3d4ffddaea400001ac15af","6617fad957f7c6a12ea16e26","6622cfea0e646e9171dce3c0","fixation cross","null","","","","","","","","","","","",""
"","1367","html-keyboard-response","70","85426","0.0-9.0-1.15","NVEfr0BLDs","5a3d4ffddaea400001ac15af","6617fad957f7c6a12ea16e26","6622cfea0e646e9171dce3c0","image grid","p","","","","","Ontogenetic_Distractor_Nonthreat_target","1500","ongrid","p","1","Ontogenetic","true","practice"
"","null","html-keyboard-response","71","85586","0.0-9.0-2.15","NVEfr0BLDs","5a3d4ffddaea400001ac15af","6617fad957f7c6a12ea16e26","6622cfea0e646e9171dce3c0","
    <div id=""grid-container"">
        <!-- Grid items will be dynamically added here -->
    </div>    ","null","","","","","","","","","","","",""
"","null","html-keyboard-response","72","86815","0.0-9.0-3.15","NVEfr0BLDs","5a3d4ffddaea400001ac15af","6617fad957f7c6a12ea16e26","6622cfea0e646e9171dce3c0","feedback screen","null","","","","","","","","","","","",""
"","null","html-keyboard-response","73","87321","0.0-9.0-0.16","NVEfr0BLDs","5a3d4ffddaea400001ac15af","6617fad957f7c6a12ea16e26","6622cfea0e646e9171dce3c0","fixation cross","null","","","","","","","","","","","",""
"","null","html-keyboard-response","74","88726","0.0-9.0-1.16","NVEfr0BLDs","5a3d4ffddaea400001ac15af","6617fad957f7c6a12ea16e26","6622cfea0e646e9171dce3c0","
        <div id=""grid-container"">
        <!-- Grid items will be dynamically added here -->
    </div>    ","null","","","","","","","","","","","",""
"","1514","html-keyboard-response","75","88840","0.0-9.0-2.16","NVEfr0BLDs","5a3d4ffddaea400001ac15af","6617fad957f7c6a12ea16e26","6622cfea0e646e9171dce3c0","mask grid","p","","","","","Phylogenetic_Distractor_Nonthreat_target","1400","onmask","p","7","Ontogenetic","true","practice"
"","null","html-keyboard-response","76","90051","0.0-9.0-3.16","NVEfr0BLDs","5a3d4ffddaea400001ac15af","6617fad957f7c6a12ea16e26","6622cfea0e646e9171dce3c0","feedback screen","null","","","","","","","","","","","",""
"","null","html-keyboard-response","77","90557","0.0-9.0-0.17","NVEfr0BLDs","5a3d4ffddaea400001ac15af","6617fad957f7c6a12ea16e26","6622cfea0e646e9171dce3c0","fixation cross","null","","","","","","","","","","","",""
"","874","html-keyboard-response","78","91432","0.0-9.0-1.17","NVEfr0BLDs","5a3d4ffddaea400001ac15af","6617fad957f7c6a12ea16e26","6622cfea0e646e9171dce3c0","image grid","q","","","","","Ontogenetic_Distractor_Threat_target","1300","ongrid","q","1","Ontogenetic","true","practice"
"","null","html-keyboard-response","79","91584","0.0-9.0-2.17","NVEfr0BLDs","5a3d4ffddaea400001ac15af","6617fad957f7c6a12ea16e26","6622cfea0e646e9171dce3c0","
    <div id=""grid-container"">
        <!-- Grid items will be dynamically added here -->
    </div>    ","null","","","","","","","","","","","",""
"","null","html-keyboard-response","80","92793","0.0-9.0-3.17","NVEfr0BLDs","5a3d4ffddaea400001ac15af","6617fad957f7c6a12ea16e26","6622cfea0e646e9171dce3c0","feedback screen","null","","","","","","","","","","","",""
"","null","html-keyboard-response","81","93299","0.0-9.0-0.18","NVEfr0BLDs","5a3d4ffddaea400001ac15af","6617fad957f7c6a12ea16e26","6622cfea0e646e9171dce3c0","fixation cross","null","","","","","","","","","","","",""
"","878","html-keyboard-response","82","94178","0.0-9.0-1.18","NVEfr0BLDs","5a3d4ffddaea400001ac15af","6617fad957f7c6a12ea16e26","6622cfea0e646e9171dce3c0","image grid"," ","","","","","Ontogenetic_Distractor_Nonthreat_target","1200","ongrid","p","5","Ontogenetic","false","practice"
"","null","html-keyboard-response","83","94342","0.0-9.0-2.18","NVEfr0BLDs","5a3d4ffddaea400001ac15af","6617fad957f7c6a12ea16e26","6622cfea0e646e9171dce3c0","
    <div id=""grid-container"">
        <!-- Grid items will be dynamically added here -->
    </div>    ","null","","","","","","","","","","","",""
"","null","html-keyboard-response","84","95572","0.0-9.0-3.18","NVEfr0BLDs","5a3d4ffddaea400001ac15af","6617fad957f7c6a12ea16e26","6622cfea0e646e9171dce3c0","feedback screen","null","","","","","","","","","","","",""
"","null","html-keyboard-response","85","96080","0.0-9.0-0.19","NVEfr0BLDs","5a3d4ffddaea400001ac15af","6617fad957f7c6a12ea16e26","6622cfea0e646e9171dce3c0","fixation cross","null","","","","","","","","","","","",""
"","null","html-keyboard-response","86","97188","0.0-9.0-1.19","NVEfr0BLDs","5a3d4ffddaea400001ac15af","6617fad957f7c6a12ea16e26","6622cfea0e646e9171dce3c0","
        <div id=""grid-container"">
        <!-- Grid items will be dynamically added here -->
    </div>    ","null","","","","","","","","","","","",""
"","1791","html-keyboard-response","87","97880","0.0-9.0-2.19","NVEfr0BLDs","5a3d4ffddaea400001ac15af","6617fad957f7c6a12ea16e26","6622cfea0e646e9171dce3c0","mask grid","q","","","","","Phylogenetic_Distractor_Threat_target","1100","onmask","q","6","Ontogenetic","true","practice"
"","null","html-keyboard-response","88","99095","0.0-9.0-3.19","NVEfr0BLDs","5a3d4ffddaea400001ac15af","6617fad957f7c6a12ea16e26","6622cfea0e646e9171dce3c0","feedback screen","null","","","","","","","","","","","",""
"","8863","html-keyboard-response","89","107984","0.0-10.0","NVEfr0BLDs","5a3d4ffddaea400001ac15af","6617fad957f7c6a12ea16e26","6622cfea0e646e9171dce3c0","pre-experimental_briefing"," ","","","","","","","","","","","",""
"","null","html-keyboard-response","90","110518","0.0-11.0-0.0","NVEfr0BLDs","5a3d4ffddaea400001ac15af","6617fad957f7c6a12ea16e26","6622cfea0e646e9171dce3c0","fixation cross","null","","","","","","","","","","","",""
"","1523","html-keyboard-response","91","112041","0.0-11.0-1.0","NVEfr0BLDs","5a3d4ffddaea400001ac15af","6617fad957f7c6a12ea16e26","6622cfea0e646e9171dce3c0","image grid","p","","","","","Ontogenetic_Distractor_Nonthreat_target","2500","ongrid","p","1","Ontogenetic","true","experimental"
"","null","html-keyboard-response","92","112192","0.0-11.0-2.0","NVEfr0BLDs","5a3d4ffddaea400001ac15af","6617fad957f7c6a12ea16e26","6622cfea0e646e9171dce3c0","
    <div id=""grid-container"">
        <!-- Grid items will be dynamically added here -->
    </div>    ","null","","","","","","","","","","","",""
"","null","html-keyboard-response","93","112908","0.0-11.0-0.1","NVEfr0BLDs","5a3d4ffddaea400001ac15af","6617fad957f7c6a12ea16e26","6622cfea0e646e9171dce3c0","fixation cross","null","","","","","","","","","","","",""
"","1364","html-keyboard-response","94","114273","0.0-11.0-1.1","NVEfr0BLDs","5a3d4ffddaea400001ac15af","6617fad957f7c6a12ea16e26","6622cfea0e646e9171dce3c0","image grid","p","","","","","Ontogenetic_Distractor_Nonthreat_target","2500","ongrid","p","7","Ontogenetic","true","experimental"
"","null","html-keyboard-response","95","114428","0.0-11.0-2.1","NVEfr0BLDs","5a3d4ffddaea400001ac15af","6617fad957f7c6a12ea16e26","6622cfea0e646e9171dce3c0","
    <div id=""grid-container"">
        <!-- Grid items will be dynamically added here -->
    </div>    ","null","","","","","","","","","","","",""
"","null","html-keyboard-response","96","115151","0.0-11.0-0.2","NVEfr0BLDs","5a3d4ffddaea400001ac15af","6617fad957f7c6a12ea16e26","6622cfea0e646e9171dce3c0","fixation cross","null","","","","","","","","","","","",""
"","1426","html-keyboard-response","97","116578","0.0-11.0-1.2","NVEfr0BLDs","5a3d4ffddaea400001ac15af","6617fad957f7c6a12ea16e26","6622cfea0e646e9171dce3c0","image grid"," ","","","","","Ontogenetic_Distractor_Nonthreat_target","2500","ongrid","p","8","Ontogenetic","false","experimental"
"","null","html-keyboard-response","98","116729","0.0-11.0-2.2","NVEfr0BLDs","5a3d4ffddaea400001ac15af","6617fad957f7c6a12ea16e26","6622cfea0e646e9171dce3c0","
    <div id=""grid-container"">
        <!-- Grid items will be dynamically added here -->
    </div>    ","null","","","","","","","","","","","",""
"","null","html-keyboard-response","99","117440","0.0-11.0-0.3","NVEfr0BLDs","5a3d4ffddaea400001ac15af","6617fad957f7c6a12ea16e26","6622cfea0e646e9171dce3c0","fixation cross","null","","","","","","","","","","","",""
"","984","html-keyboard-response","100","118425","0.0-11.0-1.3","NVEfr0BLDs","5a3d4ffddaea400001ac15af","6617fad957f7c6a12ea16e26","6622cfea0e646e9171dce3c0","image grid","p","","","","","Ontogenetic_Distractor_Nonthreat_target","2500","ongrid","p","5","Ontogenetic","true","experimental"
"","null","html-keyboard-response","101","118590","0.0-11.0-2.3","NVEfr0BLDs","5a3d4ffddaea400001ac15af","6617fad957f7c6a12ea16e26","6622cfea0e646e9171dce3c0","
    <div id=""grid-container"">
        <!-- Grid items will be dynamically added here -->
    </div>    ","null","","","","","","","","","","","",""
"","null","html-keyboard-response","102","119311","0.0-11.0-0.4","NVEfr0BLDs","5a3d4ffddaea400001ac15af","6617fad957f7c6a12ea16e26","6622cfea0e646e9171dce3c0","fixation cross","null","","","","","","","","","","","",""
"","889","html-keyboard-response","103","120201","0.0-11.0-1.4","NVEfr0BLDs","5a3d4ffddaea400001ac15af","6617fad957f7c6a12ea16e26","6622cfea0e646e9171dce3c0","image grid","q","","","","","Ontogenetic_Distractor_Threat_target","2500","ongrid","q","7","Ontogenetic","true","experimental"
"","null","html-keyboard-response","104","120355","0.0-11.0-2.4","NVEfr0BLDs","5a3d4ffddaea400001ac15af","6617fad957f7c6a12ea16e26","6622cfea0e646e9171dce3c0","
    <div id=""grid-container"">
        <!-- Grid items will be dynamically added here -->
    </div>    ","null","","","","","","","","","","","",""
"","null","html-keyboard-response","105","121078","0.0-11.0-0.5","NVEfr0BLDs","5a3d4ffddaea400001ac15af","6617fad957f7c6a12ea16e26","6622cfea0e646e9171dce3c0","fixation cross","null","","","","","","","","","","","",""
"","1689","html-keyboard-response","106","122768","0.0-11.0-1.5","NVEfr0BLDs","5a3d4ffddaea400001ac15af","6617fad957f7c6a12ea16e26","6622cfea0e646e9171dce3c0","image grid","p","","","","","Ontogenetic_Distractor_Nonthreat_target","2500","ongrid","p","7","Ontogenetic","true","experimental"
"","null","html-keyboard-response","107","122934","0.0-11.0-2.5","NVEfr0BLDs","5a3d4ffddaea400001ac15af","6617fad957f7c6a12ea16e26","6622cfea0e646e9171dce3c0","
    <div id=""grid-container"">
        <!-- Grid items will be dynamically added here -->
    </div>    ","null","","","","","","","","","","","",""
"","null","html-keyboard-response","108","123650","0.0-11.0-0.6","NVEfr0BLDs","5a3d4ffddaea400001ac15af","6617fad957f7c6a12ea16e26","6622cfea0e646e9171dce3c0","fixation cross","null","","","","","","","","","","","",""
"","981","html-keyboard-response","109","124632","0.0-11.0-1.6","NVEfr0BLDs","5a3d4ffddaea400001ac15af","6617fad957f7c6a12ea16e26","6622cfea0e646e9171dce3c0","image grid","p","","","","","Ontogenetic_Distractor_Nonthreat_target","2500","ongrid","p","7","Ontogenetic","true","experimental"
"","null","html-keyboard-response","110","124795","0.0-11.0-2.6","NVEfr0BLDs","5a3d4ffddaea400001ac15af","6617fad957f7c6a12ea16e26","6622cfea0e646e9171dce3c0","
    <div id=""grid-container"">
        <!-- Grid items will be dynamically added here -->
    </div>    ","null","","","","","","","","","","","",""
"","null","html-keyboard-response","111","125516","0.0-11.0-0.7","NVEfr0BLDs","5a3d4ffddaea400001ac15af","6617fad957f7c6a12ea16e26","6622cfea0e646e9171dce3c0","fixation cross","null","","","","","","","","","","","",""
"","860","html-keyboard-response","112","126376","0.0-11.0-1.7","NVEfr0BLDs","5a3d4ffddaea400001ac15af","6617fad957f7c6a12ea16e26","6622cfea0e646e9171dce3c0","image grid","p","","","","","Ontogenetic_Distractor_Nonthreat_target","2500","ongrid","p","4","Ontogenetic","true","experimental"
"","null","html-keyboard-response","113","126530","0.0-11.0-2.7","NVEfr0BLDs","5a3d4ffddaea400001ac15af","6617fad957f7c6a12ea16e26","6622cfea0e646e9171dce3c0","
    <div id=""grid-container"">
        <!-- Grid items will be dynamically added here -->
    </div>    ","null","","","","","","","","","","","",""
"","null","html-keyboard-response","114","127252","0.0-11.0-0.8","NVEfr0BLDs","5a3d4ffddaea400001ac15af","6617fad957f7c6a12ea16e26","6622cfea0e646e9171dce3c0","fixation cross","null","","","","","","","","","","","",""
"","788","html-keyboard-response","115","128041","0.0-11.0-1.8","NVEfr0BLDs","5a3d4ffddaea400001ac15af","6617fad957f7c6a12ea16e26","6622cfea0e646e9171dce3c0","image grid","q","","","","","Ontogenetic_Distractor_Threat_target","2500","ongrid","q","8","Ontogenetic","true","experimental"
"","null","html-keyboard-response","116","128196","0.0-11.0-2.8","NVEfr0BLDs","5a3d4ffddaea400001ac15af","6617fad957f7c6a12ea16e26","6622cfea0e646e9171dce3c0","
    <div id=""grid-container"">
        <!-- Grid items will be dynamically added here -->
    </div>    ","null","","","","","","","","","","","",""
"","null","html-keyboard-response","117","128916","0.0-11.0-0.9","NVEfr0BLDs","5a3d4ffddaea400001ac15af","6617fad957f7c6a12ea16e26","6622cfea0e646e9171dce3c0","fixation cross","null","","","","","","","","","","","",""
"","925","html-keyboard-response","118","129841","0.0-11.0-1.9","NVEfr0BLDs","5a3d4ffddaea400001ac15af","6617fad957f7c6a12ea16e26","6622cfea0e646e9171dce3c0","image grid","q","","","","","Ontogenetic_Distractor_Threat_target","2500","ongrid","q","9","Ontogenetic","true","experimental"
"","null","html-keyboard-response","119","130000","0.0-11.0-2.9","NVEfr0BLDs","5a3d4ffddaea400001ac15af","6617fad957f7c6a12ea16e26","6622cfea0e646e9171dce3c0","
    <div id=""grid-container"">
        <!-- Grid items will be dynamically added here -->
    </div>    ","null","","","","","","","","","","","",""
"","null","html-keyboard-response","120","130716","0.0-11.0-0.10","NVEfr0BLDs","5a3d4ffddaea400001ac15af","6617fad957f7c6a12ea16e26","6622cfea0e646e9171dce3c0","fixation cross","null","","","","","","","","","","","",""
"","660","html-keyboard-response","121","131376","0.0-11.0-1.10","NVEfr0BLDs","5a3d4ffddaea400001ac15af","6617fad957f7c6a12ea16e26","6622cfea0e646e9171dce3c0","image grid","q","","","","","Ontogenetic_Distractor_Threat_target","2500","ongrid","q","1","Ontogenetic","true","experimental"
"","null","html-keyboard-response","122","131531","0.0-11.0-2.10","NVEfr0BLDs","5a3d4ffddaea400001ac15af","6617fad957f7c6a12ea16e26","6622cfea0e646e9171dce3c0","
    <div id=""grid-container"">
        <!-- Grid items will be dynamically added here -->
    </div>    ","null","","","","","","","","","","","",""
"","null","html-keyboard-response","123","132251","0.0-11.0-0.11","NVEfr0BLDs","5a3d4ffddaea400001ac15af","6617fad957f7c6a12ea16e26","6622cfea0e646e9171dce3c0","fixation cross","null","","","","","","","","","","","",""
"","949","html-keyboard-response","124","133200","0.0-11.0-1.11","NVEfr0BLDs","5a3d4ffddaea400001ac15af","6617fad957f7c6a12ea16e26","6622cfea0e646e9171dce3c0","image grid","q","","","","","Ontogenetic_Distractor_Threat_target","2500","ongrid","q","5","Ontogenetic","true","experimental"
"","null","html-keyboard-response","125","133362","0.0-11.0-2.11","NVEfr0BLDs","5a3d4ffddaea400001ac15af","6617fad957f7c6a12ea16e26","6622cfea0e646e9171dce3c0","
    <div id=""grid-container"">
        <!-- Grid items will be dynamically added here -->
    </div>    ","null","","","","","","","","","","","",""
"","null","html-keyboard-response","126","134082","0.0-11.0-0.12","NVEfr0BLDs","5a3d4ffddaea400001ac15af","6617fad957f7c6a12ea16e26","6622cfea0e646e9171dce3c0","fixation cross","null","","","","","","","","","","","",""
"","782","html-keyboard-response","127","134864","0.0-11.0-1.12","NVEfr0BLDs","5a3d4ffddaea400001ac15af","6617fad957f7c6a12ea16e26","6622cfea0e646e9171dce3c0","image grid","p","","","","","Ontogenetic_Distractor_Nonthreat_target","2500","ongrid","p","6","Ontogenetic","true","experimental"
"","null","html-keyboard-response","128","135020","0.0-11.0-2.12","NVEfr0BLDs","5a3d4ffddaea400001ac15af","6617fad957f7c6a12ea16e26","6622cfea0e646e9171dce3c0","
    <div id=""grid-container"">
        <!-- Grid items will be dynamically added here -->
    </div>    ","null","","","","","","","","","","","",""
"","null","html-keyboard-response","129","135743","0.0-11.0-0.13","NVEfr0BLDs","5a3d4ffddaea400001ac15af","6617fad957f7c6a12ea16e26","6622cfea0e646e9171dce3c0","fixation cross","null","","","","","","","","","","","",""
"","721","html-keyboard-response","130","136464","0.0-11.0-1.13","NVEfr0BLDs","5a3d4ffddaea400001ac15af","6617fad957f7c6a12ea16e26","6622cfea0e646e9171dce3c0","image grid","q","","","","","Ontogenetic_Distractor_Threat_target","2500","ongrid","q","6","Ontogenetic","true","experimental"
"","null","html-keyboard-response","131","136618","0.0-11.0-2.13","NVEfr0BLDs","5a3d4ffddaea400001ac15af","6617fad957f7c6a12ea16e26","6622cfea0e646e9171dce3c0","
    <div id=""grid-container"">
        <!-- Grid items will be dynamically added here -->
    </div>    ","null","","","","","","","","","","","",""
"","null","html-keyboard-response","132","137342","0.0-11.0-0.14","NVEfr0BLDs","5a3d4ffddaea400001ac15af","6617fad957f7c6a12ea16e26","6622cfea0e646e9171dce3c0","fixation cross","null","","","","","","","","","","","",""
"","626","html-keyboard-response","133","137968","0.0-11.0-1.14","NVEfr0BLDs","5a3d4ffddaea400001ac15af","6617fad957f7c6a12ea16e26","6622cfea0e646e9171dce3c0","image grid","q","","","","","Ontogenetic_Distractor_Threat_target","2500","ongrid","q","5","Ontogenetic","true","experimental"
"","null","html-keyboard-response","134","138122","0.0-11.0-2.14","NVEfr0BLDs","5a3d4ffddaea400001ac15af","6617fad957f7c6a12ea16e26","6622cfea0e646e9171dce3c0","
    <div id=""grid-container"">
        <!-- Grid items will be dynamically added here -->
    </div>    ","null","","","","","","","","","","","",""
"","null","html-keyboard-response","135","138837","0.0-11.0-0.15","NVEfr0BLDs","5a3d4ffddaea400001ac15af","6617fad957f7c6a12ea16e26","6622cfea0e646e9171dce3c0","fixation cross","null","","","","","","","","","","","",""
"","587","html-keyboard-response","136","139425","0.0-11.0-1.15","NVEfr0BLDs","5a3d4ffddaea400001ac15af","6617fad957f7c6a12ea16e26","6622cfea0e646e9171dce3c0","image grid","q","","","","","Ontogenetic_Distractor_Threat_target","2500","ongrid","q","1","Ontogenetic","true","experimental"
"","null","html-keyboard-response","137","139588","0.0-11.0-2.15","NVEfr0BLDs","5a3d4ffddaea400001ac15af","6617fad957f7c6a12ea16e26","6622cfea0e646e9171dce3c0","
    <div id=""grid-container"">
        <!-- Grid items will be dynamically added here -->
    </div>    ","null","","","","","","","","","","","",""
"","null","html-keyboard-response","138","140299","0.0-11.0-0.16","NVEfr0BLDs","5a3d4ffddaea400001ac15af","6617fad957f7c6a12ea16e26","6622cfea0e646e9171dce3c0","fixation cross","null","","","","","","","","","","","",""
"","477","html-keyboard-response","139","140776","0.0-11.0-1.16","NVEfr0BLDs","5a3d4ffddaea400001ac15af","6617fad957f7c6a12ea16e26","6622cfea0e646e9171dce3c0","image grid","q","","","","","Ontogenetic_Distractor_Threat_target","2500","ongrid","q","1","Ontogenetic","true","experimental"
"","null","html-keyboard-response","140","140938","0.0-11.0-2.16","NVEfr0BLDs","5a3d4ffddaea400001ac15af","6617fad957f7c6a12ea16e26","6622cfea0e646e9171dce3c0","
    <div id=""grid-container"">
        <!-- Grid items will be dynamically added here -->
    </div>    ","null","","","","","","","","","","","",""
"","null","html-keyboard-response","141","141659","0.0-11.0-0.17","NVEfr0BLDs","5a3d4ffddaea400001ac15af","6617fad957f7c6a12ea16e26","6622cfea0e646e9171dce3c0","fixation cross","null","","","","","","","","","","","",""
"","717","html-keyboard-response","142","142376","0.0-11.0-1.17","NVEfr0BLDs","5a3d4ffddaea400001ac15af","6617fad957f7c6a12ea16e26","6622cfea0e646e9171dce3c0","image grid","p","","","","","Ontogenetic_Distractor_Nonthreat_target","2500","ongrid","p","6","Ontogenetic","true","experimental"
"","null","html-keyboard-response","143","142534","0.0-11.0-2.17","NVEfr0BLDs","5a3d4ffddaea400001ac15af","6617fad957f7c6a12ea16e26","6622cfea0e646e9171dce3c0","
    <div id=""grid-container"">
        <!-- Grid items will be dynamically added here -->
    </div>    ","null","","","","","","","","","","","",""
"","null","html-keyboard-response","144","143251","0.0-11.0-0.18","NVEfr0BLDs","5a3d4ffddaea400001ac15af","6617fad957f7c6a12ea16e26","6622cfea0e646e9171dce3c0","fixation cross","null","","","","","","","","","","","",""
"","653","html-keyboard-response","145","143904","0.0-11.0-1.18","NVEfr0BLDs","5a3d4ffddaea400001ac15af","6617fad957f7c6a12ea16e26","6622cfea0e646e9171dce3c0","image grid","p","","","","","Ontogenetic_Distractor_Nonthreat_target","2500","ongrid","p","7","Ontogenetic","true","experimental"
"","null","html-keyboard-response","146","144059","0.0-11.0-2.18","NVEfr0BLDs","5a3d4ffddaea400001ac15af","6617fad957f7c6a12ea16e26","6622cfea0e646e9171dce3c0","
    <div id=""grid-container"">
        <!-- Grid items will be dynamically added here -->
    </div>    ","null","","","","","","","","","","","",""
"","null","html-keyboard-response","147","144781","0.0-11.0-0.19","NVEfr0BLDs","5a3d4ffddaea400001ac15af","6617fad957f7c6a12ea16e26","6622cfea0e646e9171dce3c0","fixation cross","null","","","","","","","","","","","",""
"","723","html-keyboard-response","148","145504","0.0-11.0-1.19","NVEfr0BLDs","5a3d4ffddaea400001ac15af","6617fad957f7c6a12ea16e26","6622cfea0e646e9171dce3c0","image grid","p","","","","","Ontogenetic_Distractor_Nonthreat_target","2500","ongrid","p","4","Ontogenetic","true","experimental"
"","null","html-keyboard-response","149","145655","0.0-11.0-2.19","NVEfr0BLDs","5a3d4ffddaea400001ac15af","6617fad957f7c6a12ea16e26","6622cfea0e646e9171dce3c0","
    <div id=""grid-container"">
        <!-- Grid items will be dynamically added here -->
    </div>    ","null","","","","","","","","","","","",""
"","null","html-keyboard-response","150","146378","0.0-11.0-0.20","NVEfr0BLDs","5a3d4ffddaea400001ac15af","6617fad957f7c6a12ea16e26","6622cfea0e646e9171dce3c0","fixation cross","null","","","","","","","","","","","",""
"","597","html-keyboard-response","151","146976","0.0-11.0-1.20","NVEfr0BLDs","5a3d4ffddaea400001ac15af","6617fad957f7c6a12ea16e26","6622cfea0e646e9171dce3c0","image grid","q","","","","","Ontogenetic_Distractor_Threat_target","2500","ongrid","q","5","Ontogenetic","true","experimental"
"","null","html-keyboard-response","152","147131","0.0-11.0-2.20","NVEfr0BLDs","5a3d4ffddaea400001ac15af","6617fad957f7c6a12ea16e26","6622cfea0e646e9171dce3c0","
    <div id=""grid-container"">
        <!-- Grid items will be dynamically added here -->
    </div>    ","null","","","","","","","","","","","",""
"","null","html-keyboard-response","153","147853","0.0-11.0-0.21","NVEfr0BLDs","5a3d4ffddaea400001ac15af","6617fad957f7c6a12ea16e26","6622cfea0e646e9171dce3c0","fixation cross","null","","","","","","","","","","","",""
"","1114","html-keyboard-response","154","148967","0.0-11.0-1.21","NVEfr0BLDs","5a3d4ffddaea400001ac15af","6617fad957f7c6a12ea16e26","6622cfea0e646e9171dce3c0","image grid","p","","","","","Ontogenetic_Distractor_notarget","2500","ongrid"," ","1","Ontogenetic","false","experimental"
"","null","html-keyboard-response","155","149119","0.0-11.0-2.21","NVEfr0BLDs","5a3d4ffddaea400001ac15af","6617fad957f7c6a12ea16e26","6622cfea0e646e9171dce3c0","
    <div id=""grid-container"">
        <!-- Grid items will be dynamically added here -->
    </div>    ","null","","","","","","","","","","","",""
"","null","html-keyboard-response","156","149841","0.0-11.0-0.22","NVEfr0BLDs","5a3d4ffddaea400001ac15af","6617fad957f7c6a12ea16e26","6622cfea0e646e9171dce3c0","fixation cross","null","","","","","","","","","","","",""
"","751","html-keyboard-response","157","150593","0.0-11.0-1.22","NVEfr0BLDs","5a3d4ffddaea400001ac15af","6617fad957f7c6a12ea16e26","6622cfea0e646e9171dce3c0","image grid","q","","","","","Ontogenetic_Distractor_Threat_target","2500","ongrid","q","8","Ontogenetic","true","experimental"
"","null","html-keyboard-response","158","150757","0.0-11.0-2.22","NVEfr0BLDs","5a3d4ffddaea400001ac15af","6617fad957f7c6a12ea16e26","6622cfea0e646e9171dce3c0","
    <div id=""grid-container"">
        <!-- Grid items will be dynamically added here -->
    </div>    ","null","","","","","","","","","","","",""
"","null","html-keyboard-response","159","151480","0.0-11.0-0.23","NVEfr0BLDs","5a3d4ffddaea400001ac15af","6617fad957f7c6a12ea16e26","6622cfea0e646e9171dce3c0","fixation cross","null","","","","","","","","","","","",""
"","817","html-keyboard-response","160","152298","0.0-11.0-1.23","NVEfr0BLDs","5a3d4ffddaea400001ac15af","6617fad957f7c6a12ea16e26","6622cfea0e646e9171dce3c0","image grid","p","","","","","Ontogenetic_Distractor_Nonthreat_target","2500","ongrid","p","4","Ontogenetic","true","experimental"
"","null","html-keyboard-response","161","152463","0.0-11.0-2.23","NVEfr0BLDs","5a3d4ffddaea400001ac15af","6617fad957f7c6a12ea16e26","6622cfea0e646e9171dce3c0","
    <div id=""grid-container"">
        <!-- Grid items will be dynamically added here -->
    </div>    ","null","","","","","","","","","","","",""
"","null","html-keyboard-response","162","153189","0.0-11.0-0.24","NVEfr0BLDs","5a3d4ffddaea400001ac15af","6617fad957f7c6a12ea16e26","6622cfea0e646e9171dce3c0","fixation cross","null","","","","","","","","","","","",""
"","835","html-keyboard-response","163","154024","0.0-11.0-1.24","NVEfr0BLDs","5a3d4ffddaea400001ac15af","6617fad957f7c6a12ea16e26","6622cfea0e646e9171dce3c0","image grid","p","","","","","Ontogenetic_Distractor_Nonthreat_target","2500","ongrid","p","4","Ontogenetic","true","experimental"
"","null","html-keyboard-response","164","154186","0.0-11.0-2.24","NVEfr0BLDs","5a3d4ffddaea400001ac15af","6617fad957f7c6a12ea16e26","6622cfea0e646e9171dce3c0","
    <div id=""grid-container"">
        <!-- Grid items will be dynamically added here -->
    </div>    ","null","","","","","","","","","","","",""
"","null","html-keyboard-response","165","154908","0.0-11.0-0.25","NVEfr0BLDs","5a3d4ffddaea400001ac15af","6617fad957f7c6a12ea16e26","6622cfea0e646e9171dce3c0","fixation cross","null","","","","","","","","","","","",""
"","667","html-keyboard-response","166","155576","0.0-11.0-1.25","NVEfr0BLDs","5a3d4ffddaea400001ac15af","6617fad957f7c6a12ea16e26","6622cfea0e646e9171dce3c0","image grid","p","","","","","Ontogenetic_Distractor_Nonthreat_target","2500","ongrid","p","1","Ontogenetic","true","experimental"
"","null","html-keyboard-response","167","155740","0.0-11.0-2.25","NVEfr0BLDs","5a3d4ffddaea400001ac15af","6617fad957f7c6a12ea16e26","6622cfea0e646e9171dce3c0","
    <div id=""grid-container"">
        <!-- Grid items will be dynamically added here -->
    </div>    ","null","","","","","","","","","","","",""
"","null","html-keyboard-response","168","156462","0.0-11.0-0.26","NVEfr0BLDs","5a3d4ffddaea400001ac15af","6617fad957f7c6a12ea16e26","6622cfea0e646e9171dce3c0","fixation cross","null","","","","","","","","","","","",""
"","699","html-keyboard-response","169","157161","0.0-11.0-1.26","NVEfr0BLDs","5a3d4ffddaea400001ac15af","6617fad957f7c6a12ea16e26","6622cfea0e646e9171dce3c0","image grid","q","","","","","Ontogenetic_Distractor_Threat_target","2500","ongrid","q","4","Ontogenetic","true","experimental"
"","null","html-keyboard-response","170","157322","0.0-11.0-2.26","NVEfr0BLDs","5a3d4ffddaea400001ac15af","6617fad957f7c6a12ea16e26","6622cfea0e646e9171dce3c0","
    <div id=""grid-container"">
        <!-- Grid items will be dynamically added here -->
    </div>    ","null","","","","","","","","","","","",""
"","null","html-keyboard-response","171","158039","0.0-11.0-0.27","NVEfr0BLDs","5a3d4ffddaea400001ac15af","6617fad957f7c6a12ea16e26","6622cfea0e646e9171dce3c0","fixation cross","null","","","","","","","","","","","",""
"","1033","html-keyboard-response","172","159073","0.0-11.0-1.27","NVEfr0BLDs","5a3d4ffddaea400001ac15af","6617fad957f7c6a12ea16e26","6622cfea0e646e9171dce3c0","image grid"," ","","","","","Ontogenetic_Distractor_Threat_target","2500","ongrid","q","3","Ontogenetic","false","experimental"
"","null","html-keyboard-response","173","159234","0.0-11.0-2.27","NVEfr0BLDs","5a3d4ffddaea400001ac15af","6617fad957f7c6a12ea16e26","6622cfea0e646e9171dce3c0","
    <div id=""grid-container"">
        <!-- Grid items will be dynamically added here -->
    </div>    ","null","","","","","","","","","","","",""
"","null","html-keyboard-response","174","159954","0.0-11.0-0.28","NVEfr0BLDs","5a3d4ffddaea400001ac15af","6617fad957f7c6a12ea16e26","6622cfea0e646e9171dce3c0","fixation cross","null","","","","","","","","","","","",""
"","1974","html-keyboard-response","175","161928","0.0-11.0-1.28","NVEfr0BLDs","5a3d4ffddaea400001ac15af","6617fad957f7c6a12ea16e26","6622cfea0e646e9171dce3c0","image grid","p","","","","","Ontogenetic_Distractor_Nonthreat_target","2500","ongrid","p","4","Ontogenetic","true","experimental"
"","null","html-keyboard-response","176","162086","0.0-11.0-2.28","NVEfr0BLDs","5a3d4ffddaea400001ac15af","6617fad957f7c6a12ea16e26","6622cfea0e646e9171dce3c0","
    <div id=""grid-container"">
        <!-- Grid items will be dynamically added here -->
    </div>    ","null","","","","","","","","","","","",""
"","null","html-keyboard-response","177","162808","0.0-11.0-0.29","NVEfr0BLDs","5a3d4ffddaea400001ac15af","6617fad957f7c6a12ea16e26","6622cfea0e646e9171dce3c0","fixation cross","null","","","","","","","","","","","",""
"","808","html-keyboard-response","178","163616","0.0-11.0-1.29","NVEfr0BLDs","5a3d4ffddaea400001ac15af","6617fad957f7c6a12ea16e26","6622cfea0e646e9171dce3c0","image grid","q","","","","","Ontogenetic_Distractor_Threat_target","2500","ongrid","q","8","Ontogenetic","true","experimental"
"","null","html-keyboard-response","179","163772","0.0-11.0-2.29","NVEfr0BLDs","5a3d4ffddaea400001ac15af","6617fad957f7c6a12ea16e26","6622cfea0e646e9171dce3c0","
    <div id=""grid-container"">
        <!-- Grid items will be dynamically added here -->
    </div>    ","null","","","","","","","","","","","",""
"","null","html-keyboard-response","180","164492","0.0-11.0-0.30","NVEfr0BLDs","5a3d4ffddaea400001ac15af","6617fad957f7c6a12ea16e26","6622cfea0e646e9171dce3c0","fixation cross","null","","","","","","","","","","","",""
"","1116","html-keyboard-response","181","165608","0.0-11.0-1.30","NVEfr0BLDs","5a3d4ffddaea400001ac15af","6617fad957f7c6a12ea16e26","6622cfea0e646e9171dce3c0","image grid"," ","","","","","Ontogenetic_Distractor_notarget","2500","ongrid"," ","9","Ontogenetic","true","experimental"
"","null","html-keyboard-response","182","165768","0.0-11.0-2.30","NVEfr0BLDs","5a3d4ffddaea400001ac15af","6617fad957f7c6a12ea16e26","6622cfea0e646e9171dce3c0","
    <div id=""grid-container"">
        <!-- Grid items will be dynamically added here -->
    </div>    ","null","","","","","","","","","","","",""
"","null","html-keyboard-response","183","166491","0.0-11.0-0.31","NVEfr0BLDs","5a3d4ffddaea400001ac15af","6617fad957f7c6a12ea16e26","6622cfea0e646e9171dce3c0","fixation cross","null","","","","","","","","","","","",""
"","1740","html-keyboard-response","184","168232","0.0-11.0-1.31","NVEfr0BLDs","5a3d4ffddaea400001ac15af","6617fad957f7c6a12ea16e26","6622cfea0e646e9171dce3c0","image grid"," ","","","","","Ontogenetic_Distractor_notarget","2500","ongrid"," ","6","Ontogenetic","true","experimental"
"","null","html-keyboard-response","185","168388","0.0-11.0-2.31","NVEfr0BLDs","5a3d4ffddaea400001ac15af","6617fad957f7c6a12ea16e26","6622cfea0e646e9171dce3c0","
    <div id=""grid-container"">
        <!-- Grid items will be dynamically added here -->
    </div>    ","null","","","","","","","","","","","",""
"","null","html-keyboard-response","186","169094","0.0-11.0-0.32","NVEfr0BLDs","5a3d4ffddaea400001ac15af","6617fad957f7c6a12ea16e26","6622cfea0e646e9171dce3c0","fixation cross","null","","","","","","","","","","","",""
"","921","html-keyboard-response","187","170016","0.0-11.0-1.32","NVEfr0BLDs","5a3d4ffddaea400001ac15af","6617fad957f7c6a12ea16e26","6622cfea0e646e9171dce3c0","image grid","q","","","","","Ontogenetic_Distractor_Threat_target","2500","ongrid","q","3","Ontogenetic","true","experimental"
"","null","html-keyboard-response","188","170169","0.0-11.0-2.32","NVEfr0BLDs","5a3d4ffddaea400001ac15af","6617fad957f7c6a12ea16e26","6622cfea0e646e9171dce3c0","
    <div id=""grid-container"">
        <!-- Grid items will be dynamically added here -->
    </div>    ","null","","","","","","","","","","","",""
"","null","html-keyboard-response","189","170876","0.0-11.0-0.33","NVEfr0BLDs","5a3d4ffddaea400001ac15af","6617fad957f7c6a12ea16e26","6622cfea0e646e9171dce3c0","fixation cross","null","","","","","","","","","","","",""
"","788","html-keyboard-response","190","171664","0.0-11.0-1.33","NVEfr0BLDs","5a3d4ffddaea400001ac15af","6617fad957f7c6a12ea16e26","6622cfea0e646e9171dce3c0","image grid","q","","","","","Ontogenetic_Distractor_Threat_target","2500","ongrid","q","5","Ontogenetic","true","experimental"
"","null","html-keyboard-response","191","171827","0.0-11.0-2.33","NVEfr0BLDs","5a3d4ffddaea400001ac15af","6617fad957f7c6a12ea16e26","6622cfea0e646e9171dce3c0","
    <div id=""grid-container"">
        <!-- Grid items will be dynamically added here -->
    </div>    ","null","","","","","","","","","","","",""
"","null","html-keyboard-response","192","172551","0.0-11.0-0.34","NVEfr0BLDs","5a3d4ffddaea400001ac15af","6617fad957f7c6a12ea16e26","6622cfea0e646e9171dce3c0","fixation cross","null","","","","","","","","","","","",""
"","664","html-keyboard-response","193","173216","0.0-11.0-1.34","NVEfr0BLDs","5a3d4ffddaea400001ac15af","6617fad957f7c6a12ea16e26","6622cfea0e646e9171dce3c0","image grid","q","","","","","Ontogenetic_Distractor_Threat_target","2500","ongrid","q","9","Ontogenetic","true","experimental"
"","null","html-keyboard-response","194","173379","0.0-11.0-2.34","NVEfr0BLDs","5a3d4ffddaea400001ac15af","6617fad957f7c6a12ea16e26","6622cfea0e646e9171dce3c0","
    <div id=""grid-container"">
        <!-- Grid items will be dynamically added here -->
    </div>    ","null","","","","","","","","","","","",""
"","null","html-keyboard-response","195","174086","0.0-11.0-0.35","NVEfr0BLDs","5a3d4ffddaea400001ac15af","6617fad957f7c6a12ea16e26","6622cfea0e646e9171dce3c0","fixation cross","null","","","","","","","","","","","",""
"","1266","html-keyboard-response","196","175352","0.0-11.0-1.35","NVEfr0BLDs","5a3d4ffddaea400001ac15af","6617fad957f7c6a12ea16e26","6622cfea0e646e9171dce3c0","image grid"," ","","","","","Ontogenetic_Distractor_Nonthreat_target","2500","ongrid","p","8","Ontogenetic","false","experimental"
"","null","html-keyboard-response","197","175516","0.0-11.0-2.35","NVEfr0BLDs","5a3d4ffddaea400001ac15af","6617fad957f7c6a12ea16e26","6622cfea0e646e9171dce3c0","
    <div id=""grid-container"">
        <!-- Grid items will be dynamically added here -->
    </div>    ","null","","","","","","","","","","","",""
"","null","html-keyboard-response","198","176238","0.0-11.0-0.36","NVEfr0BLDs","5a3d4ffddaea400001ac15af","6617fad957f7c6a12ea16e26","6622cfea0e646e9171dce3c0","fixation cross","null","","","","","","","","","","","",""
"","1186","html-keyboard-response","199","177424","0.0-11.0-1.36","NVEfr0BLDs","5a3d4ffddaea400001ac15af","6617fad957f7c6a12ea16e26","6622cfea0e646e9171dce3c0","image grid"," ","","","","","Ontogenetic_Distractor_notarget","2500","ongrid"," ","6","Ontogenetic","true","experimental"
"","null","html-keyboard-response","200","177591","0.0-11.0-2.36","NVEfr0BLDs","5a3d4ffddaea400001ac15af","6617fad957f7c6a12ea16e26","6622cfea0e646e9171dce3c0","
    <div id=""grid-container"">
        <!-- Grid items will be dynamically added here -->
    </div>    ","null","","","","","","","","","","","",""
"","null","html-keyboard-response","201","178315","0.0-11.0-0.37","NVEfr0BLDs","5a3d4ffddaea400001ac15af","6617fad957f7c6a12ea16e26","6622cfea0e646e9171dce3c0","fixation cross","null","","","","","","","","","","","",""
"","894","html-keyboard-response","202","179208","0.0-11.0-1.37","NVEfr0BLDs","5a3d4ffddaea400001ac15af","6617fad957f7c6a12ea16e26","6622cfea0e646e9171dce3c0","image grid","p","","","","","Ontogenetic_Distractor_Nonthreat_target","2500","ongrid","p","4","Ontogenetic","true","experimental"
"","null","html-keyboard-response","203","179370","0.0-11.0-2.37","NVEfr0BLDs","5a3d4ffddaea400001ac15af","6617fad957f7c6a12ea16e26","6622cfea0e646e9171dce3c0","
    <div id=""grid-container"">
        <!-- Grid items will be dynamically added here -->
    </div>    ","null","","","","","","","","","","","",""
"","null","html-keyboard-response","204","180091","0.0-11.0-0.38","NVEfr0BLDs","5a3d4ffddaea400001ac15af","6617fad957f7c6a12ea16e26","6622cfea0e646e9171dce3c0","fixation cross","null","","","","","","","","","","","",""
"","1036","html-keyboard-response","205","181129","0.0-11.0-1.38","NVEfr0BLDs","5a3d4ffddaea400001ac15af","6617fad957f7c6a12ea16e26","6622cfea0e646e9171dce3c0","image grid","p","","","","","Ontogenetic_Distractor_Nonthreat_target","2500","ongrid","p","5","Ontogenetic","true","experimental"
"","null","html-keyboard-response","206","181294","0.0-11.0-2.38","NVEfr0BLDs","5a3d4ffddaea400001ac15af","6617fad957f7c6a12ea16e26","6622cfea0e646e9171dce3c0","
    <div id=""grid-container"">
        <!-- Grid items will be dynamically added here -->
    </div>    ","null","","","","","","","","","","","",""
"","null","html-keyboard-response","207","182017","0.0-11.0-0.39","NVEfr0BLDs","5a3d4ffddaea400001ac15af","6617fad957f7c6a12ea16e26","6622cfea0e646e9171dce3c0","fixation cross","null","","","","","","","","","","","",""
"","1079","html-keyboard-response","208","183096","0.0-11.0-1.39","NVEfr0BLDs","5a3d4ffddaea400001ac15af","6617fad957f7c6a12ea16e26","6622cfea0e646e9171dce3c0","image grid","q","","","","","Ontogenetic_Distractor_Threat_target","2500","ongrid","q","7","Ontogenetic","true","experimental"
"","null","html-keyboard-response","209","183249","0.0-11.0-2.39","NVEfr0BLDs","5a3d4ffddaea400001ac15af","6617fad957f7c6a12ea16e26","6622cfea0e646e9171dce3c0","
    <div id=""grid-container"">
        <!-- Grid items will be dynamically added here -->
    </div>    ","null","","","","","","","","","","","",""
"","2023","html-keyboard-response","210","185521","0.0-12.0","NVEfr0BLDs","5a3d4ffddaea400001ac15af","6617fad957f7c6a12ea16e26","6622cfea0e646e9171dce3c0","break screen"," ","","","","","","","","","","","",""
"","null","html-keyboard-response","211","188038","0.0-13.0-0.0","NVEfr0BLDs","5a3d4ffddaea400001ac15af","6617fad957f7c6a12ea16e26","6622cfea0e646e9171dce3c0","fixation cross","null","","","","","","","","","","","",""
"","null","html-keyboard-response","212","188851","0.0-13.0-1.0","NVEfr0BLDs","5a3d4ffddaea400001ac15af","6617fad957f7c6a12ea16e26","6622cfea0e646e9171dce3c0","
        <div id=""grid-container"">
        <!-- Grid items will be dynamically added here -->
    </div>    ","null","","","","","","","","","","","",""
"","820","html-keyboard-response","213","188871","0.0-13.0-2.0","NVEfr0BLDs","5a3d4ffddaea400001ac15af","6617fad957f7c6a12ea16e26","6622cfea0e646e9171dce3c0","mask grid","q","","","","","Ontogenetic_Distractor_Threat_target","800","onmask","q","4","Ontogenetic","true","experimental"
"","null","html-keyboard-response","214","189589","0.0-13.0-0.1","NVEfr0BLDs","5a3d4ffddaea400001ac15af","6617fad957f7c6a12ea16e26","6622cfea0e646e9171dce3c0","fixation cross","null","","","","","","","","","","","",""
"","null","html-keyboard-response","215","190403","0.0-13.0-1.1","NVEfr0BLDs","5a3d4ffddaea400001ac15af","6617fad957f7c6a12ea16e26","6622cfea0e646e9171dce3c0","
        <div id=""grid-container"">
        <!-- Grid items will be dynamically added here -->
    </div>    ","null","","","","","","","","","","","",""
"","806","html-keyboard-response","216","190409","0.0-13.0-2.1","NVEfr0BLDs","5a3d4ffddaea400001ac15af","6617fad957f7c6a12ea16e26","6622cfea0e646e9171dce3c0","mask grid","p","","","","","Ontogenetic_Distractor_Nonthreat_target","800","onmask","p","5","Ontogenetic","true","experimental"
"","null","html-keyboard-response","217","191123","0.0-13.0-0.2","NVEfr0BLDs","5a3d4ffddaea400001ac15af","6617fad957f7c6a12ea16e26","6622cfea0e646e9171dce3c0","fixation cross","null","","","","","","","","","","","",""
"","813","html-keyboard-response","218","191936","0.0-13.0-1.2","NVEfr0BLDs","5a3d4ffddaea400001ac15af","6617fad957f7c6a12ea16e26","6622cfea0e646e9171dce3c0","image grid","p","","","","","Ontogenetic_Distractor_Nonthreat_target","800","ongrid","p","3","Ontogenetic","true","experimental"
"","null","html-keyboard-response","219","192091","0.0-13.0-2.2","NVEfr0BLDs","5a3d4ffddaea400001ac15af","6617fad957f7c6a12ea16e26","6622cfea0e646e9171dce3c0","
    <div id=""grid-container"">
        <!-- Grid items will be dynamically added here -->
    </div>    ","null","","","","","","","","","","","",""
"","null","html-keyboard-response","220","192815","0.0-13.0-0.3","NVEfr0BLDs","5a3d4ffddaea400001ac15af","6617fad957f7c6a12ea16e26","6622cfea0e646e9171dce3c0","fixation cross","null","","","","","","","","","","","",""
"","617","html-keyboard-response","221","193432","0.0-13.0-1.3","NVEfr0BLDs","5a3d4ffddaea400001ac15af","6617fad957f7c6a12ea16e26","6622cfea0e646e9171dce3c0","image grid","p","","","","","Ontogenetic_Distractor_Nonthreat_target","800","ongrid","p","5","Ontogenetic","true","experimental"
"","null","html-keyboard-response","222","193589","0.0-13.0-2.3","NVEfr0BLDs","5a3d4ffddaea400001ac15af","6617fad957f7c6a12ea16e26","6622cfea0e646e9171dce3c0","
    <div id=""grid-container"">
        <!-- Grid items will be dynamically added here -->
    </div>    ","null","","","","","","","","","","","",""
"","null","html-keyboard-response","223","194297","0.0-13.0-0.4","NVEfr0BLDs","5a3d4ffddaea400001ac15af","6617fad957f7c6a12ea16e26","6622cfea0e646e9171dce3c0","fixation cross","null","","","","","","","","","","","",""
"","null","html-keyboard-response","224","195113","0.0-13.0-1.4","NVEfr0BLDs","5a3d4ffddaea400001ac15af","6617fad957f7c6a12ea16e26","6622cfea0e646e9171dce3c0","
        <div id=""grid-container"">
        <!-- Grid items will be dynamically added here -->
    </div>    ","null","","","","","","","","","","","",""
"","800","html-keyboard-response","225","200117","0.0-13.0-2.4","NVEfr0BLDs","5a3d4ffddaea400001ac15af","6617fad957f7c6a12ea16e26","6622cfea0e646e9171dce3c0","mask grid","null","","","","","Ontogenetic_Distractor_Nonthreat_target","800","onmask","p","3","Ontogenetic","false","experimental"
"","134","html-keyboard-response","226","200835","0.0-13.0-0.5","NVEfr0BLDs","5a3d4ffddaea400001ac15af","6617fad957f7c6a12ea16e26","6622cfea0e646e9171dce3c0","fixation cross","p","","","","","","","","","","","",""
"","708","html-keyboard-response","227","201544","0.0-13.0-1.5","NVEfr0BLDs","5a3d4ffddaea400001ac15af","6617fad957f7c6a12ea16e26","6622cfea0e646e9171dce3c0","image grid","q","","","","","Ontogenetic_Distractor_Threat_target","800","ongrid","q","4","Ontogenetic","true","experimental"
"","null","html-keyboard-response","228","201709","0.0-13.0-2.5","NVEfr0BLDs","5a3d4ffddaea400001ac15af","6617fad957f7c6a12ea16e26","6622cfea0e646e9171dce3c0","
    <div id=""grid-container"">
        <!-- Grid items will be dynamically added here -->
    </div>    ","null","","","","","","","","","","","",""
"","null","html-keyboard-response","229","202432","0.0-13.0-0.6","NVEfr0BLDs","5a3d4ffddaea400001ac15af","6617fad957f7c6a12ea16e26","6622cfea0e646e9171dce3c0","fixation cross","null","","","","","","","","","","","",""
"","null","html-keyboard-response","230","203248","0.0-13.0-1.6","NVEfr0BLDs","5a3d4ffddaea400001ac15af","6617fad957f7c6a12ea16e26","6622cfea0e646e9171dce3c0","
        <div id=""grid-container"">
        <!-- Grid items will be dynamically added here -->
    </div>    ","null","","","","","","","","","","","",""
"","814","html-keyboard-response","231","203262","0.0-13.0-2.6","NVEfr0BLDs","5a3d4ffddaea400001ac15af","6617fad957f7c6a12ea16e26","6622cfea0e646e9171dce3c0","mask grid","q","","","","","Ontogenetic_Distractor_Threat_target","800","onmask","q","2","Ontogenetic","true","experimental"
"","null","html-keyboard-response","232","203980","0.0-13.0-0.7","NVEfr0BLDs","5a3d4ffddaea400001ac15af","6617fad957f7c6a12ea16e26","6622cfea0e646e9171dce3c0","fixation cross","null","","","","","","","","","","","",""
"","null","html-keyboard-response","233","204794","0.0-13.0-1.7","NVEfr0BLDs","5a3d4ffddaea400001ac15af","6617fad957f7c6a12ea16e26","6622cfea0e646e9171dce3c0","
        <div id=""grid-container"">
        <!-- Grid items will be dynamically added here -->
    </div>    ","null","","","","","","","","","","","",""
"","902","html-keyboard-response","234","204896","0.0-13.0-2.7","NVEfr0BLDs","5a3d4ffddaea400001ac15af","6617fad957f7c6a12ea16e26","6622cfea0e646e9171dce3c0","mask grid"," ","","","","","Ontogenetic_Distractor_Nonthreat_target","800","onmask","p","9","Ontogenetic","false","experimental"
"","null","html-keyboard-response","235","205608","0.0-13.0-0.8","NVEfr0BLDs","5a3d4ffddaea400001ac15af","6617fad957f7c6a12ea16e26","6622cfea0e646e9171dce3c0","fixation cross","null","","","","","","","","","","","",""
"","736","html-keyboard-response","236","206344","0.0-13.0-1.8","NVEfr0BLDs","5a3d4ffddaea400001ac15af","6617fad957f7c6a12ea16e26","6622cfea0e646e9171dce3c0","image grid","q","","","","","Ontogenetic_Distractor_Threat_target","800","ongrid","q","1","Ontogenetic","true","experimental"
"","null","html-keyboard-response","237","206497","0.0-13.0-2.8","NVEfr0BLDs","5a3d4ffddaea400001ac15af","6617fad957f7c6a12ea16e26","6622cfea0e646e9171dce3c0","
    <div id=""grid-container"">
        <!-- Grid items will be dynamically added here -->
    </div>    ","null","","","","","","","","","","","",""
"","null","html-keyboard-response","238","207221","0.0-13.0-0.9","NVEfr0BLDs","5a3d4ffddaea400001ac15af","6617fad957f7c6a12ea16e26","6622cfea0e646e9171dce3c0","fixation cross","null","","","","","","","","","","","",""
"","779","html-keyboard-response","239","208000","0.0-13.0-1.9","NVEfr0BLDs","5a3d4ffddaea400001ac15af","6617fad957f7c6a12ea16e26","6622cfea0e646e9171dce3c0","image grid","p","","","","","Ontogenetic_Distractor_Nonthreat_target","800","ongrid","p","4","Ontogenetic","true","experimental"
"","null","html-keyboard-response","240","208152","0.0-13.0-2.9","NVEfr0BLDs","5a3d4ffddaea400001ac15af","6617fad957f7c6a12ea16e26","6622cfea0e646e9171dce3c0","
    <div id=""grid-container"">
        <!-- Grid items will be dynamically added here -->
    </div>    ","null","","","","","","","","","","","",""
"","null","html-keyboard-response","241","208872","0.0-13.0-0.10","NVEfr0BLDs","5a3d4ffddaea400001ac15af","6617fad957f7c6a12ea16e26","6622cfea0e646e9171dce3c0","fixation cross","null","","","","","","","","","","","",""
"","575","html-keyboard-response","242","209448","0.0-13.0-1.10","NVEfr0BLDs","5a3d4ffddaea400001ac15af","6617fad957f7c6a12ea16e26","6622cfea0e646e9171dce3c0","image grid","q","","","","","Ontogenetic_Distractor_Threat_target","800","ongrid","q","1","Ontogenetic","true","experimental"
"","null","html-keyboard-response","243","209606","0.0-13.0-2.10","NVEfr0BLDs","5a3d4ffddaea400001ac15af","6617fad957f7c6a12ea16e26","6622cfea0e646e9171dce3c0","
    <div id=""grid-container"">
        <!-- Grid items will be dynamically added here -->
    </div>    ","null","","","","","","","","","","","",""
"","null","html-keyboard-response","244","210311","0.0-13.0-0.11","NVEfr0BLDs","5a3d4ffddaea400001ac15af","6617fad957f7c6a12ea16e26","6622cfea0e646e9171dce3c0","fixation cross","null","","","","","","","","","","","",""
"","null","html-keyboard-response","245","211119","0.0-13.0-1.11","NVEfr0BLDs","5a3d4ffddaea400001ac15af","6617fad957f7c6a12ea16e26","6622cfea0e646e9171dce3c0","
        <div id=""grid-container"">
        <!-- Grid items will be dynamically added here -->
    </div>    ","null","","","","","","","","","","","",""
"","800","html-keyboard-response","246","216124","0.0-13.0-2.11","NVEfr0BLDs","5a3d4ffddaea400001ac15af","6617fad957f7c6a12ea16e26","6622cfea0e646e9171dce3c0","mask grid","null","","","","","Ontogenetic_Distractor_notarget","800","onmask"," ","2","Ontogenetic","false","experimental"
"","null","html-keyboard-response","247","216855","0.0-13.0-0.12","NVEfr0BLDs","5a3d4ffddaea400001ac15af","6617fad957f7c6a12ea16e26","6622cfea0e646e9171dce3c0","fixation cross","null","","","","","","","","","","","",""
"","null","html-keyboard-response","248","217666","0.0-13.0-1.12","NVEfr0BLDs","5a3d4ffddaea400001ac15af","6617fad957f7c6a12ea16e26","6622cfea0e646e9171dce3c0","
        <div id=""grid-container"">
        <!-- Grid items will be dynamically added here -->
    </div>    ","null","","","","","","","","","","","",""
"","925","html-keyboard-response","249","217792","0.0-13.0-2.12","NVEfr0BLDs","5a3d4ffddaea400001ac15af","6617fad957f7c6a12ea16e26","6622cfea0e646e9171dce3c0","mask grid","p","","","","","Ontogenetic_Distractor_Nonthreat_target","800","onmask","p","5","Ontogenetic","true","experimental"
"","null","html-keyboard-response","250","218513","0.0-13.0-0.13","NVEfr0BLDs","5a3d4ffddaea400001ac15af","6617fad957f7c6a12ea16e26","6622cfea0e646e9171dce3c0","fixation cross","null","","","","","","","","","","","",""
"","null","html-keyboard-response","251","219325","0.0-13.0-1.13","NVEfr0BLDs","5a3d4ffddaea400001ac15af","6617fad957f7c6a12ea16e26","6622cfea0e646e9171dce3c0","
        <div id=""grid-container"">
        <!-- Grid items will be dynamically added here -->
    </div>    ","null","","","","","","","","","","","",""
"","1010","html-keyboard-response","252","219536","0.0-13.0-2.13","NVEfr0BLDs","5a3d4ffddaea400001ac15af","6617fad957f7c6a12ea16e26","6622cfea0e646e9171dce3c0","mask grid","p","","","","","Ontogenetic_Distractor_Nonthreat_target","800","onmask","p","1","Ontogenetic","true","experimental"
"","null","html-keyboard-response","253","220247","0.0-13.0-0.14","NVEfr0BLDs","5a3d4ffddaea400001ac15af","6617fad957f7c6a12ea16e26","6622cfea0e646e9171dce3c0","fixation cross","null","","","","","","","","","","","",""
"","null","html-keyboard-response","254","221059","0.0-13.0-1.14","NVEfr0BLDs","5a3d4ffddaea400001ac15af","6617fad957f7c6a12ea16e26","6622cfea0e646e9171dce3c0","
        <div id=""grid-container"">
        <!-- Grid items will be dynamically added here -->
    </div>    ","null","","","","","","","","","","","",""
"","836","html-keyboard-response","255","221096","0.0-13.0-2.14","NVEfr0BLDs","5a3d4ffddaea400001ac15af","6617fad957f7c6a12ea16e26","6622cfea0e646e9171dce3c0","mask grid","q","","","","","Ontogenetic_Distractor_Threat_target","800","onmask","q","7","Ontogenetic","true","experimental"
"","null","html-keyboard-response","256","221810","0.0-13.0-0.15","NVEfr0BLDs","5a3d4ffddaea400001ac15af","6617fad957f7c6a12ea16e26","6622cfea0e646e9171dce3c0","fixation cross","null","","","","","","","","","","","",""
"","717","html-keyboard-response","257","222528","0.0-13.0-1.15","NVEfr0BLDs","5a3d4ffddaea400001ac15af","6617fad957f7c6a12ea16e26","6622cfea0e646e9171dce3c0","image grid","p","","","","","Ontogenetic_Distractor_Nonthreat_target","800","ongrid","p","8","Ontogenetic","true","experimental"
"","null","html-keyboard-response","258","222683","0.0-13.0-2.15","NVEfr0BLDs","5a3d4ffddaea400001ac15af","6617fad957f7c6a12ea16e26","6622cfea0e646e9171dce3c0","
    <div id=""grid-container"">
        <!-- Grid items will be dynamically added here -->
    </div>    ","null","","","","","","","","","","","",""
"","null","html-keyboard-response","259","223388","0.0-13.0-0.16","NVEfr0BLDs","5a3d4ffddaea400001ac15af","6617fad957f7c6a12ea16e26","6622cfea0e646e9171dce3c0","fixation cross","null","","","","","","","","","","","",""
"","643","html-keyboard-response","260","224032","0.0-13.0-1.16","NVEfr0BLDs","5a3d4ffddaea400001ac15af","6617fad957f7c6a12ea16e26","6622cfea0e646e9171dce3c0","image grid","p","","","","","Ontogenetic_Distractor_Nonthreat_target","800","ongrid","p","9","Ontogenetic","true","experimental"
"","null","html-keyboard-response","261","224187","0.0-13.0-2.16","NVEfr0BLDs","5a3d4ffddaea400001ac15af","6617fad957f7c6a12ea16e26","6622cfea0e646e9171dce3c0","
    <div id=""grid-container"">
        <!-- Grid items will be dynamically added here -->
    </div>    ","null","","","","","","","","","","","",""
"","null","html-keyboard-response","262","224911","0.0-13.0-0.17","NVEfr0BLDs","5a3d4ffddaea400001ac15af","6617fad957f7c6a12ea16e26","6622cfea0e646e9171dce3c0","fixation cross","null","","","","","","","","","","","",""
"","514","html-keyboard-response","263","225425","0.0-13.0-1.17","NVEfr0BLDs","5a3d4ffddaea400001ac15af","6617fad957f7c6a12ea16e26","6622cfea0e646e9171dce3c0","image grid","q","","","","","Ontogenetic_Distractor_Threat_target","800","ongrid","q","4","Ontogenetic","true","experimental"
"","null","html-keyboard-response","264","225587","0.0-13.0-2.17","NVEfr0BLDs","5a3d4ffddaea400001ac15af","6617fad957f7c6a12ea16e26","6622cfea0e646e9171dce3c0","
    <div id=""grid-container"">
        <!-- Grid items will be dynamically added here -->
    </div>    ","null","","","","","","","","","","","",""
"","null","html-keyboard-response","265","226308","0.0-13.0-0.18","NVEfr0BLDs","5a3d4ffddaea400001ac15af","6617fad957f7c6a12ea16e26","6622cfea0e646e9171dce3c0","fixation cross","null","","","","","","","","","","","",""
"","null","html-keyboard-response","266","227115","0.0-13.0-1.18","NVEfr0BLDs","5a3d4ffddaea400001ac15af","6617fad957f7c6a12ea16e26","6622cfea0e646e9171dce3c0","
        <div id=""grid-container"">
        <!-- Grid items will be dynamically added here -->
    </div>    ","null","","","","","","","","","","","",""
"","861","html-keyboard-response","267","227176","0.0-13.0-2.18","NVEfr0BLDs","5a3d4ffddaea400001ac15af","6617fad957f7c6a12ea16e26","6622cfea0e646e9171dce3c0","mask grid","p","","","","","Ontogenetic_Distractor_notarget","800","onmask"," ","3","Ontogenetic","false","experimental"
"","null","html-keyboard-response","268","227884","0.0-13.0-0.19","NVEfr0BLDs","5a3d4ffddaea400001ac15af","6617fad957f7c6a12ea16e26","6622cfea0e646e9171dce3c0","fixation cross","null","","","","","","","","","","","",""
"","563","html-keyboard-response","269","228448","0.0-13.0-1.19","NVEfr0BLDs","5a3d4ffddaea400001ac15af","6617fad957f7c6a12ea16e26","6622cfea0e646e9171dce3c0","image grid","q","","","","","Ontogenetic_Distractor_Threat_target","800","ongrid","q","4","Ontogenetic","true","experimental"
"","null","html-keyboard-response","270","228607","0.0-13.0-2.19","NVEfr0BLDs","5a3d4ffddaea400001ac15af","6617fad957f7c6a12ea16e26","6622cfea0e646e9171dce3c0","
    <div id=""grid-container"">
        <!-- Grid items will be dynamically added here -->
    </div>    ","null","","","","","","","","","","","",""
"","null","html-keyboard-response","271","229313","0.0-13.0-0.20","NVEfr0BLDs","5a3d4ffddaea400001ac15af","6617fad957f7c6a12ea16e26","6622cfea0e646e9171dce3c0","fixation cross","null","","","","","","","","","","","",""
"","582","html-keyboard-response","272","229896","0.0-13.0-1.20","NVEfr0BLDs","5a3d4ffddaea400001ac15af","6617fad957f7c6a12ea16e26","6622cfea0e646e9171dce3c0","image grid","q","","","","","Ontogenetic_Distractor_Threat_target","800","ongrid","q","2","Ontogenetic","true","experimental"
"","null","html-keyboard-response","273","230056","0.0-13.0-2.20","NVEfr0BLDs","5a3d4ffddaea400001ac15af","6617fad957f7c6a12ea16e26","6622cfea0e646e9171dce3c0","
    <div id=""grid-container"">
        <!-- Grid items will be dynamically added here -->
    </div>    ","null","","","","","","","","","","","",""
"","null","html-keyboard-response","274","230778","0.0-13.0-0.21","NVEfr0BLDs","5a3d4ffddaea400001ac15af","6617fad957f7c6a12ea16e26","6622cfea0e646e9171dce3c0","fixation cross","null","","","","","","","","","","","",""
"","549","html-keyboard-response","275","231328","0.0-13.0-1.21","NVEfr0BLDs","5a3d4ffddaea400001ac15af","6617fad957f7c6a12ea16e26","6622cfea0e646e9171dce3c0","image grid","q","","","","","Ontogenetic_Distractor_Threat_target","800","ongrid","q","2","Ontogenetic","true","experimental"
"","null","html-keyboard-response","276","231486","0.0-13.0-2.21","NVEfr0BLDs","5a3d4ffddaea400001ac15af","6617fad957f7c6a12ea16e26","6622cfea0e646e9171dce3c0","
    <div id=""grid-container"">
        <!-- Grid items will be dynamically added here -->
    </div>    ","null","","","","","","","","","","","",""
"","null","html-keyboard-response","277","232210","0.0-13.0-0.22","NVEfr0BLDs","5a3d4ffddaea400001ac15af","6617fad957f7c6a12ea16e26","6622cfea0e646e9171dce3c0","fixation cross","null","","","","","","","","","","","",""
"","589","html-keyboard-response","278","232800","0.0-13.0-1.22","NVEfr0BLDs","5a3d4ffddaea400001ac15af","6617fad957f7c6a12ea16e26","6622cfea0e646e9171dce3c0","image grid","q","","","","","Ontogenetic_Distractor_Nonthreat_target","800","ongrid","p","4","Ontogenetic","false","experimental"
"","null","html-keyboard-response","279","232960","0.0-13.0-2.22","NVEfr0BLDs","5a3d4ffddaea400001ac15af","6617fad957f7c6a12ea16e26","6622cfea0e646e9171dce3c0","
    <div id=""grid-container"">
        <!-- Grid items will be dynamically added here -->
    </div>    ","null","","","","","","","","","","","",""
"","null","html-keyboard-response","280","233682","0.0-13.0-0.23","NVEfr0BLDs","5a3d4ffddaea400001ac15af","6617fad957f7c6a12ea16e26","6622cfea0e646e9171dce3c0","fixation cross","null","","","","","","","","","","","",""
"","670","html-keyboard-response","281","234353","0.0-13.0-1.23","NVEfr0BLDs","5a3d4ffddaea400001ac15af","6617fad957f7c6a12ea16e26","6622cfea0e646e9171dce3c0","image grid","q","","","","","Ontogenetic_Distractor_Threat_target","800","ongrid","q","8","Ontogenetic","true","experimental"
"","null","html-keyboard-response","282","234506","0.0-13.0-2.23","NVEfr0BLDs","5a3d4ffddaea400001ac15af","6617fad957f7c6a12ea16e26","6622cfea0e646e9171dce3c0","
    <div id=""grid-container"">
        <!-- Grid items will be dynamically added here -->
    </div>    ","null","","","","","","","","","","","",""
"","null","html-keyboard-response","283","235217","0.0-13.0-0.24","NVEfr0BLDs","5a3d4ffddaea400001ac15af","6617fad957f7c6a12ea16e26","6622cfea0e646e9171dce3c0","fixation cross","null","","","","","","","","","","","",""
"","null","html-keyboard-response","284","236025","0.0-13.0-1.24","NVEfr0BLDs","5a3d4ffddaea400001ac15af","6617fad957f7c6a12ea16e26","6622cfea0e646e9171dce3c0","
        <div id=""grid-container"">
        <!-- Grid items will be dynamically added here -->
    </div>    ","null","","","","","","","","","","","",""
"","902","html-keyboard-response","285","236128","0.0-13.0-2.24","NVEfr0BLDs","5a3d4ffddaea400001ac15af","6617fad957f7c6a12ea16e26","6622cfea0e646e9171dce3c0","mask grid","p","","","","","Ontogenetic_Distractor_Threat_target","800","onmask","q","5","Ontogenetic","false","experimental"
"","null","html-keyboard-response","286","236841","0.0-13.0-0.25","NVEfr0BLDs","5a3d4ffddaea400001ac15af","6617fad957f7c6a12ea16e26","6622cfea0e646e9171dce3c0","fixation cross","null","","","","","","","","","","","",""
"","590","html-keyboard-response","287","237432","0.0-13.0-1.25","NVEfr0BLDs","5a3d4ffddaea400001ac15af","6617fad957f7c6a12ea16e26","6622cfea0e646e9171dce3c0","image grid","q","","","","","Ontogenetic_Distractor_Threat_target","800","ongrid","q","4","Ontogenetic","true","experimental"
"","null","html-keyboard-response","288","237587","0.0-13.0-2.25","NVEfr0BLDs","5a3d4ffddaea400001ac15af","6617fad957f7c6a12ea16e26","6622cfea0e646e9171dce3c0","
    <div id=""grid-container"">
        <!-- Grid items will be dynamically added here -->
    </div>    ","null","","","","","","","","","","","",""
"","null","html-keyboard-response","289","238310","0.0-13.0-0.26","NVEfr0BLDs","5a3d4ffddaea400001ac15af","6617fad957f7c6a12ea16e26","6622cfea0e646e9171dce3c0","fixation cross","null","","","","","","","","","","","",""
"","673","html-keyboard-response","290","238984","0.0-13.0-1.26","NVEfr0BLDs","5a3d4ffddaea400001ac15af","6617fad957f7c6a12ea16e26","6622cfea0e646e9171dce3c0","image grid","p","","","","","Ontogenetic_Distractor_Nonthreat_target","800","ongrid","p","8","Ontogenetic","true","experimental"
"","null","html-keyboard-response","291","239139","0.0-13.0-2.26","NVEfr0BLDs","5a3d4ffddaea400001ac15af","6617fad957f7c6a12ea16e26","6622cfea0e646e9171dce3c0","
    <div id=""grid-container"">
        <!-- Grid items will be dynamically added here -->
    </div>    ","null","","","","","","","","","","","",""
"","null","html-keyboard-response","292","239860","0.0-13.0-0.27","NVEfr0BLDs","5a3d4ffddaea400001ac15af","6617fad957f7c6a12ea16e26","6622cfea0e646e9171dce3c0","fixation cross","null","","","","","","","","","","","",""
"","null","html-keyboard-response","293","240673","0.0-13.0-1.27","NVEfr0BLDs","5a3d4ffddaea400001ac15af","6617fad957f7c6a12ea16e26","6622cfea0e646e9171dce3c0","
        <div id=""grid-container"">
        <!-- Grid items will be dynamically added here -->
    </div>    ","null","","","","","","","","","","","",""
"","895","html-keyboard-response","294","240768","0.0-13.0-2.27","NVEfr0BLDs","5a3d4ffddaea400001ac15af","6617fad957f7c6a12ea16e26","6622cfea0e646e9171dce3c0","mask grid","p","","","","","Ontogenetic_Distractor_Nonthreat_target","800","onmask","p","1","Ontogenetic","true","experimental"
"","null","html-keyboard-response","295","241487","0.0-13.0-0.28","NVEfr0BLDs","5a3d4ffddaea400001ac15af","6617fad957f7c6a12ea16e26","6622cfea0e646e9171dce3c0","fixation cross","null","","","","","","","","","","","",""
"","560","html-keyboard-response","296","242048","0.0-13.0-1.28","NVEfr0BLDs","5a3d4ffddaea400001ac15af","6617fad957f7c6a12ea16e26","6622cfea0e646e9171dce3c0","image grid","q","","","","","Ontogenetic_Distractor_Threat_target","800","ongrid","q","5","Ontogenetic","true","experimental"
"","null","html-keyboard-response","297","242209","0.0-13.0-2.28","NVEfr0BLDs","5a3d4ffddaea400001ac15af","6617fad957f7c6a12ea16e26","6622cfea0e646e9171dce3c0","
    <div id=""grid-container"">
        <!-- Grid items will be dynamically added here -->
    </div>    ","null","","","","","","","","","","","",""
"","null","html-keyboard-response","298","242935","0.0-13.0-0.29","NVEfr0BLDs","5a3d4ffddaea400001ac15af","6617fad957f7c6a12ea16e26","6622cfea0e646e9171dce3c0","fixation cross","null","","","","","","","","","","","",""
"","577","html-keyboard-response","299","243512","0.0-13.0-1.29","NVEfr0BLDs","5a3d4ffddaea400001ac15af","6617fad957f7c6a12ea16e26","6622cfea0e646e9171dce3c0","image grid","q","","","","","Ontogenetic_Distractor_Threat_target","800","ongrid","q","8","Ontogenetic","true","experimental"
"","null","html-keyboard-response","300","243671","0.0-13.0-2.29","NVEfr0BLDs","5a3d4ffddaea400001ac15af","6617fad957f7c6a12ea16e26","6622cfea0e646e9171dce3c0","
    <div id=""grid-container"">
        <!-- Grid items will be dynamically added here -->
    </div>    ","null","","","","","","","","","","","",""
"","null","html-keyboard-response","301","244391","0.0-13.0-0.30","NVEfr0BLDs","5a3d4ffddaea400001ac15af","6617fad957f7c6a12ea16e26","6622cfea0e646e9171dce3c0","fixation cross","null","","","","","","","","","","","",""
"","800","html-keyboard-response","302","245192","0.0-13.0-1.30","NVEfr0BLDs","5a3d4ffddaea400001ac15af","6617fad957f7c6a12ea16e26","6622cfea0e646e9171dce3c0","image grid","p","","","","","Ontogenetic_Distractor_notarget","800","ongrid"," ","5","Ontogenetic","false","experimental"
"","null","html-keyboard-response","303","245355","0.0-13.0-2.30","NVEfr0BLDs","5a3d4ffddaea400001ac15af","6617fad957f7c6a12ea16e26","6622cfea0e646e9171dce3c0","
    <div id=""grid-container"">
        <!-- Grid items will be dynamically added here -->
    </div>    ","null","","","","","","","","","","","",""
"","null","html-keyboard-response","304","246062","0.0-13.0-0.31","NVEfr0BLDs","5a3d4ffddaea400001ac15af","6617fad957f7c6a12ea16e26","6622cfea0e646e9171dce3c0","fixation cross","null","","","","","","","","","","","",""
"","803","html-keyboard-response","305","246865","0.0-13.0-1.31","NVEfr0BLDs","5a3d4ffddaea400001ac15af","6617fad957f7c6a12ea16e26","6622cfea0e646e9171dce3c0","image grid","q","","","","","Ontogenetic_Distractor_Nonthreat_target","800","ongrid","p","7","Ontogenetic","false","experimental"
"","null","html-keyboard-response","306","247030","0.0-13.0-2.31","NVEfr0BLDs","5a3d4ffddaea400001ac15af","6617fad957f7c6a12ea16e26","6622cfea0e646e9171dce3c0","
    <div id=""grid-container"">
        <!-- Grid items will be dynamically added here -->
    </div>    ","null","","","","","","","","","","","",""
"","null","html-keyboard-response","307","247734","0.0-13.0-0.32","NVEfr0BLDs","5a3d4ffddaea400001ac15af","6617fad957f7c6a12ea16e26","6622cfea0e646e9171dce3c0","fixation cross","null","","","","","","","","","","","",""
"","null","html-keyboard-response","308","248535","0.0-13.0-1.32","NVEfr0BLDs","5a3d4ffddaea400001ac15af","6617fad957f7c6a12ea16e26","6622cfea0e646e9171dce3c0","
        <div id=""grid-container"">
        <!-- Grid items will be dynamically added here -->
    </div>    ","null","","","","","","","","","","","",""
"","800","html-keyboard-response","309","253550","0.0-13.0-2.32","NVEfr0BLDs","5a3d4ffddaea400001ac15af","6617fad957f7c6a12ea16e26","6622cfea0e646e9171dce3c0","mask grid","null","","","","","Ontogenetic_Distractor_notarget","800","onmask"," ","4","Ontogenetic","false","experimental"
"","null","html-keyboard-response","310","254271","0.0-13.0-0.33","NVEfr0BLDs","5a3d4ffddaea400001ac15af","6617fad957f7c6a12ea16e26","6622cfea0e646e9171dce3c0","fixation cross","null","","","","","","","","","","","",""
"","744","html-keyboard-response","311","255016","0.0-13.0-1.33","NVEfr0BLDs","5a3d4ffddaea400001ac15af","6617fad957f7c6a12ea16e26","6622cfea0e646e9171dce3c0","image grid","q","","","","","Ontogenetic_Distractor_Threat_target","800","ongrid","q","2","Ontogenetic","true","experimental"
"","null","html-keyboard-response","312","255174","0.0-13.0-2.33","NVEfr0BLDs","5a3d4ffddaea400001ac15af","6617fad957f7c6a12ea16e26","6622cfea0e646e9171dce3c0","
    <div id=""grid-container"">
        <!-- Grid items will be dynamically added here -->
    </div>    ","null","","","","","","","","","","","",""
"","null","html-keyboard-response","313","255895","0.0-13.0-0.34","NVEfr0BLDs","5a3d4ffddaea400001ac15af","6617fad957f7c6a12ea16e26","6622cfea0e646e9171dce3c0","fixation cross","null","","","","","","","","","","","",""
"","672","html-keyboard-response","314","256568","0.0-13.0-1.34","NVEfr0BLDs","5a3d4ffddaea400001ac15af","6617fad957f7c6a12ea16e26","6622cfea0e646e9171dce3c0","image grid","p","","","","","Ontogenetic_Distractor_Nonthreat_target","800","ongrid","p","4","Ontogenetic","true","experimental"
"","null","html-keyboard-response","315","256720","0.0-13.0-2.34","NVEfr0BLDs","5a3d4ffddaea400001ac15af","6617fad957f7c6a12ea16e26","6622cfea0e646e9171dce3c0","
    <div id=""grid-container"">
        <!-- Grid items will be dynamically added here -->
    </div>    ","null","","","","","","","","","","","",""
"","null","html-keyboard-response","316","257425","0.0-13.0-0.35","NVEfr0BLDs","5a3d4ffddaea400001ac15af","6617fad957f7c6a12ea16e26","6622cfea0e646e9171dce3c0","fixation cross","null","","","","","","","","","","","",""
"","783","html-keyboard-response","317","258209","0.0-13.0-1.35","NVEfr0BLDs","5a3d4ffddaea400001ac15af","6617fad957f7c6a12ea16e26","6622cfea0e646e9171dce3c0","image grid","p","","","","","Ontogenetic_Distractor_Nonthreat_target","800","ongrid","p","2","Ontogenetic","true","experimental"
"","null","html-keyboard-response","318","258363","0.0-13.0-2.35","NVEfr0BLDs","5a3d4ffddaea400001ac15af","6617fad957f7c6a12ea16e26","6622cfea0e646e9171dce3c0","
    <div id=""grid-container"">
        <!-- Grid items will be dynamically added here -->
    </div>    ","null","","","","","","","","","","","",""
"","null","html-keyboard-response","319","259085","0.0-13.0-0.36","NVEfr0BLDs","5a3d4ffddaea400001ac15af","6617fad957f7c6a12ea16e26","6622cfea0e646e9171dce3c0","fixation cross","null","","","","","","","","","","","",""
"","563","html-keyboard-response","320","259648","0.0-13.0-1.36","NVEfr0BLDs","5a3d4ffddaea400001ac15af","6617fad957f7c6a12ea16e26","6622cfea0e646e9171dce3c0","image grid","p","","","","","Ontogenetic_Distractor_Nonthreat_target","800","ongrid","p","4","Ontogenetic","true","experimental"
"","null","html-keyboard-response","321","259806","0.0-13.0-2.36","NVEfr0BLDs","5a3d4ffddaea400001ac15af","6617fad957f7c6a12ea16e26","6622cfea0e646e9171dce3c0","
    <div id=""grid-container"">
        <!-- Grid items will be dynamically added here -->
    </div>    ","null","","","","","","","","","","","",""
"","null","html-keyboard-response","322","260513","0.0-13.0-0.37","NVEfr0BLDs","5a3d4ffddaea400001ac15af","6617fad957f7c6a12ea16e26","6622cfea0e646e9171dce3c0","fixation cross","null","","","","","","","","","","","",""
"","422","html-keyboard-response","323","260936","0.0-13.0-1.37","NVEfr0BLDs","5a3d4ffddaea400001ac15af","6617fad957f7c6a12ea16e26","6622cfea0e646e9171dce3c0","image grid","q","","","","","Ontogenetic_Distractor_Threat_target","800","ongrid","q","4","Ontogenetic","true","experimental"
"","null","html-keyboard-response","324","261097","0.0-13.0-2.37","NVEfr0BLDs","5a3d4ffddaea400001ac15af","6617fad957f7c6a12ea16e26","6622cfea0e646e9171dce3c0","
    <div id=""grid-container"">
        <!-- Grid items will be dynamically added here -->
    </div>    ","null","","","","","","","","","","","",""
"","null","html-keyboard-response","325","261819","0.0-13.0-0.38","NVEfr0BLDs","5a3d4ffddaea400001ac15af","6617fad957f7c6a12ea16e26","6622cfea0e646e9171dce3c0","fixation cross","null","","","","","","","","","","","",""
"","477","html-keyboard-response","326","262296","0.0-13.0-1.38","NVEfr0BLDs","5a3d4ffddaea400001ac15af","6617fad957f7c6a12ea16e26","6622cfea0e646e9171dce3c0","image grid","q","","","","","Ontogenetic_Distractor_Threat_target","800","ongrid","q","1","Ontogenetic","true","experimental"
"","null","html-keyboard-response","327","262449","0.0-13.0-2.38","NVEfr0BLDs","5a3d4ffddaea400001ac15af","6617fad957f7c6a12ea16e26","6622cfea0e646e9171dce3c0","
    <div id=""grid-container"">
        <!-- Grid items will be dynamically added here -->
    </div>    ","null","","","","","","","","","","","",""
"","null","html-keyboard-response","328","263158","0.0-13.0-0.39","NVEfr0BLDs","5a3d4ffddaea400001ac15af","6617fad957f7c6a12ea16e26","6622cfea0e646e9171dce3c0","fixation cross","null","","","","","","","","","","","",""
"","594","html-keyboard-response","329","263752","0.0-13.0-1.39","NVEfr0BLDs","5a3d4ffddaea400001ac15af","6617fad957f7c6a12ea16e26","6622cfea0e646e9171dce3c0","image grid","p","","","","","Ontogenetic_Distractor_Nonthreat_target","800","ongrid","p","4","Ontogenetic","true","experimental"
"","null","html-keyboard-response","330","263916","0.0-13.0-2.39","NVEfr0BLDs","5a3d4ffddaea400001ac15af","6617fad957f7c6a12ea16e26","6622cfea0e646e9171dce3c0","
    <div id=""grid-container"">
        <!-- Grid items will be dynamically added here -->
    </div>    ","null","","","","","","","","","","","",""
"","1395","html-keyboard-response","331","265528","0.0-14.0","NVEfr0BLDs","5a3d4ffddaea400001ac15af","6617fad957f7c6a12ea16e26","6622cfea0e646e9171dce3c0","break screen"," ","","","","","","","","","","","",""
"","null","html-keyboard-response","332","268046","0.0-15.0-0.0","NVEfr0BLDs","5a3d4ffddaea400001ac15af","6617fad957f7c6a12ea16e26","6622cfea0e646e9171dce3c0","fixation cross","null","","","","","","","","","","","",""
"","1769","html-keyboard-response","333","269816","0.0-15.0-1.0","NVEfr0BLDs","5a3d4ffddaea400001ac15af","6617fad957f7c6a12ea16e26","6622cfea0e646e9171dce3c0","image grid","p","","","","","Phylogenetic_Distractor_Threat_target","2500","ongrid","q","3","Phylogenetic","false","experimental"
"","null","html-keyboard-response","334","269974","0.0-15.0-2.0","NVEfr0BLDs","5a3d4ffddaea400001ac15af","6617fad957f7c6a12ea16e26","6622cfea0e646e9171dce3c0","
    <div id=""grid-container"">
        <!-- Grid items will be dynamically added here -->
    </div>    ","null","","","","","","","","","","","",""
"","null","html-keyboard-response","335","270702","0.0-15.0-0.1","NVEfr0BLDs","5a3d4ffddaea400001ac15af","6617fad957f7c6a12ea16e26","6622cfea0e646e9171dce3c0","fixation cross","null","","","","","","","","","","","",""
"","890","html-keyboard-response","336","271592","0.0-15.0-1.1","NVEfr0BLDs","5a3d4ffddaea400001ac15af","6617fad957f7c6a12ea16e26","6622cfea0e646e9171dce3c0","image grid","q","","","","","Phylogenetic_Distractor_Threat_target","2500","ongrid","q","3","Phylogenetic","true","experimental"
"","null","html-keyboard-response","337","271747","0.0-15.0-2.1","NVEfr0BLDs","5a3d4ffddaea400001ac15af","6617fad957f7c6a12ea16e26","6622cfea0e646e9171dce3c0","
    <div id=""grid-container"">
        <!-- Grid items will be dynamically added here -->
    </div>    ","null","","","","","","","","","","","",""
"","null","html-keyboard-response","338","272468","0.0-15.0-0.2","NVEfr0BLDs","5a3d4ffddaea400001ac15af","6617fad957f7c6a12ea16e26","6622cfea0e646e9171dce3c0","fixation cross","null","","","","","","","","","","","",""
"","1268","html-keyboard-response","339","273736","0.0-15.0-1.2","NVEfr0BLDs","5a3d4ffddaea400001ac15af","6617fad957f7c6a12ea16e26","6622cfea0e646e9171dce3c0","image grid"," ","","","","","Phylogenetic_Distractor_Nonthreat_target","2500","ongrid","p","2","Phylogenetic","false","experimental"
"","null","html-keyboard-response","340","273894","0.0-15.0-2.2","NVEfr0BLDs","5a3d4ffddaea400001ac15af","6617fad957f7c6a12ea16e26","6622cfea0e646e9171dce3c0","
    <div id=""grid-container"">
        <!-- Grid items will be dynamically added here -->
    </div>    ","null","","","","","","","","","","","",""
"","null","html-keyboard-response","341","274615","0.0-15.0-0.3","NVEfr0BLDs","5a3d4ffddaea400001ac15af","6617fad957f7c6a12ea16e26","6622cfea0e646e9171dce3c0","fixation cross","null","","","","","","","","","","","",""
"","1713","html-keyboard-response","342","276328","0.0-15.0-1.3","NVEfr0BLDs","5a3d4ffddaea400001ac15af","6617fad957f7c6a12ea16e26","6622cfea0e646e9171dce3c0","image grid","q","","","","","Phylogenetic_Distractor_Threat_target","2500","ongrid","q","8","Phylogenetic","true","experimental"
"","null","html-keyboard-response","343","276485","0.0-15.0-2.3","NVEfr0BLDs","5a3d4ffddaea400001ac15af","6617fad957f7c6a12ea16e26","6622cfea0e646e9171dce3c0","
    <div id=""grid-container"">
        <!-- Grid items will be dynamically added here -->
    </div>    ","null","","","","","","","","","","","",""
"","null","html-keyboard-response","344","277206","0.0-15.0-0.4","NVEfr0BLDs","5a3d4ffddaea400001ac15af","6617fad957f7c6a12ea16e26","6622cfea0e646e9171dce3c0","fixation cross","null","","","","","","","","","","","",""
"","705","html-keyboard-response","345","277912","0.0-15.0-1.4","NVEfr0BLDs","5a3d4ffddaea400001ac15af","6617fad957f7c6a12ea16e26","6622cfea0e646e9171dce3c0","image grid","q","","","","","Phylogenetic_Distractor_Threat_target","2500","ongrid","q","2","Phylogenetic","true","experimental"
"","null","html-keyboard-response","346","278070","0.0-15.0-2.4","NVEfr0BLDs","5a3d4ffddaea400001ac15af","6617fad957f7c6a12ea16e26","6622cfea0e646e9171dce3c0","
    <div id=""grid-container"">
        <!-- Grid items will be dynamically added here -->
    </div>    ","null","","","","","","","","","","","",""
"","null","html-keyboard-response","347","278786","0.0-15.0-0.5","NVEfr0BLDs","5a3d4ffddaea400001ac15af","6617fad957f7c6a12ea16e26","6622cfea0e646e9171dce3c0","fixation cross","null","","","","","","","","","","","",""
"","542","html-keyboard-response","348","279328","0.0-15.0-1.5","NVEfr0BLDs","5a3d4ffddaea400001ac15af","6617fad957f7c6a12ea16e26","6622cfea0e646e9171dce3c0","image grid","q","","","","","Phylogenetic_Distractor_Threat_target","2500","ongrid","q","5","Phylogenetic","true","experimental"
"","null","html-keyboard-response","349","279491","0.0-15.0-2.5","NVEfr0BLDs","5a3d4ffddaea400001ac15af","6617fad957f7c6a12ea16e26","6622cfea0e646e9171dce3c0","
    <div id=""grid-container"">
        <!-- Grid items will be dynamically added here -->
    </div>    ","null","","","","","","","","","","","",""
"","null","html-keyboard-response","350","280202","0.0-15.0-0.6","NVEfr0BLDs","5a3d4ffddaea400001ac15af","6617fad957f7c6a12ea16e26","6622cfea0e646e9171dce3c0","fixation cross","null","","","","","","","","","","","",""
"","718","html-keyboard-response","351","280920","0.0-15.0-1.6","NVEfr0BLDs","5a3d4ffddaea400001ac15af","6617fad957f7c6a12ea16e26","6622cfea0e646e9171dce3c0","image grid","p","","","","","Phylogenetic_Distractor_Nonthreat_target","2500","ongrid","p","4","Phylogenetic","true","experimental"
"","null","html-keyboard-response","352","281072","0.0-15.0-2.6","NVEfr0BLDs","5a3d4ffddaea400001ac15af","6617fad957f7c6a12ea16e26","6622cfea0e646e9171dce3c0","
    <div id=""grid-container"">
        <!-- Grid items will be dynamically added here -->
    </div>    ","null","","","","","","","","","","","",""
"","null","html-keyboard-response","353","281783","0.0-15.0-0.7","NVEfr0BLDs","5a3d4ffddaea400001ac15af","6617fad957f7c6a12ea16e26","6622cfea0e646e9171dce3c0","fixation cross","null","","","","","","","","","","","",""
"","713","html-keyboard-response","354","282496","0.0-15.0-1.7","NVEfr0BLDs","5a3d4ffddaea400001ac15af","6617fad957f7c6a12ea16e26","6622cfea0e646e9171dce3c0","image grid","q","","","","","Phylogenetic_Distractor_Threat_target","2500","ongrid","q","7","Phylogenetic","true","experimental"
"","null","html-keyboard-response","355","282650","0.0-15.0-2.7","NVEfr0BLDs","5a3d4ffddaea400001ac15af","6617fad957f7c6a12ea16e26","6622cfea0e646e9171dce3c0","
    <div id=""grid-container"">
        <!-- Grid items will be dynamically added here -->
    </div>    ","null","","","","","","","","","","","",""
"","null","html-keyboard-response","356","283371","0.0-15.0-0.8","NVEfr0BLDs","5a3d4ffddaea400001ac15af","6617fad957f7c6a12ea16e26","6622cfea0e646e9171dce3c0","fixation cross","null","","","","","","","","","","","",""
"","1485","html-keyboard-response","357","284856","0.0-15.0-1.8","NVEfr0BLDs","5a3d4ffddaea400001ac15af","6617fad957f7c6a12ea16e26","6622cfea0e646e9171dce3c0","image grid","q","","","","","Phylogenetic_Distractor_Threat_target","2500","ongrid","q","6","Phylogenetic","true","experimental"
"","null","html-keyboard-response","358","285017","0.0-15.0-2.8","NVEfr0BLDs","5a3d4ffddaea400001ac15af","6617fad957f7c6a12ea16e26","6622cfea0e646e9171dce3c0","
    <div id=""grid-container"">
        <!-- Grid items will be dynamically added here -->
    </div>    ","null","","","","","","","","","","","",""
"","null","html-keyboard-response","359","285738","0.0-15.0-0.9","NVEfr0BLDs","5a3d4ffddaea400001ac15af","6617fad957f7c6a12ea16e26","6622cfea0e646e9171dce3c0","fixation cross","null","","","","","","","","","","","",""
"","null","html-keyboard-response","360","288244","0.0-15.0-1.9","NVEfr0BLDs","5a3d4ffddaea400001ac15af","6617fad957f7c6a12ea16e26","6622cfea0e646e9171dce3c0","
        <div id=""grid-container"">
        <!-- Grid items will be dynamically added here -->
    </div>    ","null","","","","","","","","","","","",""
"","2500","html-keyboard-response","361","293252","0.0-15.0-2.9","NVEfr0BLDs","5a3d4ffddaea400001ac15af","6617fad957f7c6a12ea16e26","6622cfea0e646e9171dce3c0","mask grid","null","","","","","Phylogenetic_Distractor_Nonthreat_target","2500","onmask","p","6","Phylogenetic","false","experimental"
"","null","html-keyboard-response","362","293975","0.0-15.0-0.10","NVEfr0BLDs","5a3d4ffddaea400001ac15af","6617fad957f7c6a12ea16e26","6622cfea0e646e9171dce3c0","fixation cross","null","","","","","","","","","","","",""
"","2184","html-keyboard-response","363","296160","0.0-15.0-1.10","NVEfr0BLDs","5a3d4ffddaea400001ac15af","6617fad957f7c6a12ea16e26","6622cfea0e646e9171dce3c0","image grid"," ","","","","","Phylogenetic_Distractor_notarget","2500","ongrid"," ","6","Phylogenetic","true","experimental"
"","null","html-keyboard-response","364","296326","0.0-15.0-2.10","NVEfr0BLDs","5a3d4ffddaea400001ac15af","6617fad957f7c6a12ea16e26","6622cfea0e646e9171dce3c0","
    <div id=""grid-container"">
        <!-- Grid items will be dynamically added here -->
    </div>    ","null","","","","","","","","","","","",""
"","null","html-keyboard-response","365","297047","0.0-15.0-0.11","NVEfr0BLDs","5a3d4ffddaea400001ac15af","6617fad957f7c6a12ea16e26","6622cfea0e646e9171dce3c0","fixation cross","null","","","","","","","","","","","",""
"","1121","html-keyboard-response","366","298168","0.0-15.0-1.11","NVEfr0BLDs","5a3d4ffddaea400001ac15af","6617fad957f7c6a12ea16e26","6622cfea0e646e9171dce3c0","image grid","q","","","","","Phylogenetic_Distractor_Threat_target","2500","ongrid","q","3","Phylogenetic","true","experimental"
"","null","html-keyboard-response","367","298325","0.0-15.0-2.11","NVEfr0BLDs","5a3d4ffddaea400001ac15af","6617fad957f7c6a12ea16e26","6622cfea0e646e9171dce3c0","
    <div id=""grid-container"">
        <!-- Grid items will be dynamically added here -->
    </div>    ","null","","","","","","","","","","","",""
"","null","html-keyboard-response","368","299049","0.0-15.0-0.12","NVEfr0BLDs","5a3d4ffddaea400001ac15af","6617fad957f7c6a12ea16e26","6622cfea0e646e9171dce3c0","fixation cross","null","","","","","","","","","","","",""
"","903","html-keyboard-response","369","299952","0.0-15.0-1.12","NVEfr0BLDs","5a3d4ffddaea400001ac15af","6617fad957f7c6a12ea16e26","6622cfea0e646e9171dce3c0","image grid","q","","","","","Phylogenetic_Distractor_Threat_target","2500","ongrid","q","3","Phylogenetic","true","experimental"
"","null","html-keyboard-response","370","300108","0.0-15.0-2.12","NVEfr0BLDs","5a3d4ffddaea400001ac15af","6617fad957f7c6a12ea16e26","6622cfea0e646e9171dce3c0","
    <div id=""grid-container"">
        <!-- Grid items will be dynamically added here -->
    </div>    ","null","","","","","","","","","","","",""
