"success","rt","trial_type","trial_index","time_elapsed","internal_node_id","unique_identifier","subject_id","study_id","session_id","stimulus","response","timeout","failed_images","failed_audio","failed_video","task","respondedwhen","time_manipulation","correctresponse","targetimagelocation","blocktype","correct","roundtype"
"true","2332","fullscreen","0","3342","0.0-0.0","PySjZ5ENc8","5b06efd1732c5d000154de23","6617fad957f7c6a12ea16e26","6622cf82e4fc4fafc94931f3","","","","","","","","","","","","","",""
"","7108","html-keyboard-response","1","10453","0.0-1.0","PySjZ5ENc8","5b06efd1732c5d000154de23","6617fad957f7c6a12ea16e26","6622cf82e4fc4fafc94931f3","instruction screen 0"," ","","","","","","","","","","","",""
"true","","preload","2","13835","0.0-2.0","PySjZ5ENc8","5b06efd1732c5d000154de23","6617fad957f7c6a12ea16e26","6622cf82e4fc4fafc94931f3","","","false","[]","[]","[]","","","","","","","",""
"","8344","html-keyboard-response","3","22180","0.0-3.0","PySjZ5ENc8","5b06efd1732c5d000154de23","6617fad957f7c6a12ea16e26","6622cf82e4fc4fafc94931f3","instruction screen 1"," ","","","","","","","","","","","",""
"","8908","html-keyboard-response","4","31090","0.0-4.0","PySjZ5ENc8","5b06efd1732c5d000154de23","6617fad957f7c6a12ea16e26","6622cf82e4fc4fafc94931f3","instruction screen 2","q","","","","","","","","","","","",""
"","3116","html-keyboard-response","5","34209","0.0-5.0","PySjZ5ENc8","5b06efd1732c5d000154de23","6617fad957f7c6a12ea16e26","6622cf82e4fc4fafc94931f3","instruction screen 3","p","","","","","","","","","","","",""
"","5160","html-keyboard-response","6","39371","0.0-6.0","PySjZ5ENc8","5b06efd1732c5d000154de23","6617fad957f7c6a12ea16e26","6622cf82e4fc4fafc94931f3","instruction screen 4"," ","","","","","","","","","","","",""
"","4075","html-keyboard-response","7","43449","0.0-7.0","PySjZ5ENc8","5b06efd1732c5d000154de23","6617fad957f7c6a12ea16e26","6622cf82e4fc4fafc94931f3","instruction screen 5"," ","","","","","","","","","","","",""
"","null","html-keyboard-response","8","43956","0.0-8.0","PySjZ5ENc8","5b06efd1732c5d000154de23","6617fad957f7c6a12ea16e26","6622cf82e4fc4fafc94931f3","fixation cross","null","","","","","","","","","","","",""
"","null","html-keyboard-response","9","44463","0.0-9.0-0.0","PySjZ5ENc8","5b06efd1732c5d000154de23","6617fad957f7c6a12ea16e26","6622cf82e4fc4fafc94931f3","fixation cross","null","","","","","","","","","","","",""
"","null","html-keyboard-response","10","47469","0.0-9.0-1.0","PySjZ5ENc8","5b06efd1732c5d000154de23","6617fad957f7c6a12ea16e26","6622cf82e4fc4fafc94931f3","
        <div id=""grid-container"">
        <!-- Grid items will be dynamically added here -->
    </div>    ","null","","","","","","","","","","","",""
"","3208","html-keyboard-response","11","47679","0.0-9.0-2.0","PySjZ5ENc8","5b06efd1732c5d000154de23","6617fad957f7c6a12ea16e26","6622cf82e4fc4fafc94931f3","mask grid","q","","","","","Ontogenetic_Distractor_Threat_target","onmask","3000","q","1","Ontogenetic","true","practice"
"","null","html-keyboard-response","12","48892","0.0-9.0-3.0","PySjZ5ENc8","5b06efd1732c5d000154de23","6617fad957f7c6a12ea16e26","6622cf82e4fc4fafc94931f3","feedback screen","null","","","","","","","","","","","",""
"","null","html-keyboard-response","13","49398","0.0-9.0-0.1","PySjZ5ENc8","5b06efd1732c5d000154de23","6617fad957f7c6a12ea16e26","6622cf82e4fc4fafc94931f3","fixation cross","null","","","","","","","","","","","",""
"","1882","html-keyboard-response","14","51280","0.0-9.0-1.1","PySjZ5ENc8","5b06efd1732c5d000154de23","6617fad957f7c6a12ea16e26","6622cf82e4fc4fafc94931f3","image grid","p","","","","","Phylogenetic_Distractor_Nonthreat_target","ongrid","2900","p","2","Ontogenetic","true","practice"
"","null","html-keyboard-response","15","51438","0.0-9.0-2.1","PySjZ5ENc8","5b06efd1732c5d000154de23","6617fad957f7c6a12ea16e26","6622cf82e4fc4fafc94931f3","
    <div id=""grid-container"">
        <!-- Grid items will be dynamically added here -->
    </div>    ","null","","","","","","","","","","","",""
"","null","html-keyboard-response","16","52650","0.0-9.0-3.1","PySjZ5ENc8","5b06efd1732c5d000154de23","6617fad957f7c6a12ea16e26","6622cf82e4fc4fafc94931f3","feedback screen","null","","","","","","","","","","","",""
"","null","html-keyboard-response","17","53156","0.0-9.0-0.2","PySjZ5ENc8","5b06efd1732c5d000154de23","6617fad957f7c6a12ea16e26","6622cf82e4fc4fafc94931f3","fixation cross","null","","","","","","","","","","","",""
"","1483","html-keyboard-response","18","54641","0.0-9.0-1.2","PySjZ5ENc8","5b06efd1732c5d000154de23","6617fad957f7c6a12ea16e26","6622cf82e4fc4fafc94931f3","image grid"," ","","","","","Phylogenetic_Distractor_notarget","ongrid","2800"," ","9","Ontogenetic","true","practice"
"","null","html-keyboard-response","19","54797","0.0-9.0-2.2","PySjZ5ENc8","5b06efd1732c5d000154de23","6617fad957f7c6a12ea16e26","6622cf82e4fc4fafc94931f3","
    <div id=""grid-container"">
        <!-- Grid items will be dynamically added here -->
    </div>    ","null","","","","","","","","","","","",""
"","null","html-keyboard-response","20","56008","0.0-9.0-3.2","PySjZ5ENc8","5b06efd1732c5d000154de23","6617fad957f7c6a12ea16e26","6622cf82e4fc4fafc94931f3","feedback screen","null","","","","","","","","","","","",""
"","null","html-keyboard-response","21","56510","0.0-9.0-0.3","PySjZ5ENc8","5b06efd1732c5d000154de23","6617fad957f7c6a12ea16e26","6622cf82e4fc4fafc94931f3","fixation cross","null","","","","","","","","","","","",""
"","949","html-keyboard-response","22","57461","0.0-9.0-1.3","PySjZ5ENc8","5b06efd1732c5d000154de23","6617fad957f7c6a12ea16e26","6622cf82e4fc4fafc94931f3","image grid","q","","","","","Ontogenetic_Distractor_Threat_target","ongrid","2700","q","1","Ontogenetic","true","practice"
"","null","html-keyboard-response","23","57617","0.0-9.0-2.3","PySjZ5ENc8","5b06efd1732c5d000154de23","6617fad957f7c6a12ea16e26","6622cf82e4fc4fafc94931f3","
    <div id=""grid-container"">
        <!-- Grid items will be dynamically added here -->
    </div>    ","null","","","","","","","","","","","",""
"","null","html-keyboard-response","24","58826","0.0-9.0-3.3","PySjZ5ENc8","5b06efd1732c5d000154de23","6617fad957f7c6a12ea16e26","6622cf82e4fc4fafc94931f3","feedback screen","null","","","","","","","","","","","",""
"","null","html-keyboard-response","25","59332","0.0-9.0-0.4","PySjZ5ENc8","5b06efd1732c5d000154de23","6617fad957f7c6a12ea16e26","6622cf82e4fc4fafc94931f3","fixation cross","null","","","","","","","","","","","",""
"","1638","html-keyboard-response","26","60971","0.0-9.0-1.4","PySjZ5ENc8","5b06efd1732c5d000154de23","6617fad957f7c6a12ea16e26","6622cf82e4fc4fafc94931f3","image grid"," ","","","","","Ontogenetic_Distractor_notarget","ongrid","2600"," ","3","Ontogenetic","true","practice"
"","null","html-keyboard-response","27","61125","0.0-9.0-2.4","PySjZ5ENc8","5b06efd1732c5d000154de23","6617fad957f7c6a12ea16e26","6622cf82e4fc4fafc94931f3","
    <div id=""grid-container"">
        <!-- Grid items will be dynamically added here -->
    </div>    ","null","","","","","","","","","","","",""
"","null","html-keyboard-response","28","62337","0.0-9.0-3.4","PySjZ5ENc8","5b06efd1732c5d000154de23","6617fad957f7c6a12ea16e26","6622cf82e4fc4fafc94931f3","feedback screen","null","","","","","","","","","","","",""
"","null","html-keyboard-response","29","62843","0.0-9.0-0.5","PySjZ5ENc8","5b06efd1732c5d000154de23","6617fad957f7c6a12ea16e26","6622cf82e4fc4fafc94931f3","fixation cross","null","","","","","","","","","","","",""
"","1424","html-keyboard-response","30","64269","0.0-9.0-1.5","PySjZ5ENc8","5b06efd1732c5d000154de23","6617fad957f7c6a12ea16e26","6622cf82e4fc4fafc94931f3","image grid","p","","","","","Phylogenetic_Distractor_Nonthreat_target","ongrid","2500","p","6","Ontogenetic","true","practice"
"","null","html-keyboard-response","31","64425","0.0-9.0-2.5","PySjZ5ENc8","5b06efd1732c5d000154de23","6617fad957f7c6a12ea16e26","6622cf82e4fc4fafc94931f3","
    <div id=""grid-container"">
        <!-- Grid items will be dynamically added here -->
    </div>    ","null","","","","","","","","","","","",""
"","null","html-keyboard-response","32","65637","0.0-9.0-3.5","PySjZ5ENc8","5b06efd1732c5d000154de23","6617fad957f7c6a12ea16e26","6622cf82e4fc4fafc94931f3","feedback screen","null","","","","","","","","","","","",""
"","null","html-keyboard-response","33","66143","0.0-9.0-0.6","PySjZ5ENc8","5b06efd1732c5d000154de23","6617fad957f7c6a12ea16e26","6622cf82e4fc4fafc94931f3","fixation cross","null","","","","","","","","","","","",""
"","1127","html-keyboard-response","34","67270","0.0-9.0-1.6","PySjZ5ENc8","5b06efd1732c5d000154de23","6617fad957f7c6a12ea16e26","6622cf82e4fc4fafc94931f3","image grid","q","","","","","Phylogenetic_Distractor_Threat_target","ongrid","2400","q","1","Ontogenetic","true","practice"
"","null","html-keyboard-response","35","67427","0.0-9.0-2.6","PySjZ5ENc8","5b06efd1732c5d000154de23","6617fad957f7c6a12ea16e26","6622cf82e4fc4fafc94931f3","
    <div id=""grid-container"">
        <!-- Grid items will be dynamically added here -->
    </div>    ","null","","","","","","","","","","","",""
"","null","html-keyboard-response","36","68639","0.0-9.0-3.6","PySjZ5ENc8","5b06efd1732c5d000154de23","6617fad957f7c6a12ea16e26","6622cf82e4fc4fafc94931f3","feedback screen","null","","","","","","","","","","","",""
"","null","html-keyboard-response","37","69145","0.0-9.0-0.7","PySjZ5ENc8","5b06efd1732c5d000154de23","6617fad957f7c6a12ea16e26","6622cf82e4fc4fafc94931f3","fixation cross","null","","","","","","","","","","","",""
"","1093","html-keyboard-response","38","70239","0.0-9.0-1.7","PySjZ5ENc8","5b06efd1732c5d000154de23","6617fad957f7c6a12ea16e26","6622cf82e4fc4fafc94931f3","image grid","p","","","","","Ontogenetic_Distractor_Threat_target","ongrid","2300","q","6","Ontogenetic","false","practice"
"","null","html-keyboard-response","39","70395","0.0-9.0-2.7","PySjZ5ENc8","5b06efd1732c5d000154de23","6617fad957f7c6a12ea16e26","6622cf82e4fc4fafc94931f3","
    <div id=""grid-container"">
        <!-- Grid items will be dynamically added here -->
    </div>    ","null","","","","","","","","","","","",""
"","null","html-keyboard-response","40","71606","0.0-9.0-3.7","PySjZ5ENc8","5b06efd1732c5d000154de23","6617fad957f7c6a12ea16e26","6622cf82e4fc4fafc94931f3","feedback screen","null","","","","","","","","","","","",""
"","null","html-keyboard-response","41","72114","0.0-9.0-0.8","PySjZ5ENc8","5b06efd1732c5d000154de23","6617fad957f7c6a12ea16e26","6622cf82e4fc4fafc94931f3","fixation cross","null","","","","","","","","","","","",""
"","1541","html-keyboard-response","42","73659","0.0-9.0-1.8","PySjZ5ENc8","5b06efd1732c5d000154de23","6617fad957f7c6a12ea16e26","6622cf82e4fc4fafc94931f3","image grid","q","","","","","Phylogenetic_Distractor_Threat_target","ongrid","2200","q","7","Ontogenetic","true","practice"
"","null","html-keyboard-response","43","73816","0.0-9.0-2.8","PySjZ5ENc8","5b06efd1732c5d000154de23","6617fad957f7c6a12ea16e26","6622cf82e4fc4fafc94931f3","
    <div id=""grid-container"">
        <!-- Grid items will be dynamically added here -->
    </div>    ","null","","","","","","","","","","","",""
"","null","html-keyboard-response","44","75029","0.0-9.0-3.8","PySjZ5ENc8","5b06efd1732c5d000154de23","6617fad957f7c6a12ea16e26","6622cf82e4fc4fafc94931f3","feedback screen","null","","","","","","","","","","","",""
"","null","html-keyboard-response","45","75536","0.0-9.0-0.9","PySjZ5ENc8","5b06efd1732c5d000154de23","6617fad957f7c6a12ea16e26","6622cf82e4fc4fafc94931f3","fixation cross","null","","","","","","","","","","","",""
"","2204","html-keyboard-response","46","77741","0.0-9.0-1.9","PySjZ5ENc8","5b06efd1732c5d000154de23","6617fad957f7c6a12ea16e26","6622cf82e4fc4fafc94931f3","image grid","p","","","","","Ontogenetic_Distractor_Nonthreat_target","ongrid","2100","p","7","Ontogenetic","true","practice"
"","null","html-keyboard-response","47","77898","0.0-9.0-2.9","PySjZ5ENc8","5b06efd1732c5d000154de23","6617fad957f7c6a12ea16e26","6622cf82e4fc4fafc94931f3","
    <div id=""grid-container"">
        <!-- Grid items will be dynamically added here -->
    </div>    ","null","","","","","","","","","","","",""
"","null","html-keyboard-response","48","79110","0.0-9.0-3.9","PySjZ5ENc8","5b06efd1732c5d000154de23","6617fad957f7c6a12ea16e26","6622cf82e4fc4fafc94931f3","feedback screen","null","","","","","","","","","","","",""
"","null","html-keyboard-response","49","79615","0.0-9.0-0.10","PySjZ5ENc8","5b06efd1732c5d000154de23","6617fad957f7c6a12ea16e26","6622cf82e4fc4fafc94931f3","fixation cross","null","","","","","","","","","","","",""
"","1215","html-keyboard-response","50","80831","0.0-9.0-1.10","PySjZ5ENc8","5b06efd1732c5d000154de23","6617fad957f7c6a12ea16e26","6622cf82e4fc4fafc94931f3","image grid","p","","","","","Ontogenetic_Distractor_Nonthreat_target","ongrid","2000","p","4","Ontogenetic","true","practice"
"","null","html-keyboard-response","51","80988","0.0-9.0-2.10","PySjZ5ENc8","5b06efd1732c5d000154de23","6617fad957f7c6a12ea16e26","6622cf82e4fc4fafc94931f3","
    <div id=""grid-container"">
        <!-- Grid items will be dynamically added here -->
    </div>    ","null","","","","","","","","","","","",""
"","null","html-keyboard-response","52","82197","0.0-9.0-3.10","PySjZ5ENc8","5b06efd1732c5d000154de23","6617fad957f7c6a12ea16e26","6622cf82e4fc4fafc94931f3","feedback screen","null","","","","","","","","","","","",""
"","null","html-keyboard-response","53","82704","0.0-9.0-0.11","PySjZ5ENc8","5b06efd1732c5d000154de23","6617fad957f7c6a12ea16e26","6622cf82e4fc4fafc94931f3","fixation cross","null","","","","","","","","","","","",""
"","1244","html-keyboard-response","54","83949","0.0-9.0-1.11","PySjZ5ENc8","5b06efd1732c5d000154de23","6617fad957f7c6a12ea16e26","6622cf82e4fc4fafc94931f3","image grid"," ","","","","","Phylogenetic_Distractor_Nonthreat_target","ongrid","1900","p","4","Ontogenetic","false","practice"
"","null","html-keyboard-response","55","84105","0.0-9.0-2.11","PySjZ5ENc8","5b06efd1732c5d000154de23","6617fad957f7c6a12ea16e26","6622cf82e4fc4fafc94931f3","
    <div id=""grid-container"">
        <!-- Grid items will be dynamically added here -->
    </div>    ","null","","","","","","","","","","","",""
"","null","html-keyboard-response","56","85312","0.0-9.0-3.11","PySjZ5ENc8","5b06efd1732c5d000154de23","6617fad957f7c6a12ea16e26","6622cf82e4fc4fafc94931f3","feedback screen","null","","","","","","","","","","","",""
"","null","html-keyboard-response","57","85818","0.0-9.0-0.12","PySjZ5ENc8","5b06efd1732c5d000154de23","6617fad957f7c6a12ea16e26","6622cf82e4fc4fafc94931f3","fixation cross","null","","","","","","","","","","","",""
"","null","html-keyboard-response","58","87836","0.0-9.0-1.12","PySjZ5ENc8","5b06efd1732c5d000154de23","6617fad957f7c6a12ea16e26","6622cf82e4fc4fafc94931f3","
        <div id=""grid-container"">
        <!-- Grid items will be dynamically added here -->
    </div>    ","null","","","","","","","","","","","",""
"","2008","html-keyboard-response","59","88045","0.0-9.0-2.12","PySjZ5ENc8","5b06efd1732c5d000154de23","6617fad957f7c6a12ea16e26","6622cf82e4fc4fafc94931f3","mask grid","p","","","","","Ontogenetic_Distractor_notarget","onmask","1800"," ","8","Ontogenetic","false","practice"
"","null","html-keyboard-response","60","89253","0.0-9.0-3.12","PySjZ5ENc8","5b06efd1732c5d000154de23","6617fad957f7c6a12ea16e26","6622cf82e4fc4fafc94931f3","feedback screen","null","","","","","","","","","","","",""
"","null","html-keyboard-response","61","89760","0.0-9.0-0.13","PySjZ5ENc8","5b06efd1732c5d000154de23","6617fad957f7c6a12ea16e26","6622cf82e4fc4fafc94931f3","fixation cross","null","","","","","","","","","","","",""
"","1134","html-keyboard-response","62","90896","0.0-9.0-1.13","PySjZ5ENc8","5b06efd1732c5d000154de23","6617fad957f7c6a12ea16e26","6622cf82e4fc4fafc94931f3","image grid","p","","","","","Ontogenetic_Distractor_Nonthreat_target","ongrid","1700","p","8","Ontogenetic","true","practice"
"","null","html-keyboard-response","63","91052","0.0-9.0-2.13","PySjZ5ENc8","5b06efd1732c5d000154de23","6617fad957f7c6a12ea16e26","6622cf82e4fc4fafc94931f3","
    <div id=""grid-container"">
        <!-- Grid items will be dynamically added here -->
    </div>    ","null","","","","","","","","","","","",""
"","null","html-keyboard-response","64","92263","0.0-9.0-3.13","PySjZ5ENc8","5b06efd1732c5d000154de23","6617fad957f7c6a12ea16e26","6622cf82e4fc4fafc94931f3","feedback screen","null","","","","","","","","","","","",""
"","null","html-keyboard-response","65","92770","0.0-9.0-0.14","PySjZ5ENc8","5b06efd1732c5d000154de23","6617fad957f7c6a12ea16e26","6622cf82e4fc4fafc94931f3","fixation cross","null","","","","","","","","","","","",""
"","869","html-keyboard-response","66","93639","0.0-9.0-1.14","PySjZ5ENc8","5b06efd1732c5d000154de23","6617fad957f7c6a12ea16e26","6622cf82e4fc4fafc94931f3","image grid","q","","","","","Ontogenetic_Distractor_Threat_target","ongrid","1600","q","8","Ontogenetic","true","practice"
"","null","html-keyboard-response","67","93796","0.0-9.0-2.14","PySjZ5ENc8","5b06efd1732c5d000154de23","6617fad957f7c6a12ea16e26","6622cf82e4fc4fafc94931f3","
    <div id=""grid-container"">
        <!-- Grid items will be dynamically added here -->
    </div>    ","null","","","","","","","","","","","",""
"","null","html-keyboard-response","68","95007","0.0-9.0-3.14","PySjZ5ENc8","5b06efd1732c5d000154de23","6617fad957f7c6a12ea16e26","6622cf82e4fc4fafc94931f3","feedback screen","null","","","","","","","","","","","",""
"","null","html-keyboard-response","69","95514","0.0-9.0-0.15","PySjZ5ENc8","5b06efd1732c5d000154de23","6617fad957f7c6a12ea16e26","6622cf82e4fc4fafc94931f3","fixation cross","null","","","","","","","","","","","",""
"","873","html-keyboard-response","70","96388","0.0-9.0-1.15","PySjZ5ENc8","5b06efd1732c5d000154de23","6617fad957f7c6a12ea16e26","6622cf82e4fc4fafc94931f3","image grid","p","","","","","Ontogenetic_Distractor_Nonthreat_target","ongrid","1500","p","5","Ontogenetic","true","practice"
"","null","html-keyboard-response","71","96544","0.0-9.0-2.15","PySjZ5ENc8","5b06efd1732c5d000154de23","6617fad957f7c6a12ea16e26","6622cf82e4fc4fafc94931f3","
    <div id=""grid-container"">
        <!-- Grid items will be dynamically added here -->
    </div>    ","null","","","","","","","","","","","",""
"","null","html-keyboard-response","72","97870","0.0-9.0-3.15","PySjZ5ENc8","5b06efd1732c5d000154de23","6617fad957f7c6a12ea16e26","6622cf82e4fc4fafc94931f3","feedback screen","null","","","","","","","","","","","",""
"","null","html-keyboard-response","73","98377","0.0-9.0-0.16","PySjZ5ENc8","5b06efd1732c5d000154de23","6617fad957f7c6a12ea16e26","6622cf82e4fc4fafc94931f3","fixation cross","null","","","","","","","","","","","",""
"","1083","html-keyboard-response","74","99460","0.0-9.0-1.16","PySjZ5ENc8","5b06efd1732c5d000154de23","6617fad957f7c6a12ea16e26","6622cf82e4fc4fafc94931f3","image grid"," ","","","","","Phylogenetic_Distractor_notarget","ongrid","1400"," ","4","Ontogenetic","true","practice"
"","null","html-keyboard-response","75","99613","0.0-9.0-2.16","PySjZ5ENc8","5b06efd1732c5d000154de23","6617fad957f7c6a12ea16e26","6622cf82e4fc4fafc94931f3","
    <div id=""grid-container"">
        <!-- Grid items will be dynamically added here -->
    </div>    ","null","","","","","","","","","","","",""
"","null","html-keyboard-response","76","100822","0.0-9.0-3.16","PySjZ5ENc8","5b06efd1732c5d000154de23","6617fad957f7c6a12ea16e26","6622cf82e4fc4fafc94931f3","feedback screen","null","","","","","","","","","","","",""
"","null","html-keyboard-response","77","101328","0.0-9.0-0.17","PySjZ5ENc8","5b06efd1732c5d000154de23","6617fad957f7c6a12ea16e26","6622cf82e4fc4fafc94931f3","fixation cross","null","","","","","","","","","","","",""
"","null","html-keyboard-response","78","102635","0.0-9.0-1.17","PySjZ5ENc8","5b06efd1732c5d000154de23","6617fad957f7c6a12ea16e26","6622cf82e4fc4fafc94931f3","
        <div id=""grid-container"">
        <!-- Grid items will be dynamically added here -->
    </div>    ","null","","","","","","","","","","","",""
"","4006","html-keyboard-response","79","105341","0.0-9.0-2.17","PySjZ5ENc8","5b06efd1732c5d000154de23","6617fad957f7c6a12ea16e26","6622cf82e4fc4fafc94931f3","mask grid"," ","","","","","Phylogenetic_Distractor_Nonthreat_target","onmask","1300","p","9","Ontogenetic","false","practice"
"","null","html-keyboard-response","80","106553","0.0-9.0-3.17","PySjZ5ENc8","5b06efd1732c5d000154de23","6617fad957f7c6a12ea16e26","6622cf82e4fc4fafc94931f3","feedback screen","null","","","","","","","","","","","",""
"","null","html-keyboard-response","81","107060","0.0-9.0-0.18","PySjZ5ENc8","5b06efd1732c5d000154de23","6617fad957f7c6a12ea16e26","6622cf82e4fc4fafc94931f3","fixation cross","null","","","","","","","","","","","",""
"","null","html-keyboard-response","82","108266","0.0-9.0-1.18","PySjZ5ENc8","5b06efd1732c5d000154de23","6617fad957f7c6a12ea16e26","6622cf82e4fc4fafc94931f3","
        <div id=""grid-container"">
        <!-- Grid items will be dynamically added here -->
    </div>    ","null","","","","","","","","","","","",""
"","1361","html-keyboard-response","83","108429","0.0-9.0-2.18","PySjZ5ENc8","5b06efd1732c5d000154de23","6617fad957f7c6a12ea16e26","6622cf82e4fc4fafc94931f3","mask grid"," ","","","","","Phylogenetic_Distractor_Threat_target","onmask","1200","q","6","Ontogenetic","false","practice"
"","null","html-keyboard-response","84","109640","0.0-9.0-3.18","PySjZ5ENc8","5b06efd1732c5d000154de23","6617fad957f7c6a12ea16e26","6622cf82e4fc4fafc94931f3","feedback screen","null","","","","","","","","","","","",""
"","null","html-keyboard-response","85","110146","0.0-9.0-0.19","PySjZ5ENc8","5b06efd1732c5d000154de23","6617fad957f7c6a12ea16e26","6622cf82e4fc4fafc94931f3","fixation cross","null","","","","","","","","","","","",""
"","null","html-keyboard-response","86","111249","0.0-9.0-1.19","PySjZ5ENc8","5b06efd1732c5d000154de23","6617fad957f7c6a12ea16e26","6622cf82e4fc4fafc94931f3","
        <div id=""grid-container"">
        <!-- Grid items will be dynamically added here -->
    </div>    ","null","","","","","","","","","","","",""
"","1190","html-keyboard-response","87","111338","0.0-9.0-2.19","PySjZ5ENc8","5b06efd1732c5d000154de23","6617fad957f7c6a12ea16e26","6622cf82e4fc4fafc94931f3","mask grid","q","","","","","Phylogenetic_Distractor_Threat_target","onmask","1100","q","1","Ontogenetic","true","practice"
"","null","html-keyboard-response","88","112640","0.0-9.0-3.19","PySjZ5ENc8","5b06efd1732c5d000154de23","6617fad957f7c6a12ea16e26","6622cf82e4fc4fafc94931f3","feedback screen","null","","","","","","","","","","","",""
"","5029","html-keyboard-response","89","117670","0.0-10.0","PySjZ5ENc8","5b06efd1732c5d000154de23","6617fad957f7c6a12ea16e26","6622cf82e4fc4fafc94931f3","pre-experimental_briefing"," ","","","","","","","","","","","",""
"","null","html-keyboard-response","90","120182","0.0-11.0-0.0","PySjZ5ENc8","5b06efd1732c5d000154de23","6617fad957f7c6a12ea16e26","6622cf82e4fc4fafc94931f3","fixation cross","null","","","","","","","","","","","",""
"","2048","html-keyboard-response","91","122231","0.0-11.0-1.0","PySjZ5ENc8","5b06efd1732c5d000154de23","6617fad957f7c6a12ea16e26","6622cf82e4fc4fafc94931f3","image grid"," ","","","","","Ontogenetic_Distractor_Nonthreat_target","ongrid","2500","p","5","Ontogenetic","false","experimental"
"","null","html-keyboard-response","92","122388","0.0-11.0-2.0","PySjZ5ENc8","5b06efd1732c5d000154de23","6617fad957f7c6a12ea16e26","6622cf82e4fc4fafc94931f3","
    <div id=""grid-container"">
        <!-- Grid items will be dynamically added here -->
    </div>    ","null","","","","","","","","","","","",""
"","null","html-keyboard-response","93","123099","0.0-11.0-0.1","PySjZ5ENc8","5b06efd1732c5d000154de23","6617fad957f7c6a12ea16e26","6622cf82e4fc4fafc94931f3","fixation cross","null","","","","","","","","","","","",""
"","2010","html-keyboard-response","94","125110","0.0-11.0-1.1","PySjZ5ENc8","5b06efd1732c5d000154de23","6617fad957f7c6a12ea16e26","6622cf82e4fc4fafc94931f3","image grid","p","","","","","Ontogenetic_Distractor_Nonthreat_target","ongrid","2500","p","7","Ontogenetic","true","experimental"
"","null","html-keyboard-response","95","125267","0.0-11.0-2.1","PySjZ5ENc8","5b06efd1732c5d000154de23","6617fad957f7c6a12ea16e26","6622cf82e4fc4fafc94931f3","
    <div id=""grid-container"">
        <!-- Grid items will be dynamically added here -->
    </div>    ","null","","","","","","","","","","","",""
"","null","html-keyboard-response","96","125977","0.0-11.0-0.2","PySjZ5ENc8","5b06efd1732c5d000154de23","6617fad957f7c6a12ea16e26","6622cf82e4fc4fafc94931f3","fixation cross","null","","","","","","","","","","","",""
"","1294","html-keyboard-response","97","127271","0.0-11.0-1.2","PySjZ5ENc8","5b06efd1732c5d000154de23","6617fad957f7c6a12ea16e26","6622cf82e4fc4fafc94931f3","image grid","p","","","","","Ontogenetic_Distractor_Nonthreat_target","ongrid","2500","p","9","Ontogenetic","true","experimental"
"","null","html-keyboard-response","98","127428","0.0-11.0-2.2","PySjZ5ENc8","5b06efd1732c5d000154de23","6617fad957f7c6a12ea16e26","6622cf82e4fc4fafc94931f3","
    <div id=""grid-container"">
        <!-- Grid items will be dynamically added here -->
    </div>    ","null","","","","","","","","","","","",""
"","null","html-keyboard-response","99","128135","0.0-11.0-0.3","PySjZ5ENc8","5b06efd1732c5d000154de23","6617fad957f7c6a12ea16e26","6622cf82e4fc4fafc94931f3","fixation cross","null","","","","","","","","","","","",""
"","1011","html-keyboard-response","100","129146","0.0-11.0-1.3","PySjZ5ENc8","5b06efd1732c5d000154de23","6617fad957f7c6a12ea16e26","6622cf82e4fc4fafc94931f3","image grid","q","","","","","Ontogenetic_Distractor_Threat_target","ongrid","2500","q","5","Ontogenetic","true","experimental"
"","null","html-keyboard-response","101","129302","0.0-11.0-2.3","PySjZ5ENc8","5b06efd1732c5d000154de23","6617fad957f7c6a12ea16e26","6622cf82e4fc4fafc94931f3","
    <div id=""grid-container"">
        <!-- Grid items will be dynamically added here -->
    </div>    ","null","","","","","","","","","","","",""
"","null","html-keyboard-response","102","130014","0.0-11.0-0.4","PySjZ5ENc8","5b06efd1732c5d000154de23","6617fad957f7c6a12ea16e26","6622cf82e4fc4fafc94931f3","fixation cross","null","","","","","","","","","","","",""
"","1157","html-keyboard-response","103","131171","0.0-11.0-1.4","PySjZ5ENc8","5b06efd1732c5d000154de23","6617fad957f7c6a12ea16e26","6622cf82e4fc4fafc94931f3","image grid","p","","","","","Ontogenetic_Distractor_Nonthreat_target","ongrid","2500","p","1","Ontogenetic","true","experimental"
"","null","html-keyboard-response","104","131328","0.0-11.0-2.4","PySjZ5ENc8","5b06efd1732c5d000154de23","6617fad957f7c6a12ea16e26","6622cf82e4fc4fafc94931f3","
    <div id=""grid-container"">
        <!-- Grid items will be dynamically added here -->
    </div>    ","null","","","","","","","","","","","",""
"","null","html-keyboard-response","105","132035","0.0-11.0-0.5","PySjZ5ENc8","5b06efd1732c5d000154de23","6617fad957f7c6a12ea16e26","6622cf82e4fc4fafc94931f3","fixation cross","null","","","","","","","","","","","",""
"","1444","html-keyboard-response","106","133479","0.0-11.0-1.5","PySjZ5ENc8","5b06efd1732c5d000154de23","6617fad957f7c6a12ea16e26","6622cf82e4fc4fafc94931f3","image grid","q","","","","","Ontogenetic_Distractor_Threat_target","ongrid","2500","q","6","Ontogenetic","true","experimental"
"","null","html-keyboard-response","107","133636","0.0-11.0-2.5","PySjZ5ENc8","5b06efd1732c5d000154de23","6617fad957f7c6a12ea16e26","6622cf82e4fc4fafc94931f3","
    <div id=""grid-container"">
        <!-- Grid items will be dynamically added here -->
    </div>    ","null","","","","","","","","","","","",""
"","null","html-keyboard-response","108","134348","0.0-11.0-0.6","PySjZ5ENc8","5b06efd1732c5d000154de23","6617fad957f7c6a12ea16e26","6622cf82e4fc4fafc94931f3","fixation cross","null","","","","","","","","","","","",""
"","1126","html-keyboard-response","109","135475","0.0-11.0-1.6","PySjZ5ENc8","5b06efd1732c5d000154de23","6617fad957f7c6a12ea16e26","6622cf82e4fc4fafc94931f3","image grid","p","","","","","Ontogenetic_Distractor_Nonthreat_target","ongrid","2500","p","1","Ontogenetic","true","experimental"
"","null","html-keyboard-response","110","135631","0.0-11.0-2.6","PySjZ5ENc8","5b06efd1732c5d000154de23","6617fad957f7c6a12ea16e26","6622cf82e4fc4fafc94931f3","
    <div id=""grid-container"">
        <!-- Grid items will be dynamically added here -->
    </div>    ","null","","","","","","","","","","","",""
"","null","html-keyboard-response","111","136344","0.0-11.0-0.7","PySjZ5ENc8","5b06efd1732c5d000154de23","6617fad957f7c6a12ea16e26","6622cf82e4fc4fafc94931f3","fixation cross","null","","","","","","","","","","","",""
"","898","html-keyboard-response","112","137246","0.0-11.0-1.7","PySjZ5ENc8","5b06efd1732c5d000154de23","6617fad957f7c6a12ea16e26","6622cf82e4fc4fafc94931f3","image grid","q","","","","","Ontogenetic_Distractor_Threat_target","ongrid","2500","q","6","Ontogenetic","true","experimental"
"","null","html-keyboard-response","113","137403","0.0-11.0-2.7","PySjZ5ENc8","5b06efd1732c5d000154de23","6617fad957f7c6a12ea16e26","6622cf82e4fc4fafc94931f3","
    <div id=""grid-container"">
        <!-- Grid items will be dynamically added here -->
    </div>    ","null","","","","","","","","","","","",""
"","null","html-keyboard-response","114","138115","0.0-11.0-0.8","PySjZ5ENc8","5b06efd1732c5d000154de23","6617fad957f7c6a12ea16e26","6622cf82e4fc4fafc94931f3","fixation cross","null","","","","","","","","","","","",""
"","1185","html-keyboard-response","115","139300","0.0-11.0-1.8","PySjZ5ENc8","5b06efd1732c5d000154de23","6617fad957f7c6a12ea16e26","6622cf82e4fc4fafc94931f3","image grid","q","","","","","Ontogenetic_Distractor_Threat_target","ongrid","2500","q","2","Ontogenetic","true","experimental"
"","null","html-keyboard-response","116","139455","0.0-11.0-2.8","PySjZ5ENc8","5b06efd1732c5d000154de23","6617fad957f7c6a12ea16e26","6622cf82e4fc4fafc94931f3","
    <div id=""grid-container"">
        <!-- Grid items will be dynamically added here -->
    </div>    ","null","","","","","","","","","","","",""
"","null","html-keyboard-response","117","140162","0.0-11.0-0.9","PySjZ5ENc8","5b06efd1732c5d000154de23","6617fad957f7c6a12ea16e26","6622cf82e4fc4fafc94931f3","fixation cross","null","","","","","","","","","","","",""
"","1298","html-keyboard-response","118","141462","0.0-11.0-1.9","PySjZ5ENc8","5b06efd1732c5d000154de23","6617fad957f7c6a12ea16e26","6622cf82e4fc4fafc94931f3","image grid","p","","","","","Ontogenetic_Distractor_Nonthreat_target","ongrid","2500","p","8","Ontogenetic","true","experimental"
"","null","html-keyboard-response","119","141620","0.0-11.0-2.9","PySjZ5ENc8","5b06efd1732c5d000154de23","6617fad957f7c6a12ea16e26","6622cf82e4fc4fafc94931f3","
    <div id=""grid-container"">
        <!-- Grid items will be dynamically added here -->
    </div>    ","null","","","","","","","","","","","",""
"","null","html-keyboard-response","120","142332","0.0-11.0-0.10","PySjZ5ENc8","5b06efd1732c5d000154de23","6617fad957f7c6a12ea16e26","6622cf82e4fc4fafc94931f3","fixation cross","null","","","","","","","","","","","",""
"","824","html-keyboard-response","121","143158","0.0-11.0-1.10","PySjZ5ENc8","5b06efd1732c5d000154de23","6617fad957f7c6a12ea16e26","6622cf82e4fc4fafc94931f3","image grid","p","","","","","Ontogenetic_Distractor_Nonthreat_target","ongrid","2500","p","5","Ontogenetic","true","experimental"
"","null","html-keyboard-response","122","143315","0.0-11.0-2.10","PySjZ5ENc8","5b06efd1732c5d000154de23","6617fad957f7c6a12ea16e26","6622cf82e4fc4fafc94931f3","
    <div id=""grid-container"">
        <!-- Grid items will be dynamically added here -->
    </div>    ","null","","","","","","","","","","","",""
"","null","html-keyboard-response","123","144026","0.0-11.0-0.11","PySjZ5ENc8","5b06efd1732c5d000154de23","6617fad957f7c6a12ea16e26","6622cf82e4fc4fafc94931f3","fixation cross","null","","","","","","","","","","","",""
"","1394","html-keyboard-response","124","145423","0.0-11.0-1.11","PySjZ5ENc8","5b06efd1732c5d000154de23","6617fad957f7c6a12ea16e26","6622cf82e4fc4fafc94931f3","image grid","q","","","","","Ontogenetic_Distractor_Threat_target","ongrid","2500","q","7","Ontogenetic","true","experimental"
"","null","html-keyboard-response","125","145582","0.0-11.0-2.11","PySjZ5ENc8","5b06efd1732c5d000154de23","6617fad957f7c6a12ea16e26","6622cf82e4fc4fafc94931f3","
    <div id=""grid-container"">
        <!-- Grid items will be dynamically added here -->
    </div>    ","null","","","","","","","","","","","",""
"","null","html-keyboard-response","126","146294","0.0-11.0-0.12","PySjZ5ENc8","5b06efd1732c5d000154de23","6617fad957f7c6a12ea16e26","6622cf82e4fc4fafc94931f3","fixation cross","null","","","","","","","","","","","",""
"","1076","html-keyboard-response","127","147371","0.0-11.0-1.12","PySjZ5ENc8","5b06efd1732c5d000154de23","6617fad957f7c6a12ea16e26","6622cf82e4fc4fafc94931f3","image grid","p","","","","","Ontogenetic_Distractor_Nonthreat_target","ongrid","2500","p","1","Ontogenetic","true","experimental"
"","null","html-keyboard-response","128","147528","0.0-11.0-2.12","PySjZ5ENc8","5b06efd1732c5d000154de23","6617fad957f7c6a12ea16e26","6622cf82e4fc4fafc94931f3","
    <div id=""grid-container"">
        <!-- Grid items will be dynamically added here -->
    </div>    ","null","","","","","","","","","","","",""
"","null","html-keyboard-response","129","148300","0.0-11.0-0.13","PySjZ5ENc8","5b06efd1732c5d000154de23","6617fad957f7c6a12ea16e26","6622cf82e4fc4fafc94931f3","fixation cross","null","","","","","","","","","","","",""
"","1079","html-keyboard-response","130","149381","0.0-11.0-1.13","PySjZ5ENc8","5b06efd1732c5d000154de23","6617fad957f7c6a12ea16e26","6622cf82e4fc4fafc94931f3","image grid"," ","","","","","Ontogenetic_Distractor_notarget","ongrid","2500"," ","1","Ontogenetic","true","experimental"
"","null","html-keyboard-response","131","149540","0.0-11.0-2.13","PySjZ5ENc8","5b06efd1732c5d000154de23","6617fad957f7c6a12ea16e26","6622cf82e4fc4fafc94931f3","
    <div id=""grid-container"">
        <!-- Grid items will be dynamically added here -->
    </div>    ","null","","","","","","","","","","","",""
"","null","html-keyboard-response","132","150309","0.0-11.0-0.14","PySjZ5ENc8","5b06efd1732c5d000154de23","6617fad957f7c6a12ea16e26","6622cf82e4fc4fafc94931f3","fixation cross","null","","","","","","","","","","","",""
"","948","html-keyboard-response","133","151258","0.0-11.0-1.14","PySjZ5ENc8","5b06efd1732c5d000154de23","6617fad957f7c6a12ea16e26","6622cf82e4fc4fafc94931f3","image grid","p","","","","","Ontogenetic_Distractor_Nonthreat_target","ongrid","2500","p","1","Ontogenetic","true","experimental"
"","null","html-keyboard-response","134","151415","0.0-11.0-2.14","PySjZ5ENc8","5b06efd1732c5d000154de23","6617fad957f7c6a12ea16e26","6622cf82e4fc4fafc94931f3","
    <div id=""grid-container"">
        <!-- Grid items will be dynamically added here -->
    </div>    ","null","","","","","","","","","","","",""
"","null","html-keyboard-response","135","152127","0.0-11.0-0.15","PySjZ5ENc8","5b06efd1732c5d000154de23","6617fad957f7c6a12ea16e26","6622cf82e4fc4fafc94931f3","fixation cross","null","","","","","","","","","","","",""
"","884","html-keyboard-response","136","153014","0.0-11.0-1.15","PySjZ5ENc8","5b06efd1732c5d000154de23","6617fad957f7c6a12ea16e26","6622cf82e4fc4fafc94931f3","image grid","q","","","","","Ontogenetic_Distractor_Threat_target","ongrid","2500","q","6","Ontogenetic","true","experimental"
"","null","html-keyboard-response","137","153171","0.0-11.0-2.15","PySjZ5ENc8","5b06efd1732c5d000154de23","6617fad957f7c6a12ea16e26","6622cf82e4fc4fafc94931f3","
    <div id=""grid-container"">
        <!-- Grid items will be dynamically added here -->
    </div>    ","null","","","","","","","","","","","",""
"","null","html-keyboard-response","138","153884","0.0-11.0-0.16","PySjZ5ENc8","5b06efd1732c5d000154de23","6617fad957f7c6a12ea16e26","6622cf82e4fc4fafc94931f3","fixation cross","null","","","","","","","","","","","",""
"","865","html-keyboard-response","139","154751","0.0-11.0-1.16","PySjZ5ENc8","5b06efd1732c5d000154de23","6617fad957f7c6a12ea16e26","6622cf82e4fc4fafc94931f3","image grid","p","","","","","Ontogenetic_Distractor_Nonthreat_target","ongrid","2500","p","9","Ontogenetic","true","experimental"
"","null","html-keyboard-response","140","154907","0.0-11.0-2.16","PySjZ5ENc8","5b06efd1732c5d000154de23","6617fad957f7c6a12ea16e26","6622cf82e4fc4fafc94931f3","
    <div id=""grid-container"">
        <!-- Grid items will be dynamically added here -->
    </div>    ","null","","","","","","","","","","","",""
"","null","html-keyboard-response","141","155619","0.0-11.0-0.17","PySjZ5ENc8","5b06efd1732c5d000154de23","6617fad957f7c6a12ea16e26","6622cf82e4fc4fafc94931f3","fixation cross","null","","","","","","","","","","","",""
"","1112","html-keyboard-response","142","156731","0.0-11.0-1.17","PySjZ5ENc8","5b06efd1732c5d000154de23","6617fad957f7c6a12ea16e26","6622cf82e4fc4fafc94931f3","image grid","p","","","","","Ontogenetic_Distractor_Nonthreat_target","ongrid","2500","p","9","Ontogenetic","true","experimental"
"","null","html-keyboard-response","143","156885","0.0-11.0-2.17","PySjZ5ENc8","5b06efd1732c5d000154de23","6617fad957f7c6a12ea16e26","6622cf82e4fc4fafc94931f3","
    <div id=""grid-container"">
        <!-- Grid items will be dynamically added here -->
    </div>    ","null","","","","","","","","","","","",""
"","null","html-keyboard-response","144","157600","0.0-11.0-0.18","PySjZ5ENc8","5b06efd1732c5d000154de23","6617fad957f7c6a12ea16e26","6622cf82e4fc4fafc94931f3","fixation cross","null","","","","","","","","","","","",""
"","1169","html-keyboard-response","145","158771","0.0-11.0-1.18","PySjZ5ENc8","5b06efd1732c5d000154de23","6617fad957f7c6a12ea16e26","6622cf82e4fc4fafc94931f3","image grid"," ","","","","","Ontogenetic_Distractor_notarget","ongrid","2500"," ","8","Ontogenetic","true","experimental"
"","null","html-keyboard-response","146","158927","0.0-11.0-2.18","PySjZ5ENc8","5b06efd1732c5d000154de23","6617fad957f7c6a12ea16e26","6622cf82e4fc4fafc94931f3","
    <div id=""grid-container"">
        <!-- Grid items will be dynamically added here -->
    </div>    ","null","","","","","","","","","","","",""
"","null","html-keyboard-response","147","159635","0.0-11.0-0.19","PySjZ5ENc8","5b06efd1732c5d000154de23","6617fad957f7c6a12ea16e26","6622cf82e4fc4fafc94931f3","fixation cross","null","","","","","","","","","","","",""
"","696","html-keyboard-response","148","160332","0.0-11.0-1.19","PySjZ5ENc8","5b06efd1732c5d000154de23","6617fad957f7c6a12ea16e26","6622cf82e4fc4fafc94931f3","image grid","q","","","","","Ontogenetic_Distractor_Threat_target","ongrid","2500","q","5","Ontogenetic","true","experimental"
"","null","html-keyboard-response","149","160488","0.0-11.0-2.19","PySjZ5ENc8","5b06efd1732c5d000154de23","6617fad957f7c6a12ea16e26","6622cf82e4fc4fafc94931f3","
    <div id=""grid-container"">
        <!-- Grid items will be dynamically added here -->
    </div>    ","null","","","","","","","","","","","",""
"","null","html-keyboard-response","150","161199","0.0-11.0-0.20","PySjZ5ENc8","5b06efd1732c5d000154de23","6617fad957f7c6a12ea16e26","6622cf82e4fc4fafc94931f3","fixation cross","null","","","","","","","","","","","",""
"","871","html-keyboard-response","151","162073","0.0-11.0-1.20","PySjZ5ENc8","5b06efd1732c5d000154de23","6617fad957f7c6a12ea16e26","6622cf82e4fc4fafc94931f3","image grid","q","","","","","Ontogenetic_Distractor_Threat_target","ongrid","2500","q","8","Ontogenetic","true","experimental"
"","null","html-keyboard-response","152","162233","0.0-11.0-2.20","PySjZ5ENc8","5b06efd1732c5d000154de23","6617fad957f7c6a12ea16e26","6622cf82e4fc4fafc94931f3","
    <div id=""grid-container"">
        <!-- Grid items will be dynamically added here -->
    </div>    ","null","","","","","","","","","","","",""
"","null","html-keyboard-response","153","162945","0.0-11.0-0.21","PySjZ5ENc8","5b06efd1732c5d000154de23","6617fad957f7c6a12ea16e26","6622cf82e4fc4fafc94931f3","fixation cross","null","","","","","","","","","","","",""
"","775","html-keyboard-response","154","163720","0.0-11.0-1.21","PySjZ5ENc8","5b06efd1732c5d000154de23","6617fad957f7c6a12ea16e26","6622cf82e4fc4fafc94931f3","image grid","p","","","","","Ontogenetic_Distractor_Nonthreat_target","ongrid","2500","p","9","Ontogenetic","true","experimental"
"","null","html-keyboard-response","155","163877","0.0-11.0-2.21","PySjZ5ENc8","5b06efd1732c5d000154de23","6617fad957f7c6a12ea16e26","6622cf82e4fc4fafc94931f3","
    <div id=""grid-container"">
        <!-- Grid items will be dynamically added here -->
    </div>    ","null","","","","","","","","","","","",""
"","null","html-keyboard-response","156","164588","0.0-11.0-0.22","PySjZ5ENc8","5b06efd1732c5d000154de23","6617fad957f7c6a12ea16e26","6622cf82e4fc4fafc94931f3","fixation cross","null","","","","","","","","","","","",""
"","1142","html-keyboard-response","157","165731","0.0-11.0-1.22","PySjZ5ENc8","5b06efd1732c5d000154de23","6617fad957f7c6a12ea16e26","6622cf82e4fc4fafc94931f3","image grid","p","","","","","Ontogenetic_Distractor_Nonthreat_target","ongrid","2500","p","1","Ontogenetic","true","experimental"
"","null","html-keyboard-response","158","165888","0.0-11.0-2.22","PySjZ5ENc8","5b06efd1732c5d000154de23","6617fad957f7c6a12ea16e26","6622cf82e4fc4fafc94931f3","
    <div id=""grid-container"">
        <!-- Grid items will be dynamically added here -->
    </div>    ","null","","","","","","","","","","","",""
"","null","html-keyboard-response","159","166603","0.0-11.0-0.23","PySjZ5ENc8","5b06efd1732c5d000154de23","6617fad957f7c6a12ea16e26","6622cf82e4fc4fafc94931f3","fixation cross","null","","","","","","","","","","","",""
"","880","html-keyboard-response","160","167485","0.0-11.0-1.23","PySjZ5ENc8","5b06efd1732c5d000154de23","6617fad957f7c6a12ea16e26","6622cf82e4fc4fafc94931f3","image grid","q","","","","","Ontogenetic_Distractor_Threat_target","ongrid","2500","q","6","Ontogenetic","true","experimental"
"","null","html-keyboard-response","161","167643","0.0-11.0-2.23","PySjZ5ENc8","5b06efd1732c5d000154de23","6617fad957f7c6a12ea16e26","6622cf82e4fc4fafc94931f3","
    <div id=""grid-container"">
        <!-- Grid items will be dynamically added here -->
    </div>    ","null","","","","","","","","","","","",""
"","null","html-keyboard-response","162","168352","0.0-11.0-0.24","PySjZ5ENc8","5b06efd1732c5d000154de23","6617fad957f7c6a12ea16e26","6622cf82e4fc4fafc94931f3","fixation cross","null","","","","","","","","","","","",""
"","1127","html-keyboard-response","163","169480","0.0-11.0-1.24","PySjZ5ENc8","5b06efd1732c5d000154de23","6617fad957f7c6a12ea16e26","6622cf82e4fc4fafc94931f3","image grid","q","","","","","Ontogenetic_Distractor_Threat_target","ongrid","2500","q","6","Ontogenetic","true","experimental"
"","null","html-keyboard-response","164","169637","0.0-11.0-2.24","PySjZ5ENc8","5b06efd1732c5d000154de23","6617fad957f7c6a12ea16e26","6622cf82e4fc4fafc94931f3","
    <div id=""grid-container"">
        <!-- Grid items will be dynamically added here -->
    </div>    ","null","","","","","","","","","","","",""
"","null","html-keyboard-response","165","170356","0.0-11.0-0.25","PySjZ5ENc8","5b06efd1732c5d000154de23","6617fad957f7c6a12ea16e26","6622cf82e4fc4fafc94931f3","fixation cross","null","","","","","","","","","","","",""
"","981","html-keyboard-response","166","171341","0.0-11.0-1.25","PySjZ5ENc8","5b06efd1732c5d000154de23","6617fad957f7c6a12ea16e26","6622cf82e4fc4fafc94931f3","image grid","p","","","","","Ontogenetic_Distractor_Nonthreat_target","ongrid","2500","p","7","Ontogenetic","true","experimental"
"","null","html-keyboard-response","167","171497","0.0-11.0-2.25","PySjZ5ENc8","5b06efd1732c5d000154de23","6617fad957f7c6a12ea16e26","6622cf82e4fc4fafc94931f3","
    <div id=""grid-container"">
        <!-- Grid items will be dynamically added here -->
    </div>    ","null","","","","","","","","","","","",""
"","null","html-keyboard-response","168","172209","0.0-11.0-0.26","PySjZ5ENc8","5b06efd1732c5d000154de23","6617fad957f7c6a12ea16e26","6622cf82e4fc4fafc94931f3","fixation cross","null","","","","","","","","","","","",""
"","1201","html-keyboard-response","169","173411","0.0-11.0-1.26","PySjZ5ENc8","5b06efd1732c5d000154de23","6617fad957f7c6a12ea16e26","6622cf82e4fc4fafc94931f3","image grid","q","","","","","Ontogenetic_Distractor_Threat_target","ongrid","2500","q","9","Ontogenetic","true","experimental"
"","null","html-keyboard-response","170","173567","0.0-11.0-2.26","PySjZ5ENc8","5b06efd1732c5d000154de23","6617fad957f7c6a12ea16e26","6622cf82e4fc4fafc94931f3","
    <div id=""grid-container"">
        <!-- Grid items will be dynamically added here -->
    </div>    ","null","","","","","","","","","","","",""
"","null","html-keyboard-response","171","174286","0.0-11.0-0.27","PySjZ5ENc8","5b06efd1732c5d000154de23","6617fad957f7c6a12ea16e26","6622cf82e4fc4fafc94931f3","fixation cross","null","","","","","","","","","","","",""
"","1044","html-keyboard-response","172","175332","0.0-11.0-1.27","PySjZ5ENc8","5b06efd1732c5d000154de23","6617fad957f7c6a12ea16e26","6622cf82e4fc4fafc94931f3","image grid","q","","","","","Ontogenetic_Distractor_Threat_target","ongrid","2500","q","1","Ontogenetic","true","experimental"
"","null","html-keyboard-response","173","175490","0.0-11.0-2.27","PySjZ5ENc8","5b06efd1732c5d000154de23","6617fad957f7c6a12ea16e26","6622cf82e4fc4fafc94931f3","
    <div id=""grid-container"">
        <!-- Grid items will be dynamically added here -->
    </div>    ","null","","","","","","","","","","","",""
"","null","html-keyboard-response","174","176202","0.0-11.0-0.28","PySjZ5ENc8","5b06efd1732c5d000154de23","6617fad957f7c6a12ea16e26","6622cf82e4fc4fafc94931f3","fixation cross","null","","","","","","","","","","","",""
"","808","html-keyboard-response","175","177013","0.0-11.0-1.28","PySjZ5ENc8","5b06efd1732c5d000154de23","6617fad957f7c6a12ea16e26","6622cf82e4fc4fafc94931f3","image grid","p","","","","","Ontogenetic_Distractor_Nonthreat_target","ongrid","2500","p","2","Ontogenetic","true","experimental"
"","null","html-keyboard-response","176","177170","0.0-11.0-2.28","PySjZ5ENc8","5b06efd1732c5d000154de23","6617fad957f7c6a12ea16e26","6622cf82e4fc4fafc94931f3","
    <div id=""grid-container"">
        <!-- Grid items will be dynamically added here -->
    </div>    ","null","","","","","","","","","","","",""
"","null","html-keyboard-response","177","177881","0.0-11.0-0.29","PySjZ5ENc8","5b06efd1732c5d000154de23","6617fad957f7c6a12ea16e26","6622cf82e4fc4fafc94931f3","fixation cross","null","","","","","","","","","","","",""
"","1349","html-keyboard-response","178","179232","0.0-11.0-1.29","PySjZ5ENc8","5b06efd1732c5d000154de23","6617fad957f7c6a12ea16e26","6622cf82e4fc4fafc94931f3","image grid","p","","","","","Ontogenetic_Distractor_Nonthreat_target","ongrid","2500","p","3","Ontogenetic","true","experimental"
"","null","html-keyboard-response","179","179387","0.0-11.0-2.29","PySjZ5ENc8","5b06efd1732c5d000154de23","6617fad957f7c6a12ea16e26","6622cf82e4fc4fafc94931f3","
    <div id=""grid-container"">
        <!-- Grid items will be dynamically added here -->
    </div>    ","null","","","","","","","","","","","",""
"","null","html-keyboard-response","180","180094","0.0-11.0-0.30","PySjZ5ENc8","5b06efd1732c5d000154de23","6617fad957f7c6a12ea16e26","6622cf82e4fc4fafc94931f3","fixation cross","null","","","","","","","","","","","",""
"","786","html-keyboard-response","181","180882","0.0-11.0-1.30","PySjZ5ENc8","5b06efd1732c5d000154de23","6617fad957f7c6a12ea16e26","6622cf82e4fc4fafc94931f3","image grid","p","","","","","Ontogenetic_Distractor_Nonthreat_target","ongrid","2500","p","6","Ontogenetic","true","experimental"
"","null","html-keyboard-response","182","181038","0.0-11.0-2.30","PySjZ5ENc8","5b06efd1732c5d000154de23","6617fad957f7c6a12ea16e26","6622cf82e4fc4fafc94931f3","
    <div id=""grid-container"">
        <!-- Grid items will be dynamically added here -->
    </div>    ","null","","","","","","","","","","","",""
"","null","html-keyboard-response","183","181746","0.0-11.0-0.31","PySjZ5ENc8","5b06efd1732c5d000154de23","6617fad957f7c6a12ea16e26","6622cf82e4fc4fafc94931f3","fixation cross","null","","","","","","","","","","","",""
"","829","html-keyboard-response","184","182576","0.0-11.0-1.31","PySjZ5ENc8","5b06efd1732c5d000154de23","6617fad957f7c6a12ea16e26","6622cf82e4fc4fafc94931f3","image grid","q","","","","","Ontogenetic_Distractor_Threat_target","ongrid","2500","q","4","Ontogenetic","true","experimental"
"","null","html-keyboard-response","185","182729","0.0-11.0-2.31","PySjZ5ENc8","5b06efd1732c5d000154de23","6617fad957f7c6a12ea16e26","6622cf82e4fc4fafc94931f3","
    <div id=""grid-container"">
        <!-- Grid items will be dynamically added here -->
    </div>    ","null","","","","","","","","","","","",""
"","null","html-keyboard-response","186","183442","0.0-11.0-0.32","PySjZ5ENc8","5b06efd1732c5d000154de23","6617fad957f7c6a12ea16e26","6622cf82e4fc4fafc94931f3","fixation cross","null","","","","","","","","","","","",""
"","1273","html-keyboard-response","187","184719","0.0-11.0-1.32","PySjZ5ENc8","5b06efd1732c5d000154de23","6617fad957f7c6a12ea16e26","6622cf82e4fc4fafc94931f3","image grid","p","","","","","Ontogenetic_Distractor_Nonthreat_target","ongrid","2500","p","1","Ontogenetic","true","experimental"
"","null","html-keyboard-response","188","184876","0.0-11.0-2.32","PySjZ5ENc8","5b06efd1732c5d000154de23","6617fad957f7c6a12ea16e26","6622cf82e4fc4fafc94931f3","
    <div id=""grid-container"">
        <!-- Grid items will be dynamically added here -->
    </div>    ","null","","","","","","","","","","","",""
"","null","html-keyboard-response","189","185589","0.0-11.0-0.33","PySjZ5ENc8","5b06efd1732c5d000154de23","6617fad957f7c6a12ea16e26","6622cf82e4fc4fafc94931f3","fixation cross","null","","","","","","","","","","","",""
"","733","html-keyboard-response","190","186323","0.0-11.0-1.33","PySjZ5ENc8","5b06efd1732c5d000154de23","6617fad957f7c6a12ea16e26","6622cf82e4fc4fafc94931f3","image grid","q","","","","","Ontogenetic_Distractor_Threat_target","ongrid","2500","q","1","Ontogenetic","true","experimental"
"","null","html-keyboard-response","191","186479","0.0-11.0-2.33","PySjZ5ENc8","5b06efd1732c5d000154de23","6617fad957f7c6a12ea16e26","6622cf82e4fc4fafc94931f3","
    <div id=""grid-container"">
        <!-- Grid items will be dynamically added here -->
    </div>    ","null","","","","","","","","","","","",""
"","null","html-keyboard-response","192","187191","0.0-11.0-0.34","PySjZ5ENc8","5b06efd1732c5d000154de23","6617fad957f7c6a12ea16e26","6622cf82e4fc4fafc94931f3","fixation cross","null","","","","","","","","","","","",""
"","1581","html-keyboard-response","193","188774","0.0-11.0-1.34","PySjZ5ENc8","5b06efd1732c5d000154de23","6617fad957f7c6a12ea16e26","6622cf82e4fc4fafc94931f3","image grid"," ","","","","","Ontogenetic_Distractor_notarget","ongrid","2500"," ","8","Ontogenetic","true","experimental"
"","null","html-keyboard-response","194","188932","0.0-11.0-2.34","PySjZ5ENc8","5b06efd1732c5d000154de23","6617fad957f7c6a12ea16e26","6622cf82e4fc4fafc94931f3","
    <div id=""grid-container"">
        <!-- Grid items will be dynamically added here -->
    </div>    ","null","","","","","","","","","","","",""
"","null","html-keyboard-response","195","189645","0.0-11.0-0.35","PySjZ5ENc8","5b06efd1732c5d000154de23","6617fad957f7c6a12ea16e26","6622cf82e4fc4fafc94931f3","fixation cross","null","","","","","","","","","","","",""
"","956","html-keyboard-response","196","190603","0.0-11.0-1.35","PySjZ5ENc8","5b06efd1732c5d000154de23","6617fad957f7c6a12ea16e26","6622cf82e4fc4fafc94931f3","image grid","q","","","","","Ontogenetic_Distractor_Threat_target","ongrid","2500","q","2","Ontogenetic","true","experimental"
"","null","html-keyboard-response","197","190756","0.0-11.0-2.35","PySjZ5ENc8","5b06efd1732c5d000154de23","6617fad957f7c6a12ea16e26","6622cf82e4fc4fafc94931f3","
    <div id=""grid-container"">
        <!-- Grid items will be dynamically added here -->
    </div>    ","null","","","","","","","","","","","",""
"","null","html-keyboard-response","198","191467","0.0-11.0-0.36","PySjZ5ENc8","5b06efd1732c5d000154de23","6617fad957f7c6a12ea16e26","6622cf82e4fc4fafc94931f3","fixation cross","null","","","","","","","","","","","",""
"","785","html-keyboard-response","199","192255","0.0-11.0-1.36","PySjZ5ENc8","5b06efd1732c5d000154de23","6617fad957f7c6a12ea16e26","6622cf82e4fc4fafc94931f3","image grid","q","","","","","Ontogenetic_Distractor_Threat_target","ongrid","2500","q","5","Ontogenetic","true","experimental"
"","null","html-keyboard-response","200","192413","0.0-11.0-2.36","PySjZ5ENc8","5b06efd1732c5d000154de23","6617fad957f7c6a12ea16e26","6622cf82e4fc4fafc94931f3","
    <div id=""grid-container"">
        <!-- Grid items will be dynamically added here -->
    </div>    ","null","","","","","","","","","","","",""
"","null","html-keyboard-response","201","193126","0.0-11.0-0.37","PySjZ5ENc8","5b06efd1732c5d000154de23","6617fad957f7c6a12ea16e26","6622cf82e4fc4fafc94931f3","fixation cross","null","","","","","","","","","","","",""
"","1345","html-keyboard-response","202","194474","0.0-11.0-1.37","PySjZ5ENc8","5b06efd1732c5d000154de23","6617fad957f7c6a12ea16e26","6622cf82e4fc4fafc94931f3","image grid"," ","","","","","Ontogenetic_Distractor_notarget","ongrid","2500"," ","8","Ontogenetic","true","experimental"
"","null","html-keyboard-response","203","194630","0.0-11.0-2.37","PySjZ5ENc8","5b06efd1732c5d000154de23","6617fad957f7c6a12ea16e26","6622cf82e4fc4fafc94931f3","
    <div id=""grid-container"">
        <!-- Grid items will be dynamically added here -->
    </div>    ","null","","","","","","","","","","","",""
"","null","html-keyboard-response","204","195343","0.0-11.0-0.38","PySjZ5ENc8","5b06efd1732c5d000154de23","6617fad957f7c6a12ea16e26","6622cf82e4fc4fafc94931f3","fixation cross","null","","","","","","","","","","","",""
"","871","html-keyboard-response","205","196217","0.0-11.0-1.38","PySjZ5ENc8","5b06efd1732c5d000154de23","6617fad957f7c6a12ea16e26","6622cf82e4fc4fafc94931f3","image grid","q","","","","","Ontogenetic_Distractor_Threat_target","ongrid","2500","q","1","Ontogenetic","true","experimental"
"","null","html-keyboard-response","206","196375","0.0-11.0-2.38","PySjZ5ENc8","5b06efd1732c5d000154de23","6617fad957f7c6a12ea16e26","6622cf82e4fc4fafc94931f3","
    <div id=""grid-container"">
        <!-- Grid items will be dynamically added here -->
    </div>    ","null","","","","","","","","","","","",""
"","null","html-keyboard-response","207","197085","0.0-11.0-0.39","PySjZ5ENc8","5b06efd1732c5d000154de23","6617fad957f7c6a12ea16e26","6622cf82e4fc4fafc94931f3","fixation cross","null","","","","","","","","","","","",""
"","961","html-keyboard-response","208","198047","0.0-11.0-1.39","PySjZ5ENc8","5b06efd1732c5d000154de23","6617fad957f7c6a12ea16e26","6622cf82e4fc4fafc94931f3","image grid","q","","","","","Ontogenetic_Distractor_Threat_target","ongrid","2500","q","5","Ontogenetic","true","experimental"
"","null","html-keyboard-response","209","198205","0.0-11.0-2.39","PySjZ5ENc8","5b06efd1732c5d000154de23","6617fad957f7c6a12ea16e26","6622cf82e4fc4fafc94931f3","
    <div id=""grid-container"">
        <!-- Grid items will be dynamically added here -->
    </div>    ","null","","","","","","","","","","","",""
"","1856","html-keyboard-response","210","200270","0.0-12.0","PySjZ5ENc8","5b06efd1732c5d000154de23","6617fad957f7c6a12ea16e26","6622cf82e4fc4fafc94931f3","break screen"," ","","","","","","","","","","","",""
"","null","html-keyboard-response","211","202787","0.0-13.0-0.0","PySjZ5ENc8","5b06efd1732c5d000154de23","6617fad957f7c6a12ea16e26","6622cf82e4fc4fafc94931f3","fixation cross","null","","","","","","","","","","","",""
"","null","html-keyboard-response","212","203595","0.0-13.0-1.0","PySjZ5ENc8","5b06efd1732c5d000154de23","6617fad957f7c6a12ea16e26","6622cf82e4fc4fafc94931f3","
        <div id=""grid-container"">
        <!-- Grid items will be dynamically added here -->
    </div>    ","null","","","","","","","","","","","",""
"","1132","html-keyboard-response","213","203927","0.0-13.0-2.0","PySjZ5ENc8","5b06efd1732c5d000154de23","6617fad957f7c6a12ea16e26","6622cf82e4fc4fafc94931f3","mask grid","p","","","","","Ontogenetic_Distractor_Nonthreat_target","onmask","800","p","4","Ontogenetic","true","experimental"
"","null","html-keyboard-response","214","204637","0.0-13.0-0.1","PySjZ5ENc8","5b06efd1732c5d000154de23","6617fad957f7c6a12ea16e26","6622cf82e4fc4fafc94931f3","fixation cross","null","","","","","","","","","","","",""
"","732","html-keyboard-response","215","205369","0.0-13.0-1.1","PySjZ5ENc8","5b06efd1732c5d000154de23","6617fad957f7c6a12ea16e26","6622cf82e4fc4fafc94931f3","image grid","p","","","","","Ontogenetic_Distractor_Nonthreat_target","ongrid","800","p","8","Ontogenetic","true","experimental"
"","null","html-keyboard-response","216","205526","0.0-13.0-2.1","PySjZ5ENc8","5b06efd1732c5d000154de23","6617fad957f7c6a12ea16e26","6622cf82e4fc4fafc94931f3","
    <div id=""grid-container"">
        <!-- Grid items will be dynamically added here -->
    </div>    ","null","","","","","","","","","","","",""
"","null","html-keyboard-response","217","206239","0.0-13.0-0.2","PySjZ5ENc8","5b06efd1732c5d000154de23","6617fad957f7c6a12ea16e26","6622cf82e4fc4fafc94931f3","fixation cross","null","","","","","","","","","","","",""
"","780","html-keyboard-response","218","207019","0.0-13.0-1.2","PySjZ5ENc8","5b06efd1732c5d000154de23","6617fad957f7c6a12ea16e26","6622cf82e4fc4fafc94931f3","image grid","p","","","","","Ontogenetic_Distractor_Nonthreat_target","ongrid","800","p","2","Ontogenetic","true","experimental"
"","null","html-keyboard-response","219","207176","0.0-13.0-2.2","PySjZ5ENc8","5b06efd1732c5d000154de23","6617fad957f7c6a12ea16e26","6622cf82e4fc4fafc94931f3","
    <div id=""grid-container"">
        <!-- Grid items will be dynamically added here -->
    </div>    ","null","","","","","","","","","","","",""
"","null","html-keyboard-response","220","207886","0.0-13.0-0.3","PySjZ5ENc8","5b06efd1732c5d000154de23","6617fad957f7c6a12ea16e26","6622cf82e4fc4fafc94931f3","fixation cross","null","","","","","","","","","","","",""
"","723","html-keyboard-response","221","208609","0.0-13.0-1.3","PySjZ5ENc8","5b06efd1732c5d000154de23","6617fad957f7c6a12ea16e26","6622cf82e4fc4fafc94931f3","image grid","p","","","","","Ontogenetic_Distractor_Nonthreat_target","ongrid","800","p","1","Ontogenetic","true","experimental"
"","null","html-keyboard-response","222","208768","0.0-13.0-2.3","PySjZ5ENc8","5b06efd1732c5d000154de23","6617fad957f7c6a12ea16e26","6622cf82e4fc4fafc94931f3","
    <div id=""grid-container"">
        <!-- Grid items will be dynamically added here -->
    </div>    ","null","","","","","","","","","","","",""
"","null","html-keyboard-response","223","209480","0.0-13.0-0.4","PySjZ5ENc8","5b06efd1732c5d000154de23","6617fad957f7c6a12ea16e26","6622cf82e4fc4fafc94931f3","fixation cross","null","","","","","","","","","","","",""
"","null","html-keyboard-response","224","210287","0.0-13.0-1.4","PySjZ5ENc8","5b06efd1732c5d000154de23","6617fad957f7c6a12ea16e26","6622cf82e4fc4fafc94931f3","
        <div id=""grid-container"">
        <!-- Grid items will be dynamically added here -->
    </div>    ","null","","","","","","","","","","","",""
"","889","html-keyboard-response","225","210377","0.0-13.0-2.4","PySjZ5ENc8","5b06efd1732c5d000154de23","6617fad957f7c6a12ea16e26","6622cf82e4fc4fafc94931f3","mask grid","q","","","","","Ontogenetic_Distractor_Threat_target","onmask","800","q","7","Ontogenetic","true","experimental"
"","null","html-keyboard-response","226","211086","0.0-13.0-0.5","PySjZ5ENc8","5b06efd1732c5d000154de23","6617fad957f7c6a12ea16e26","6622cf82e4fc4fafc94931f3","fixation cross","null","","","","","","","","","","","",""
"","732","html-keyboard-response","227","211820","0.0-13.0-1.5","PySjZ5ENc8","5b06efd1732c5d000154de23","6617fad957f7c6a12ea16e26","6622cf82e4fc4fafc94931f3","image grid","p","","","","","Ontogenetic_Distractor_Nonthreat_target","ongrid","800","p","1","Ontogenetic","true","experimental"
"","null","html-keyboard-response","228","211977","0.0-13.0-2.5","PySjZ5ENc8","5b06efd1732c5d000154de23","6617fad957f7c6a12ea16e26","6622cf82e4fc4fafc94931f3","
    <div id=""grid-container"">
        <!-- Grid items will be dynamically added here -->
    </div>    ","null","","","","","","","","","","","",""
"","null","html-keyboard-response","229","212686","0.0-13.0-0.6","PySjZ5ENc8","5b06efd1732c5d000154de23","6617fad957f7c6a12ea16e26","6622cf82e4fc4fafc94931f3","fixation cross","null","","","","","","","","","","","",""
"","782","html-keyboard-response","230","213470","0.0-13.0-1.6","PySjZ5ENc8","5b06efd1732c5d000154de23","6617fad957f7c6a12ea16e26","6622cf82e4fc4fafc94931f3","image grid","q","","","","","Ontogenetic_Distractor_Threat_target","ongrid","800","q","3","Ontogenetic","true","experimental"
"","null","html-keyboard-response","231","213627","0.0-13.0-2.6","PySjZ5ENc8","5b06efd1732c5d000154de23","6617fad957f7c6a12ea16e26","6622cf82e4fc4fafc94931f3","
    <div id=""grid-container"">
        <!-- Grid items will be dynamically added here -->
    </div>    ","null","","","","","","","","","","","",""
"","null","html-keyboard-response","232","214337","0.0-13.0-0.7","PySjZ5ENc8","5b06efd1732c5d000154de23","6617fad957f7c6a12ea16e26","6622cf82e4fc4fafc94931f3","fixation cross","null","","","","","","","","","","","",""
"","null","html-keyboard-response","233","215143","0.0-13.0-1.7","PySjZ5ENc8","5b06efd1732c5d000154de23","6617fad957f7c6a12ea16e26","6622cf82e4fc4fafc94931f3","
        <div id=""grid-container"">
        <!-- Grid items will be dynamically added here -->
    </div>    ","null","","","","","","","","","","","",""
"","823","html-keyboard-response","234","215167","0.0-13.0-2.7","PySjZ5ENc8","5b06efd1732c5d000154de23","6617fad957f7c6a12ea16e26","6622cf82e4fc4fafc94931f3","mask grid","p","","","","","Ontogenetic_Distractor_Nonthreat_target","onmask","800","p","3","Ontogenetic","true","experimental"
"","null","html-keyboard-response","235","215877","0.0-13.0-0.8","PySjZ5ENc8","5b06efd1732c5d000154de23","6617fad957f7c6a12ea16e26","6622cf82e4fc4fafc94931f3","fixation cross","null","","","","","","","","","","","",""
"","null","html-keyboard-response","236","216683","0.0-13.0-1.8","PySjZ5ENc8","5b06efd1732c5d000154de23","6617fad957f7c6a12ea16e26","6622cf82e4fc4fafc94931f3","
        <div id=""grid-container"">
        <!-- Grid items will be dynamically added here -->
    </div>    ","null","","","","","","","","","","","",""
"","945","html-keyboard-response","237","216829","0.0-13.0-2.8","PySjZ5ENc8","5b06efd1732c5d000154de23","6617fad957f7c6a12ea16e26","6622cf82e4fc4fafc94931f3","mask grid","q","","","","","Ontogenetic_Distractor_Threat_target","onmask","800","q","7","Ontogenetic","true","experimental"
"","null","html-keyboard-response","238","217541","0.0-13.0-0.9","PySjZ5ENc8","5b06efd1732c5d000154de23","6617fad957f7c6a12ea16e26","6622cf82e4fc4fafc94931f3","fixation cross","null","","","","","","","","","","","",""
"","null","html-keyboard-response","239","218347","0.0-13.0-1.9","PySjZ5ENc8","5b06efd1732c5d000154de23","6617fad957f7c6a12ea16e26","6622cf82e4fc4fafc94931f3","
        <div id=""grid-container"">
        <!-- Grid items will be dynamically added here -->
    </div>    ","null","","","","","","","","","","","",""
"","1053","html-keyboard-response","240","218601","0.0-13.0-2.9","PySjZ5ENc8","5b06efd1732c5d000154de23","6617fad957f7c6a12ea16e26","6622cf82e4fc4fafc94931f3","mask grid","p","","","","","Ontogenetic_Distractor_Nonthreat_target","onmask","800","p","3","Ontogenetic","true","experimental"
"","null","html-keyboard-response","241","219342","0.0-13.0-0.10","PySjZ5ENc8","5b06efd1732c5d000154de23","6617fad957f7c6a12ea16e26","6622cf82e4fc4fafc94931f3","fixation cross","null","","","","","","","","","","","",""
"","787","html-keyboard-response","242","220131","0.0-13.0-1.10","PySjZ5ENc8","5b06efd1732c5d000154de23","6617fad957f7c6a12ea16e26","6622cf82e4fc4fafc94931f3","image grid","q","","","","","Ontogenetic_Distractor_Threat_target","ongrid","800","q","9","Ontogenetic","true","experimental"
"","null","html-keyboard-response","243","220293","0.0-13.0-2.10","PySjZ5ENc8","5b06efd1732c5d000154de23","6617fad957f7c6a12ea16e26","6622cf82e4fc4fafc94931f3","
    <div id=""grid-container"">
        <!-- Grid items will be dynamically added here -->
    </div>    ","null","","","","","","","","","","","",""
"","null","html-keyboard-response","244","221005","0.0-13.0-0.11","PySjZ5ENc8","5b06efd1732c5d000154de23","6617fad957f7c6a12ea16e26","6622cf82e4fc4fafc94931f3","fixation cross","null","","","","","","","","","","","",""
"","716","html-keyboard-response","245","221721","0.0-13.0-1.11","PySjZ5ENc8","5b06efd1732c5d000154de23","6617fad957f7c6a12ea16e26","6622cf82e4fc4fafc94931f3","image grid","q","","","","","Ontogenetic_Distractor_Threat_target","ongrid","800","q","6","Ontogenetic","true","experimental"
"","null","html-keyboard-response","246","221877","0.0-13.0-2.11","PySjZ5ENc8","5b06efd1732c5d000154de23","6617fad957f7c6a12ea16e26","6622cf82e4fc4fafc94931f3","
    <div id=""grid-container"">
        <!-- Grid items will be dynamically added here -->
    </div>    ","null","","","","","","","","","","","",""
"","null","html-keyboard-response","247","222587","0.0-13.0-0.12","PySjZ5ENc8","5b06efd1732c5d000154de23","6617fad957f7c6a12ea16e26","6622cf82e4fc4fafc94931f3","fixation cross","null","","","","","","","","","","","",""
"","780","html-keyboard-response","248","223369","0.0-13.0-1.12","PySjZ5ENc8","5b06efd1732c5d000154de23","6617fad957f7c6a12ea16e26","6622cf82e4fc4fafc94931f3","image grid","p","","","","","Ontogenetic_Distractor_Nonthreat_target","ongrid","800","p","2","Ontogenetic","true","experimental"
"","null","html-keyboard-response","249","223525","0.0-13.0-2.12","PySjZ5ENc8","5b06efd1732c5d000154de23","6617fad957f7c6a12ea16e26","6622cf82e4fc4fafc94931f3","
    <div id=""grid-container"">
        <!-- Grid items will be dynamically added here -->
    </div>    ","null","","","","","","","","","","","",""
"","null","html-keyboard-response","250","224236","0.0-13.0-0.13","PySjZ5ENc8","5b06efd1732c5d000154de23","6617fad957f7c6a12ea16e26","6622cf82e4fc4fafc94931f3","fixation cross","null","","","","","","","","","","","",""
"","665","html-keyboard-response","251","224901","0.0-13.0-1.13","PySjZ5ENc8","5b06efd1732c5d000154de23","6617fad957f7c6a12ea16e26","6622cf82e4fc4fafc94931f3","image grid","q","","","","","Ontogenetic_Distractor_Threat_target","ongrid","800","q","2","Ontogenetic","true","experimental"
"","null","html-keyboard-response","252","225057","0.0-13.0-2.13","PySjZ5ENc8","5b06efd1732c5d000154de23","6617fad957f7c6a12ea16e26","6622cf82e4fc4fafc94931f3","
    <div id=""grid-container"">
        <!-- Grid items will be dynamically added here -->
    </div>    ","null","","","","","","","","","","","",""
"","null","html-keyboard-response","253","225768","0.0-13.0-0.14","PySjZ5ENc8","5b06efd1732c5d000154de23","6617fad957f7c6a12ea16e26","6622cf82e4fc4fafc94931f3","fixation cross","null","","","","","","","","","","","",""
"","693","html-keyboard-response","254","226462","0.0-13.0-1.14","PySjZ5ENc8","5b06efd1732c5d000154de23","6617fad957f7c6a12ea16e26","6622cf82e4fc4fafc94931f3","image grid","p","","","","","Ontogenetic_Distractor_Nonthreat_target","ongrid","800","p","2","Ontogenetic","true","experimental"
"","null","html-keyboard-response","255","226621","0.0-13.0-2.14","PySjZ5ENc8","5b06efd1732c5d000154de23","6617fad957f7c6a12ea16e26","6622cf82e4fc4fafc94931f3","
    <div id=""grid-container"">
        <!-- Grid items will be dynamically added here -->
    </div>    ","null","","","","","","","","","","","",""
"","null","html-keyboard-response","256","227330","0.0-13.0-0.15","PySjZ5ENc8","5b06efd1732c5d000154de23","6617fad957f7c6a12ea16e26","6622cf82e4fc4fafc94931f3","fixation cross","null","","","","","","","","","","","",""
"","661","html-keyboard-response","257","227992","0.0-13.0-1.15","PySjZ5ENc8","5b06efd1732c5d000154de23","6617fad957f7c6a12ea16e26","6622cf82e4fc4fafc94931f3","image grid","q","","","","","Ontogenetic_Distractor_Nonthreat_target","ongrid","800","p","5","Ontogenetic","false","experimental"
"","null","html-keyboard-response","258","228145","0.0-13.0-2.15","PySjZ5ENc8","5b06efd1732c5d000154de23","6617fad957f7c6a12ea16e26","6622cf82e4fc4fafc94931f3","
    <div id=""grid-container"">
        <!-- Grid items will be dynamically added here -->
    </div>    ","null","","","","","","","","","","","",""
"","null","html-keyboard-response","259","228855","0.0-13.0-0.16","PySjZ5ENc8","5b06efd1732c5d000154de23","6617fad957f7c6a12ea16e26","6622cf82e4fc4fafc94931f3","fixation cross","null","","","","","","","","","","","",""
"","null","html-keyboard-response","260","229662","0.0-13.0-1.16","PySjZ5ENc8","5b06efd1732c5d000154de23","6617fad957f7c6a12ea16e26","6622cf82e4fc4fafc94931f3","
        <div id=""grid-container"">
        <!-- Grid items will be dynamically added here -->
    </div>    ","null","","","","","","","","","","","",""
"","1048","html-keyboard-response","261","229911","0.0-13.0-2.16","PySjZ5ENc8","5b06efd1732c5d000154de23","6617fad957f7c6a12ea16e26","6622cf82e4fc4fafc94931f3","mask grid"," ","","","","","Ontogenetic_Distractor_notarget","onmask","800"," ","4","Ontogenetic","true","experimental"
"","null","html-keyboard-response","262","230621","0.0-13.0-0.17","PySjZ5ENc8","5b06efd1732c5d000154de23","6617fad957f7c6a12ea16e26","6622cf82e4fc4fafc94931f3","fixation cross","null","","","","","","","","","","","",""
"","null","html-keyboard-response","263","231428","0.0-13.0-1.17","PySjZ5ENc8","5b06efd1732c5d000154de23","6617fad957f7c6a12ea16e26","6622cf82e4fc4fafc94931f3","
        <div id=""grid-container"">
        <!-- Grid items will be dynamically added here -->
    </div>    ","null","","","","","","","","","","","",""
"","3124","html-keyboard-response","264","233752","0.0-13.0-2.17","PySjZ5ENc8","5b06efd1732c5d000154de23","6617fad957f7c6a12ea16e26","6622cf82e4fc4fafc94931f3","mask grid"," ","","","","","Ontogenetic_Distractor_Threat_target","onmask","800","q","7","Ontogenetic","false","experimental"
"","null","html-keyboard-response","265","234463","0.0-13.0-0.18","PySjZ5ENc8","5b06efd1732c5d000154de23","6617fad957f7c6a12ea16e26","6622cf82e4fc4fafc94931f3","fixation cross","null","","","","","","","","","","","",""
"","null","html-keyboard-response","266","235270","0.0-13.0-1.18","PySjZ5ENc8","5b06efd1732c5d000154de23","6617fad957f7c6a12ea16e26","6622cf82e4fc4fafc94931f3","
        <div id=""grid-container"">
        <!-- Grid items will be dynamically added here -->
    </div>    ","null","","","","","","","","","","","",""
"","929","html-keyboard-response","267","235399","0.0-13.0-2.18","PySjZ5ENc8","5b06efd1732c5d000154de23","6617fad957f7c6a12ea16e26","6622cf82e4fc4fafc94931f3","mask grid","p","","","","","Ontogenetic_Distractor_Nonthreat_target","onmask","800","p","3","Ontogenetic","true","experimental"
"","null","html-keyboard-response","268","236110","0.0-13.0-0.19","PySjZ5ENc8","5b06efd1732c5d000154de23","6617fad957f7c6a12ea16e26","6622cf82e4fc4fafc94931f3","fixation cross","null","","","","","","","","","","","",""
"","791","html-keyboard-response","269","236903","0.0-13.0-1.19","PySjZ5ENc8","5b06efd1732c5d000154de23","6617fad957f7c6a12ea16e26","6622cf82e4fc4fafc94931f3","image grid","q","","","","","Ontogenetic_Distractor_Threat_target","ongrid","800","q","7","Ontogenetic","true","experimental"
"","null","html-keyboard-response","270","237058","0.0-13.0-2.19","PySjZ5ENc8","5b06efd1732c5d000154de23","6617fad957f7c6a12ea16e26","6622cf82e4fc4fafc94931f3","
    <div id=""grid-container"">
        <!-- Grid items will be dynamically added here -->
    </div>    ","null","","","","","","","","","","","",""
"","null","html-keyboard-response","271","237770","0.0-13.0-0.20","PySjZ5ENc8","5b06efd1732c5d000154de23","6617fad957f7c6a12ea16e26","6622cf82e4fc4fafc94931f3","fixation cross","null","","","","","","","","","","","",""
"","null","html-keyboard-response","272","238576","0.0-13.0-1.20","PySjZ5ENc8","5b06efd1732c5d000154de23","6617fad957f7c6a12ea16e26","6622cf82e4fc4fafc94931f3","
        <div id=""grid-container"">
        <!-- Grid items will be dynamically added here -->
    </div>    ","null","","","","","","","","","","","",""
"","823","html-keyboard-response","273","238600","0.0-13.0-2.20","PySjZ5ENc8","5b06efd1732c5d000154de23","6617fad957f7c6a12ea16e26","6622cf82e4fc4fafc94931f3","mask grid","p","","","","","Ontogenetic_Distractor_Nonthreat_target","onmask","800","p","8","Ontogenetic","true","experimental"
"","null","html-keyboard-response","274","239311","0.0-13.0-0.21","PySjZ5ENc8","5b06efd1732c5d000154de23","6617fad957f7c6a12ea16e26","6622cf82e4fc4fafc94931f3","fixation cross","null","","","","","","","","","","","",""
"","null","html-keyboard-response","275","240117","0.0-13.0-1.21","PySjZ5ENc8","5b06efd1732c5d000154de23","6617fad957f7c6a12ea16e26","6622cf82e4fc4fafc94931f3","
        <div id=""grid-container"">
        <!-- Grid items will be dynamically added here -->
    </div>    ","null","","","","","","","","","","","",""
"","1049","html-keyboard-response","276","240367","0.0-13.0-2.21","PySjZ5ENc8","5b06efd1732c5d000154de23","6617fad957f7c6a12ea16e26","6622cf82e4fc4fafc94931f3","mask grid","q","","","","","Ontogenetic_Distractor_Threat_target","onmask","800","q","4","Ontogenetic","true","experimental"
"","null","html-keyboard-response","277","241097","0.0-13.0-0.22","PySjZ5ENc8","5b06efd1732c5d000154de23","6617fad957f7c6a12ea16e26","6622cf82e4fc4fafc94931f3","fixation cross","null","","","","","","","","","","","",""
"","784","html-keyboard-response","278","241883","0.0-13.0-1.22","PySjZ5ENc8","5b06efd1732c5d000154de23","6617fad957f7c6a12ea16e26","6622cf82e4fc4fafc94931f3","image grid","q","","","","","Ontogenetic_Distractor_Threat_target","ongrid","800","q","1","Ontogenetic","true","experimental"
"","null","html-keyboard-response","279","242040","0.0-13.0-2.22","PySjZ5ENc8","5b06efd1732c5d000154de23","6617fad957f7c6a12ea16e26","6622cf82e4fc4fafc94931f3","
    <div id=""grid-container"">
        <!-- Grid items will be dynamically added here -->
    </div>    ","null","","","","","","","","","","","",""
"","null","html-keyboard-response","280","242748","0.0-13.0-0.23","PySjZ5ENc8","5b06efd1732c5d000154de23","6617fad957f7c6a12ea16e26","6622cf82e4fc4fafc94931f3","fixation cross","null","","","","","","","","","","","",""
"","null","html-keyboard-response","281","243554","0.0-13.0-1.23","PySjZ5ENc8","5b06efd1732c5d000154de23","6617fad957f7c6a12ea16e26","6622cf82e4fc4fafc94931f3","
        <div id=""grid-container"">
        <!-- Grid items will be dynamically added here -->
    </div>    ","null","","","","","","","","","","","",""
"","1061","html-keyboard-response","282","243817","0.0-13.0-2.23","PySjZ5ENc8","5b06efd1732c5d000154de23","6617fad957f7c6a12ea16e26","6622cf82e4fc4fafc94931f3","mask grid","q","","","","","Ontogenetic_Distractor_Threat_target","onmask","800","q","5","Ontogenetic","true","experimental"
"","null","html-keyboard-response","283","244529","0.0-13.0-0.24","PySjZ5ENc8","5b06efd1732c5d000154de23","6617fad957f7c6a12ea16e26","6622cf82e4fc4fafc94931f3","fixation cross","null","","","","","","","","","","","",""
"","772","html-keyboard-response","284","245303","0.0-13.0-1.24","PySjZ5ENc8","5b06efd1732c5d000154de23","6617fad957f7c6a12ea16e26","6622cf82e4fc4fafc94931f3","image grid","q","","","","","Ontogenetic_Distractor_Threat_target","ongrid","800","q","7","Ontogenetic","true","experimental"
"","null","html-keyboard-response","285","245459","0.0-13.0-2.24","PySjZ5ENc8","5b06efd1732c5d000154de23","6617fad957f7c6a12ea16e26","6622cf82e4fc4fafc94931f3","
    <div id=""grid-container"">
        <!-- Grid items will be dynamically added here -->
    </div>    ","null","","","","","","","","","","","",""
"","null","html-keyboard-response","286","246166","0.0-13.0-0.25","PySjZ5ENc8","5b06efd1732c5d000154de23","6617fad957f7c6a12ea16e26","6622cf82e4fc4fafc94931f3","fixation cross","null","","","","","","","","","","","",""
"","754","html-keyboard-response","287","246922","0.0-13.0-1.25","PySjZ5ENc8","5b06efd1732c5d000154de23","6617fad957f7c6a12ea16e26","6622cf82e4fc4fafc94931f3","image grid","p","","","","","Ontogenetic_Distractor_Nonthreat_target","ongrid","800","p","8","Ontogenetic","true","experimental"
"","null","html-keyboard-response","288","247079","0.0-13.0-2.25","PySjZ5ENc8","5b06efd1732c5d000154de23","6617fad957f7c6a12ea16e26","6622cf82e4fc4fafc94931f3","
    <div id=""grid-container"">
        <!-- Grid items will be dynamically added here -->
    </div>    ","null","","","","","","","","","","","",""
"","null","html-keyboard-response","289","247794","0.0-13.0-0.26","PySjZ5ENc8","5b06efd1732c5d000154de23","6617fad957f7c6a12ea16e26","6622cf82e4fc4fafc94931f3","fixation cross","null","","","","","","","","","","","",""
"","658","html-keyboard-response","290","248452","0.0-13.0-1.26","PySjZ5ENc8","5b06efd1732c5d000154de23","6617fad957f7c6a12ea16e26","6622cf82e4fc4fafc94931f3","image grid","q","","","","","Ontogenetic_Distractor_Threat_target","ongrid","800","q","2","Ontogenetic","true","experimental"
"","null","html-keyboard-response","291","248606","0.0-13.0-2.26","PySjZ5ENc8","5b06efd1732c5d000154de23","6617fad957f7c6a12ea16e26","6622cf82e4fc4fafc94931f3","
    <div id=""grid-container"">
        <!-- Grid items will be dynamically added here -->
    </div>    ","null","","","","","","","","","","","",""
"","null","html-keyboard-response","292","249317","0.0-13.0-0.27","PySjZ5ENc8","5b06efd1732c5d000154de23","6617fad957f7c6a12ea16e26","6622cf82e4fc4fafc94931f3","fixation cross","null","","","","","","","","","","","",""
"","707","html-keyboard-response","293","250026","0.0-13.0-1.27","PySjZ5ENc8","5b06efd1732c5d000154de23","6617fad957f7c6a12ea16e26","6622cf82e4fc4fafc94931f3","image grid","p","","","","","Ontogenetic_Distractor_Nonthreat_target","ongrid","800","p","1","Ontogenetic","true","experimental"
"","null","html-keyboard-response","294","250189","0.0-13.0-2.27","PySjZ5ENc8","5b06efd1732c5d000154de23","6617fad957f7c6a12ea16e26","6622cf82e4fc4fafc94931f3","
    <div id=""grid-container"">
        <!-- Grid items will be dynamically added here -->
    </div>    ","null","","","","","","","","","","","",""
"","null","html-keyboard-response","295","250899","0.0-13.0-0.28","PySjZ5ENc8","5b06efd1732c5d000154de23","6617fad957f7c6a12ea16e26","6622cf82e4fc4fafc94931f3","fixation cross","null","","","","","","","","","","","",""
"","762","html-keyboard-response","296","251662","0.0-13.0-1.28","PySjZ5ENc8","5b06efd1732c5d000154de23","6617fad957f7c6a12ea16e26","6622cf82e4fc4fafc94931f3","image grid","p","","","","","Ontogenetic_Distractor_Nonthreat_target","ongrid","800","p","1","Ontogenetic","true","experimental"
"","null","html-keyboard-response","297","251817","0.0-13.0-2.28","PySjZ5ENc8","5b06efd1732c5d000154de23","6617fad957f7c6a12ea16e26","6622cf82e4fc4fafc94931f3","
    <div id=""grid-container"">
        <!-- Grid items will be dynamically added here -->
    </div>    ","null","","","","","","","","","","","",""
"","null","html-keyboard-response","298","252537","0.0-13.0-0.29","PySjZ5ENc8","5b06efd1732c5d000154de23","6617fad957f7c6a12ea16e26","6622cf82e4fc4fafc94931f3","fixation cross","null","","","","","","","","","","","",""
"","745","html-keyboard-response","299","253283","0.0-13.0-1.29","PySjZ5ENc8","5b06efd1732c5d000154de23","6617fad957f7c6a12ea16e26","6622cf82e4fc4fafc94931f3","image grid","q","","","","","Ontogenetic_Distractor_Threat_target","ongrid","800","q","5","Ontogenetic","true","experimental"
"","null","html-keyboard-response","300","253441","0.0-13.0-2.29","PySjZ5ENc8","5b06efd1732c5d000154de23","6617fad957f7c6a12ea16e26","6622cf82e4fc4fafc94931f3","
    <div id=""grid-container"">
        <!-- Grid items will be dynamically added here -->
    </div>    ","null","","","","","","","","","","","",""
"","null","html-keyboard-response","301","254154","0.0-13.0-0.30","PySjZ5ENc8","5b06efd1732c5d000154de23","6617fad957f7c6a12ea16e26","6622cf82e4fc4fafc94931f3","fixation cross","null","","","","","","","","","","","",""
"","686","html-keyboard-response","302","254841","0.0-13.0-1.30","PySjZ5ENc8","5b06efd1732c5d000154de23","6617fad957f7c6a12ea16e26","6622cf82e4fc4fafc94931f3","image grid","q","","","","","Ontogenetic_Distractor_Threat_target","ongrid","800","q","2","Ontogenetic","true","experimental"
"","null","html-keyboard-response","303","254997","0.0-13.0-2.30","PySjZ5ENc8","5b06efd1732c5d000154de23","6617fad957f7c6a12ea16e26","6622cf82e4fc4fafc94931f3","
    <div id=""grid-container"">
        <!-- Grid items will be dynamically added here -->
    </div>    ","null","","","","","","","","","","","",""
"","null","html-keyboard-response","304","255706","0.0-13.0-0.31","PySjZ5ENc8","5b06efd1732c5d000154de23","6617fad957f7c6a12ea16e26","6622cf82e4fc4fafc94931f3","fixation cross","null","","","","","","","","","","","",""
"","786","html-keyboard-response","305","256493","0.0-13.0-1.31","PySjZ5ENc8","5b06efd1732c5d000154de23","6617fad957f7c6a12ea16e26","6622cf82e4fc4fafc94931f3","image grid","p","","","","","Ontogenetic_Distractor_Nonthreat_target","ongrid","800","p","4","Ontogenetic","true","experimental"
"","null","html-keyboard-response","306","256650","0.0-13.0-2.31","PySjZ5ENc8","5b06efd1732c5d000154de23","6617fad957f7c6a12ea16e26","6622cf82e4fc4fafc94931f3","
    <div id=""grid-container"">
        <!-- Grid items will be dynamically added here -->
    </div>    ","null","","","","","","","","","","","",""
"","null","html-keyboard-response","307","257357","0.0-13.0-0.32","PySjZ5ENc8","5b06efd1732c5d000154de23","6617fad957f7c6a12ea16e26","6622cf82e4fc4fafc94931f3","fixation cross","null","","","","","","","","","","","",""
"","null","html-keyboard-response","308","258163","0.0-13.0-1.32","PySjZ5ENc8","5b06efd1732c5d000154de23","6617fad957f7c6a12ea16e26","6622cf82e4fc4fafc94931f3","
        <div id=""grid-container"">
        <!-- Grid items will be dynamically added here -->
    </div>    ","null","","","","","","","","","","","",""
"","1019","html-keyboard-response","309","258381","0.0-13.0-2.32","PySjZ5ENc8","5b06efd1732c5d000154de23","6617fad957f7c6a12ea16e26","6622cf82e4fc4fafc94931f3","mask grid"," ","","","","","Ontogenetic_Distractor_notarget","onmask","800"," ","5","Ontogenetic","true","experimental"
"","null","html-keyboard-response","310","259094","0.0-13.0-0.33","PySjZ5ENc8","5b06efd1732c5d000154de23","6617fad957f7c6a12ea16e26","6622cf82e4fc4fafc94931f3","fixation cross","null","","","","","","","","","","","",""
"","668","html-keyboard-response","311","259762","0.0-13.0-1.33","PySjZ5ENc8","5b06efd1732c5d000154de23","6617fad957f7c6a12ea16e26","6622cf82e4fc4fafc94931f3","image grid","p","","","","","Ontogenetic_Distractor_Nonthreat_target","ongrid","800","p","5","Ontogenetic","true","experimental"
"","null","html-keyboard-response","312","259923","0.0-13.0-2.33","PySjZ5ENc8","5b06efd1732c5d000154de23","6617fad957f7c6a12ea16e26","6622cf82e4fc4fafc94931f3","
    <div id=""grid-container"">
        <!-- Grid items will be dynamically added here -->
    </div>    ","null","","","","","","","","","","","",""
"","null","html-keyboard-response","313","260634","0.0-13.0-0.34","PySjZ5ENc8","5b06efd1732c5d000154de23","6617fad957f7c6a12ea16e26","6622cf82e4fc4fafc94931f3","fixation cross","null","","","","","","","","","","","",""
"","658","html-keyboard-response","314","261292","0.0-13.0-1.34","PySjZ5ENc8","5b06efd1732c5d000154de23","6617fad957f7c6a12ea16e26","6622cf82e4fc4fafc94931f3","image grid","q","","","","","Ontogenetic_Distractor_Threat_target","ongrid","800","q","1","Ontogenetic","true","experimental"
"","null","html-keyboard-response","315","261450","0.0-13.0-2.34","PySjZ5ENc8","5b06efd1732c5d000154de23","6617fad957f7c6a12ea16e26","6622cf82e4fc4fafc94931f3","
    <div id=""grid-container"">
        <!-- Grid items will be dynamically added here -->
    </div>    ","null","","","","","","","","","","","",""
"","null","html-keyboard-response","316","262161","0.0-13.0-0.35","PySjZ5ENc8","5b06efd1732c5d000154de23","6617fad957f7c6a12ea16e26","6622cf82e4fc4fafc94931f3","fixation cross","null","","","","","","","","","","","",""
"","751","html-keyboard-response","317","262913","0.0-13.0-1.35","PySjZ5ENc8","5b06efd1732c5d000154de23","6617fad957f7c6a12ea16e26","6622cf82e4fc4fafc94931f3","image grid","q","","","","","Ontogenetic_Distractor_Threat_target","ongrid","800","q","3","Ontogenetic","true","experimental"
"","null","html-keyboard-response","318","263067","0.0-13.0-2.35","PySjZ5ENc8","5b06efd1732c5d000154de23","6617fad957f7c6a12ea16e26","6622cf82e4fc4fafc94931f3","
    <div id=""grid-container"">
        <!-- Grid items will be dynamically added here -->
    </div>    ","null","","","","","","","","","","","",""
"","null","html-keyboard-response","319","263778","0.0-13.0-0.36","PySjZ5ENc8","5b06efd1732c5d000154de23","6617fad957f7c6a12ea16e26","6622cf82e4fc4fafc94931f3","fixation cross","null","","","","","","","","","","","",""
"","null","html-keyboard-response","320","264584","0.0-13.0-1.36","PySjZ5ENc8","5b06efd1732c5d000154de23","6617fad957f7c6a12ea16e26","6622cf82e4fc4fafc94931f3","
        <div id=""grid-container"">
        <!-- Grid items will be dynamically added here -->
    </div>    ","null","","","","","","","","","","","",""
"","1048","html-keyboard-response","321","264833","0.0-13.0-2.36","PySjZ5ENc8","5b06efd1732c5d000154de23","6617fad957f7c6a12ea16e26","6622cf82e4fc4fafc94931f3","mask grid"," ","","","","","Ontogenetic_Distractor_notarget","onmask","800"," ","8","Ontogenetic","true","experimental"
"","null","html-keyboard-response","322","265544","0.0-13.0-0.37","PySjZ5ENc8","5b06efd1732c5d000154de23","6617fad957f7c6a12ea16e26","6622cf82e4fc4fafc94931f3","fixation cross","null","","","","","","","","","","","",""
"","null","html-keyboard-response","323","266351","0.0-13.0-1.37","PySjZ5ENc8","5b06efd1732c5d000154de23","6617fad957f7c6a12ea16e26","6622cf82e4fc4fafc94931f3","
        <div id=""grid-container"">
        <!-- Grid items will be dynamically added here -->
    </div>    ","null","","","","","","","","","","","",""
"","883","html-keyboard-response","324","266434","0.0-13.0-2.37","PySjZ5ENc8","5b06efd1732c5d000154de23","6617fad957f7c6a12ea16e26","6622cf82e4fc4fafc94931f3","mask grid"," ","","","","","Ontogenetic_Distractor_notarget","onmask","800"," ","8","Ontogenetic","true","experimental"
"","null","html-keyboard-response","325","267142","0.0-13.0-0.38","PySjZ5ENc8","5b06efd1732c5d000154de23","6617fad957f7c6a12ea16e26","6622cf82e4fc4fafc94931f3","fixation cross","null","","","","","","","","","","","",""
"","780","html-keyboard-response","326","267923","0.0-13.0-1.38","PySjZ5ENc8","5b06efd1732c5d000154de23","6617fad957f7c6a12ea16e26","6622cf82e4fc4fafc94931f3","image grid","p","","","","","Ontogenetic_Distractor_Nonthreat_target","ongrid","800","p","3","Ontogenetic","true","experimental"
"","null","html-keyboard-response","327","268080","0.0-13.0-2.38","PySjZ5ENc8","5b06efd1732c5d000154de23","6617fad957f7c6a12ea16e26","6622cf82e4fc4fafc94931f3","
    <div id=""grid-container"">
        <!-- Grid items will be dynamically added here -->
    </div>    ","null","","","","","","","","","","","",""
"","null","html-keyboard-response","328","268786","0.0-13.0-0.39","PySjZ5ENc8","5b06efd1732c5d000154de23","6617fad957f7c6a12ea16e26","6622cf82e4fc4fafc94931f3","fixation cross","null","","","","","","","","","","","",""
"","null","html-keyboard-response","329","269592","0.0-13.0-1.39","PySjZ5ENc8","5b06efd1732c5d000154de23","6617fad957f7c6a12ea16e26","6622cf82e4fc4fafc94931f3","
        <div id=""grid-container"">
        <!-- Grid items will be dynamically added here -->
    </div>    ","null","","","","","","","","","","","",""
"","866","html-keyboard-response","330","269659","0.0-13.0-2.39","PySjZ5ENc8","5b06efd1732c5d000154de23","6617fad957f7c6a12ea16e26","6622cf82e4fc4fafc94931f3","mask grid","q","","","","","Ontogenetic_Distractor_Threat_target","onmask","800","q","5","Ontogenetic","true","experimental"
"","1447","html-keyboard-response","331","271313","0.0-14.0","PySjZ5ENc8","5b06efd1732c5d000154de23","6617fad957f7c6a12ea16e26","6622cf82e4fc4fafc94931f3","break screen"," ","","","","","","","","","","","",""
"","null","html-keyboard-response","332","273824","0.0-15.0-0.0","PySjZ5ENc8","5b06efd1732c5d000154de23","6617fad957f7c6a12ea16e26","6622cf82e4fc4fafc94931f3","fixation cross","null","","","","","","","","","","","",""
"","1926","html-keyboard-response","333","275751","0.0-15.0-1.0","PySjZ5ENc8","5b06efd1732c5d000154de23","6617fad957f7c6a12ea16e26","6622cf82e4fc4fafc94931f3","image grid","q","","","","","Phylogenetic_Distractor_Threat_target","ongrid","2500","q","7","Phylogenetic","true","experimental"
"","null","html-keyboard-response","334","275910","0.0-15.0-2.0","PySjZ5ENc8","5b06efd1732c5d000154de23","6617fad957f7c6a12ea16e26","6622cf82e4fc4fafc94931f3","
    <div id=""grid-container"">
        <!-- Grid items will be dynamically added here -->
    </div>    ","null","","","","","","","","","","","",""
"","null","html-keyboard-response","335","276618","0.0-15.0-0.1","PySjZ5ENc8","5b06efd1732c5d000154de23","6617fad957f7c6a12ea16e26","6622cf82e4fc4fafc94931f3","fixation cross","null","","","","","","","","","","","",""
"","1024","html-keyboard-response","336","277643","0.0-15.0-1.1","PySjZ5ENc8","5b06efd1732c5d000154de23","6617fad957f7c6a12ea16e26","6622cf82e4fc4fafc94931f3","image grid","q","","","","","Phylogenetic_Distractor_Threat_target","ongrid","2500","q","1","Phylogenetic","true","experimental"
"","null","html-keyboard-response","337","277800","0.0-15.0-2.1","PySjZ5ENc8","5b06efd1732c5d000154de23","6617fad957f7c6a12ea16e26","6622cf82e4fc4fafc94931f3","
    <div id=""grid-container"">
        <!-- Grid items will be dynamically added here -->
    </div>    ","null","","","","","","","","","","","",""
"","null","html-keyboard-response","338","278511","0.0-15.0-0.2","PySjZ5ENc8","5b06efd1732c5d000154de23","6617fad957f7c6a12ea16e26","6622cf82e4fc4fafc94931f3","fixation cross","null","","","","","","","","","","","",""
"","988","html-keyboard-response","339","279499","0.0-15.0-1.2","PySjZ5ENc8","5b06efd1732c5d000154de23","6617fad957f7c6a12ea16e26","6622cf82e4fc4fafc94931f3","image grid","q","","","","","Phylogenetic_Distractor_Threat_target","ongrid","2500","q","2","Phylogenetic","true","experimental"
"","null","html-keyboard-response","340","279655","0.0-15.0-2.2","PySjZ5ENc8","5b06efd1732c5d000154de23","6617fad957f7c6a12ea16e26","6622cf82e4fc4fafc94931f3","
    <div id=""grid-container"">
        <!-- Grid items will be dynamically added here -->
    </div>    ","null","","","","","","","","","","","",""
"","null","html-keyboard-response","341","280374","0.0-15.0-0.3","PySjZ5ENc8","5b06efd1732c5d000154de23","6617fad957f7c6a12ea16e26","6622cf82e4fc4fafc94931f3","fixation cross","null","","","","","","","","","","","",""
"","854","html-keyboard-response","342","281228","0.0-15.0-1.3","PySjZ5ENc8","5b06efd1732c5d000154de23","6617fad957f7c6a12ea16e26","6622cf82e4fc4fafc94931f3","image grid","q","","","","","Phylogenetic_Distractor_Threat_target","ongrid","2500","q","5","Phylogenetic","true","experimental"
"","null","html-keyboard-response","343","281384","0.0-15.0-2.3","PySjZ5ENc8","5b06efd1732c5d000154de23","6617fad957f7c6a12ea16e26","6622cf82e4fc4fafc94931f3","
    <div id=""grid-container"">
        <!-- Grid items will be dynamically added here -->
    </div>    ","null","","","","","","","","","","","",""
"","null","html-keyboard-response","344","282091","0.0-15.0-0.4","PySjZ5ENc8","5b06efd1732c5d000154de23","6617fad957f7c6a12ea16e26","6622cf82e4fc4fafc94931f3","fixation cross","null","","","","","","","","","","","",""
"","1027","html-keyboard-response","345","283118","0.0-15.0-1.4","PySjZ5ENc8","5b06efd1732c5d000154de23","6617fad957f7c6a12ea16e26","6622cf82e4fc4fafc94931f3","image grid"," ","","","","","Phylogenetic_Distractor_Nonthreat_target","ongrid","2500","p","9","Phylogenetic","false","experimental"
"","null","html-keyboard-response","346","283276","0.0-15.0-2.4","PySjZ5ENc8","5b06efd1732c5d000154de23","6617fad957f7c6a12ea16e26","6622cf82e4fc4fafc94931f3","
    <div id=""grid-container"">
        <!-- Grid items will be dynamically added here -->
    </div>    ","null","","","","","","","","","","","",""
"","null","html-keyboard-response","347","283987","0.0-15.0-0.5","PySjZ5ENc8","5b06efd1732c5d000154de23","6617fad957f7c6a12ea16e26","6622cf82e4fc4fafc94931f3","fixation cross","null","","","","","","","","","","","",""
"","794","html-keyboard-response","348","284782","0.0-15.0-1.5","PySjZ5ENc8","5b06efd1732c5d000154de23","6617fad957f7c6a12ea16e26","6622cf82e4fc4fafc94931f3","image grid","q","","","","","Phylogenetic_Distractor_Threat_target","ongrid","2500","q","2","Phylogenetic","true","experimental"
"","null","html-keyboard-response","349","284940","0.0-15.0-2.5","PySjZ5ENc8","5b06efd1732c5d000154de23","6617fad957f7c6a12ea16e26","6622cf82e4fc4fafc94931f3","
    <div id=""grid-container"">
        <!-- Grid items will be dynamically added here -->
    </div>    ","null","","","","","","","","","","","",""
"","null","html-keyboard-response","350","285651","0.0-15.0-0.6","PySjZ5ENc8","5b06efd1732c5d000154de23","6617fad957f7c6a12ea16e26","6622cf82e4fc4fafc94931f3","fixation cross","null","","","","","","","","","","","",""
"","1081","html-keyboard-response","351","286733","0.0-15.0-1.6","PySjZ5ENc8","5b06efd1732c5d000154de23","6617fad957f7c6a12ea16e26","6622cf82e4fc4fafc94931f3","image grid"," ","","","","","Phylogenetic_Distractor_Nonthreat_target","ongrid","2500","p","2","Phylogenetic","false","experimental"
"","null","html-keyboard-response","352","286890","0.0-15.0-2.6","PySjZ5ENc8","5b06efd1732c5d000154de23","6617fad957f7c6a12ea16e26","6622cf82e4fc4fafc94931f3","
    <div id=""grid-container"">
        <!-- Grid items will be dynamically added here -->
    </div>    ","null","","","","","","","","","","","",""
"","null","html-keyboard-response","353","287598","0.0-15.0-0.7","PySjZ5ENc8","5b06efd1732c5d000154de23","6617fad957f7c6a12ea16e26","6622cf82e4fc4fafc94931f3","fixation cross","null","","","","","","","","","","","",""
"","1263","html-keyboard-response","354","288861","0.0-15.0-1.7","PySjZ5ENc8","5b06efd1732c5d000154de23","6617fad957f7c6a12ea16e26","6622cf82e4fc4fafc94931f3","image grid"," ","","","","","Phylogenetic_Distractor_notarget","ongrid","2500"," ","6","Phylogenetic","true","experimental"
"","null","html-keyboard-response","355","289018","0.0-15.0-2.7","PySjZ5ENc8","5b06efd1732c5d000154de23","6617fad957f7c6a12ea16e26","6622cf82e4fc4fafc94931f3","
    <div id=""grid-container"">
        <!-- Grid items will be dynamically added here -->
    </div>    ","null","","","","","","","","","","","",""
"","null","html-keyboard-response","356","289729","0.0-15.0-0.8","PySjZ5ENc8","5b06efd1732c5d000154de23","6617fad957f7c6a12ea16e26","6622cf82e4fc4fafc94931f3","fixation cross","null","","","","","","","","","","","",""
"","873","html-keyboard-response","357","290602","0.0-15.0-1.8","PySjZ5ENc8","5b06efd1732c5d000154de23","6617fad957f7c6a12ea16e26","6622cf82e4fc4fafc94931f3","image grid","p","","","","","Phylogenetic_Distractor_Nonthreat_target","ongrid","2500","p","3","Phylogenetic","true","experimental"
"","null","html-keyboard-response","358","290759","0.0-15.0-2.8","PySjZ5ENc8","5b06efd1732c5d000154de23","6617fad957f7c6a12ea16e26","6622cf82e4fc4fafc94931f3","
    <div id=""grid-container"">
        <!-- Grid items will be dynamically added here -->
    </div>    ","null","","","","","","","","","","","",""
"","null","html-keyboard-response","359","291475","0.0-15.0-0.9","PySjZ5ENc8","5b06efd1732c5d000154de23","6617fad957f7c6a12ea16e26","6622cf82e4fc4fafc94931f3","fixation cross","null","","","","","","","","","","","",""
"","1018","html-keyboard-response","360","292493","0.0-15.0-1.9","PySjZ5ENc8","5b06efd1732c5d000154de23","6617fad957f7c6a12ea16e26","6622cf82e4fc4fafc94931f3","image grid","p","","","","","Phylogenetic_Distractor_Nonthreat_target","ongrid","2500","p","6","Phylogenetic","true","experimental"
"","null","html-keyboard-response","361","292649","0.0-15.0-2.9","PySjZ5ENc8","5b06efd1732c5d000154de23","6617fad957f7c6a12ea16e26","6622cf82e4fc4fafc94931f3","
    <div id=""grid-container"">
        <!-- Grid items will be dynamically added here -->
    </div>    ","null","","","","","","","","","","","",""
"","null","html-keyboard-response","362","293374","0.0-15.0-0.10","PySjZ5ENc8","5b06efd1732c5d000154de23","6617fad957f7c6a12ea16e26","6622cf82e4fc4fafc94931f3","fixation cross","null","","","","","","","","","","","",""
"","706","html-keyboard-response","363","294081","0.0-15.0-1.10","PySjZ5ENc8","5b06efd1732c5d000154de23","6617fad957f7c6a12ea16e26","6622cf82e4fc4fafc94931f3","image grid","q","","","","","Phylogenetic_Distractor_Threat_target","ongrid","2500","q","8","Phylogenetic","true","experimental"
"","null","html-keyboard-response","364","294240","0.0-15.0-2.10","PySjZ5ENc8","5b06efd1732c5d000154de23","6617fad957f7c6a12ea16e26","6622cf82e4fc4fafc94931f3","
    <div id=""grid-container"">
        <!-- Grid items will be dynamically added here -->
    </div>    ","null","","","","","","","","","","","",""
"","null","html-keyboard-response","365","294951","0.0-15.0-0.11","PySjZ5ENc8","5b06efd1732c5d000154de23","6617fad957f7c6a12ea16e26","6622cf82e4fc4fafc94931f3","fixation cross","null","","","","","","","","","","","",""
"","1320","html-keyboard-response","366","296273","0.0-15.0-1.11","PySjZ5ENc8","5b06efd1732c5d000154de23","6617fad957f7c6a12ea16e26","6622cf82e4fc4fafc94931f3","image grid","q","","","","","Phylogenetic_Distractor_Threat_target","ongrid","2500","q","7","Phylogenetic","true","experimental"
"","null","html-keyboard-response","367","296429","0.0-15.0-2.11","PySjZ5ENc8","5b06efd1732c5d000154de23","6617fad957f7c6a12ea16e26","6622cf82e4fc4fafc94931f3","
    <div id=""grid-container"">
        <!-- Grid items will be dynamically added here -->
    </div>    ","null","","","","","","","","","","","",""
"","null","html-keyboard-response","368","297140","0.0-15.0-0.12","PySjZ5ENc8","5b06efd1732c5d000154de23","6617fad957f7c6a12ea16e26","6622cf82e4fc4fafc94931f3","fixation cross","null","","","","","","","","","","","",""
"","2011","html-keyboard-response","369","299151","0.0-15.0-1.12","PySjZ5ENc8","5b06efd1732c5d000154de23","6617fad957f7c6a12ea16e26","6622cf82e4fc4fafc94931f3","image grid","p","","","","","Phylogenetic_Distractor_Nonthreat_target","ongrid","2500","p","1","Phylogenetic","true","experimental"
"","null","html-keyboard-response","370","299309","0.0-15.0-2.12","PySjZ5ENc8","5b06efd1732c5d000154de23","6617fad957f7c6a12ea16e26","6622cf82e4fc4fafc94931f3","
    <div id=""grid-container"">
        <!-- Grid items will be dynamically added here -->
    </div>    ","null","","","","","","","","","","","",""
