"success","rt","trial_type","trial_index","time_elapsed","internal_node_id","unique_identifier","subject_id","study_id","session_id","stimulus","response","timeout","failed_images","failed_audio","failed_video","task","time_manipulation","respondedwhen","correctresponse","targetimagelocation","blocktype","correct","roundtype"
"true","4112","fullscreen","0","5121","0.0-0.0","CPXsnFXBI5","655ce6f7af924eb65bdefd92","6617fad957f7c6a12ea16e26","6622cdeefe4b761d33560530","","","","","","","","","","","","","",""
"","11420","html-keyboard-response","1","16542","0.0-1.0","CPXsnFXBI5","655ce6f7af924eb65bdefd92","6617fad957f7c6a12ea16e26","6622cdeefe4b761d33560530","instruction screen 0","enter","","","","","","","","","","","",""
"true","","preload","2","18725","0.0-2.0","CPXsnFXBI5","655ce6f7af924eb65bdefd92","6617fad957f7c6a12ea16e26","6622cdeefe4b761d33560530","","","false","[]","[]","[]","","","","","","","",""
"","10374","html-keyboard-response","3","29105","0.0-3.0","CPXsnFXBI5","655ce6f7af924eb65bdefd92","6617fad957f7c6a12ea16e26","6622cdeefe4b761d33560530","instruction screen 1","enter","","","","","","","","","","","",""
"","13952","html-keyboard-response","4","43058","0.0-4.0","CPXsnFXBI5","655ce6f7af924eb65bdefd92","6617fad957f7c6a12ea16e26","6622cdeefe4b761d33560530","instruction screen 2","q","","","","","","","","","","","",""
"","4383","html-keyboard-response","5","47443","0.0-5.0","CPXsnFXBI5","655ce6f7af924eb65bdefd92","6617fad957f7c6a12ea16e26","6622cdeefe4b761d33560530","instruction screen 3","p","","","","","","","","","","","",""
"","5663","html-keyboard-response","6","53108","0.0-6.0","CPXsnFXBI5","655ce6f7af924eb65bdefd92","6617fad957f7c6a12ea16e26","6622cdeefe4b761d33560530","instruction screen 4"," ","","","","","","","","","","","",""
"","12353","html-keyboard-response","7","65462","0.0-7.0","CPXsnFXBI5","655ce6f7af924eb65bdefd92","6617fad957f7c6a12ea16e26","6622cdeefe4b761d33560530","instruction screen 5","enter","","","","","","","","","","","",""
"","null","html-keyboard-response","8","65991","0.0-8.0","CPXsnFXBI5","655ce6f7af924eb65bdefd92","6617fad957f7c6a12ea16e26","6622cdeefe4b761d33560530","fixation cross","null","","","","","","","","","","","",""
"","null","html-keyboard-response","9","66494","0.0-9.0-0.0","CPXsnFXBI5","655ce6f7af924eb65bdefd92","6617fad957f7c6a12ea16e26","6622cdeefe4b761d33560530","fixation cross","null","","","","","","","","","","","",""
"","1895","html-keyboard-response","10","68390","0.0-9.0-1.0","CPXsnFXBI5","655ce6f7af924eb65bdefd92","6617fad957f7c6a12ea16e26","6622cdeefe4b761d33560530","image grid","p","","","","","Ontogenetic_Distractor_Nonthreat_target","3000","ongrid","p","3","Phylogenetic","true","practice"
"","null","html-keyboard-response","11","68553","0.0-9.0-2.0","CPXsnFXBI5","655ce6f7af924eb65bdefd92","6617fad957f7c6a12ea16e26","6622cdeefe4b761d33560530","
    <div id=""grid-container"">
        <!-- Grid items will be dynamically added here -->
    </div>    ","null","","","","","","","","","","","",""
"","null","html-keyboard-response","12","69756","0.0-9.0-3.0","CPXsnFXBI5","655ce6f7af924eb65bdefd92","6617fad957f7c6a12ea16e26","6622cdeefe4b761d33560530","feedback screen","null","","","","","","","","","","","",""
"","null","html-keyboard-response","13","70271","0.0-9.0-0.1","CPXsnFXBI5","655ce6f7af924eb65bdefd92","6617fad957f7c6a12ea16e26","6622cdeefe4b761d33560530","fixation cross","null","","","","","","","","","","","",""
"","2583","html-keyboard-response","14","72854","0.0-9.0-1.1","CPXsnFXBI5","655ce6f7af924eb65bdefd92","6617fad957f7c6a12ea16e26","6622cdeefe4b761d33560530","image grid","q","","","","","Phylogenetic_Distractor_Threat_target","2900","ongrid","q","5","Phylogenetic","true","practice"
"","null","html-keyboard-response","15","73011","0.0-9.0-2.1","CPXsnFXBI5","655ce6f7af924eb65bdefd92","6617fad957f7c6a12ea16e26","6622cdeefe4b761d33560530","
    <div id=""grid-container"">
        <!-- Grid items will be dynamically added here -->
    </div>    ","null","","","","","","","","","","","",""
"","null","html-keyboard-response","16","74226","0.0-9.0-3.1","CPXsnFXBI5","655ce6f7af924eb65bdefd92","6617fad957f7c6a12ea16e26","6622cdeefe4b761d33560530","feedback screen","null","","","","","","","","","","","",""
"","null","html-keyboard-response","17","74741","0.0-9.0-0.2","CPXsnFXBI5","655ce6f7af924eb65bdefd92","6617fad957f7c6a12ea16e26","6622cdeefe4b761d33560530","fixation cross","null","","","","","","","","","","","",""
"","1361","html-keyboard-response","18","76103","0.0-9.0-1.2","CPXsnFXBI5","655ce6f7af924eb65bdefd92","6617fad957f7c6a12ea16e26","6622cdeefe4b761d33560530","image grid","q","","","","","Ontogenetic_Distractor_Threat_target","2800","ongrid","q","8","Phylogenetic","true","practice"
"","null","html-keyboard-response","19","76260","0.0-9.0-2.2","CPXsnFXBI5","655ce6f7af924eb65bdefd92","6617fad957f7c6a12ea16e26","6622cdeefe4b761d33560530","
    <div id=""grid-container"">
        <!-- Grid items will be dynamically added here -->
    </div>    ","null","","","","","","","","","","","",""
"","null","html-keyboard-response","20","77477","0.0-9.0-3.2","CPXsnFXBI5","655ce6f7af924eb65bdefd92","6617fad957f7c6a12ea16e26","6622cdeefe4b761d33560530","feedback screen","null","","","","","","","","","","","",""
"","null","html-keyboard-response","21","77992","0.0-9.0-0.3","CPXsnFXBI5","655ce6f7af924eb65bdefd92","6617fad957f7c6a12ea16e26","6622cdeefe4b761d33560530","fixation cross","null","","","","","","","","","","","",""
"","1743","html-keyboard-response","22","79736","0.0-9.0-1.3","CPXsnFXBI5","655ce6f7af924eb65bdefd92","6617fad957f7c6a12ea16e26","6622cdeefe4b761d33560530","image grid"," ","","","","","Ontogenetic_Distractor_notarget","2700","ongrid"," ","8","Phylogenetic","true","practice"
"","null","html-keyboard-response","23","79888","0.0-9.0-2.3","CPXsnFXBI5","655ce6f7af924eb65bdefd92","6617fad957f7c6a12ea16e26","6622cdeefe4b761d33560530","
    <div id=""grid-container"">
        <!-- Grid items will be dynamically added here -->
    </div>    ","null","","","","","","","","","","","",""
"","null","html-keyboard-response","24","81108","0.0-9.0-3.3","CPXsnFXBI5","655ce6f7af924eb65bdefd92","6617fad957f7c6a12ea16e26","6622cdeefe4b761d33560530","feedback screen","null","","","","","","","","","","","",""
"","null","html-keyboard-response","25","81609","0.0-9.0-0.4","CPXsnFXBI5","655ce6f7af924eb65bdefd92","6617fad957f7c6a12ea16e26","6622cdeefe4b761d33560530","fixation cross","null","","","","","","","","","","","",""
"","null","html-keyboard-response","26","84217","0.0-9.0-1.4","CPXsnFXBI5","655ce6f7af924eb65bdefd92","6617fad957f7c6a12ea16e26","6622cdeefe4b761d33560530","
        <div id=""grid-container"">
        <!-- Grid items will be dynamically added here -->
    </div>    ","null","","","","","","","","","","","",""
"","2791","html-keyboard-response","27","84408","0.0-9.0-2.4","CPXsnFXBI5","655ce6f7af924eb65bdefd92","6617fad957f7c6a12ea16e26","6622cdeefe4b761d33560530","mask grid"," ","","","","","Phylogenetic_Distractor_notarget","2600","onmask"," ","7","Phylogenetic","true","practice"
"","null","html-keyboard-response","28","85625","0.0-9.0-3.4","CPXsnFXBI5","655ce6f7af924eb65bdefd92","6617fad957f7c6a12ea16e26","6622cdeefe4b761d33560530","feedback screen","null","","","","","","","","","","","",""
"","null","html-keyboard-response","29","86143","0.0-9.0-0.5","CPXsnFXBI5","655ce6f7af924eb65bdefd92","6617fad957f7c6a12ea16e26","6622cdeefe4b761d33560530","fixation cross","null","","","","","","","","","","","",""
"","2089","html-keyboard-response","30","88233","0.0-9.0-1.5","CPXsnFXBI5","655ce6f7af924eb65bdefd92","6617fad957f7c6a12ea16e26","6622cdeefe4b761d33560530","image grid"," ","","","","","Phylogenetic_Distractor_Threat_target","2500","ongrid","q","3","Phylogenetic","false","practice"
"","null","html-keyboard-response","31","88393","0.0-9.0-2.5","CPXsnFXBI5","655ce6f7af924eb65bdefd92","6617fad957f7c6a12ea16e26","6622cdeefe4b761d33560530","
    <div id=""grid-container"">
        <!-- Grid items will be dynamically added here -->
    </div>    ","null","","","","","","","","","","","",""
"","null","html-keyboard-response","32","89611","0.0-9.0-3.5","CPXsnFXBI5","655ce6f7af924eb65bdefd92","6617fad957f7c6a12ea16e26","6622cdeefe4b761d33560530","feedback screen","null","","","","","","","","","","","",""
"","null","html-keyboard-response","33","90124","0.0-9.0-0.6","CPXsnFXBI5","655ce6f7af924eb65bdefd92","6617fad957f7c6a12ea16e26","6622cdeefe4b761d33560530","fixation cross","null","","","","","","","","","","","",""
"","1485","html-keyboard-response","34","91609","0.0-9.0-1.6","CPXsnFXBI5","655ce6f7af924eb65bdefd92","6617fad957f7c6a12ea16e26","6622cdeefe4b761d33560530","image grid","p","","","","","Phylogenetic_Distractor_Nonthreat_target","2400","ongrid","p","2","Phylogenetic","true","practice"
"","null","html-keyboard-response","35","91766","0.0-9.0-2.6","CPXsnFXBI5","655ce6f7af924eb65bdefd92","6617fad957f7c6a12ea16e26","6622cdeefe4b761d33560530","
    <div id=""grid-container"">
        <!-- Grid items will be dynamically added here -->
    </div>    ","null","","","","","","","","","","","",""
"","null","html-keyboard-response","36","92981","0.0-9.0-3.6","CPXsnFXBI5","655ce6f7af924eb65bdefd92","6617fad957f7c6a12ea16e26","6622cdeefe4b761d33560530","feedback screen","null","","","","","","","","","","","",""
"","null","html-keyboard-response","37","93496","0.0-9.0-0.7","CPXsnFXBI5","655ce6f7af924eb65bdefd92","6617fad957f7c6a12ea16e26","6622cdeefe4b761d33560530","fixation cross","null","","","","","","","","","","","",""
"","1233","html-keyboard-response","38","94729","0.0-9.0-1.7","CPXsnFXBI5","655ce6f7af924eb65bdefd92","6617fad957f7c6a12ea16e26","6622cdeefe4b761d33560530","image grid","p","","","","","Ontogenetic_Distractor_Nonthreat_target","2300","ongrid","p","2","Phylogenetic","true","practice"
"","null","html-keyboard-response","39","94883","0.0-9.0-2.7","CPXsnFXBI5","655ce6f7af924eb65bdefd92","6617fad957f7c6a12ea16e26","6622cdeefe4b761d33560530","
    <div id=""grid-container"">
        <!-- Grid items will be dynamically added here -->
    </div>    ","null","","","","","","","","","","","",""
"","null","html-keyboard-response","40","96096","0.0-9.0-3.7","CPXsnFXBI5","655ce6f7af924eb65bdefd92","6617fad957f7c6a12ea16e26","6622cdeefe4b761d33560530","feedback screen","null","","","","","","","","","","","",""
"","null","html-keyboard-response","41","96612","0.0-9.0-0.8","CPXsnFXBI5","655ce6f7af924eb65bdefd92","6617fad957f7c6a12ea16e26","6622cdeefe4b761d33560530","fixation cross","null","","","","","","","","","","","",""
"","982","html-keyboard-response","42","97594","0.0-9.0-1.8","CPXsnFXBI5","655ce6f7af924eb65bdefd92","6617fad957f7c6a12ea16e26","6622cdeefe4b761d33560530","image grid","q","","","","","Phylogenetic_Distractor_Threat_target","2200","ongrid","q","5","Phylogenetic","true","practice"
"","null","html-keyboard-response","43","97749","0.0-9.0-2.8","CPXsnFXBI5","655ce6f7af924eb65bdefd92","6617fad957f7c6a12ea16e26","6622cdeefe4b761d33560530","
    <div id=""grid-container"">
        <!-- Grid items will be dynamically added here -->
    </div>    ","null","","","","","","","","","","","",""
"","null","html-keyboard-response","44","98956","0.0-9.0-3.8","CPXsnFXBI5","655ce6f7af924eb65bdefd92","6617fad957f7c6a12ea16e26","6622cdeefe4b761d33560530","feedback screen","null","","","","","","","","","","","",""
"","null","html-keyboard-response","45","99469","0.0-9.0-0.9","CPXsnFXBI5","655ce6f7af924eb65bdefd92","6617fad957f7c6a12ea16e26","6622cdeefe4b761d33560530","fixation cross","null","","","","","","","","","","","",""
"","1277","html-keyboard-response","46","100746","0.0-9.0-1.9","CPXsnFXBI5","655ce6f7af924eb65bdefd92","6617fad957f7c6a12ea16e26","6622cdeefe4b761d33560530","image grid","p","","","","","Ontogenetic_Distractor_Nonthreat_target","2100","ongrid","p","2","Phylogenetic","true","practice"
"","null","html-keyboard-response","47","100902","0.0-9.0-2.9","CPXsnFXBI5","655ce6f7af924eb65bdefd92","6617fad957f7c6a12ea16e26","6622cdeefe4b761d33560530","
    <div id=""grid-container"">
        <!-- Grid items will be dynamically added here -->
    </div>    ","null","","","","","","","","","","","",""
"","null","html-keyboard-response","48","102120","0.0-9.0-3.9","CPXsnFXBI5","655ce6f7af924eb65bdefd92","6617fad957f7c6a12ea16e26","6622cdeefe4b761d33560530","feedback screen","null","","","","","","","","","","","",""
"","null","html-keyboard-response","49","102636","0.0-9.0-0.10","CPXsnFXBI5","655ce6f7af924eb65bdefd92","6617fad957f7c6a12ea16e26","6622cdeefe4b761d33560530","fixation cross","null","","","","","","","","","","","",""
"","1119","html-keyboard-response","50","103755","0.0-9.0-1.10","CPXsnFXBI5","655ce6f7af924eb65bdefd92","6617fad957f7c6a12ea16e26","6622cdeefe4b761d33560530","image grid","p","","","","","Ontogenetic_Distractor_Nonthreat_target","2000","ongrid","p","8","Phylogenetic","true","practice"
"","null","html-keyboard-response","51","103916","0.0-9.0-2.10","CPXsnFXBI5","655ce6f7af924eb65bdefd92","6617fad957f7c6a12ea16e26","6622cdeefe4b761d33560530","
    <div id=""grid-container"">
        <!-- Grid items will be dynamically added here -->
    </div>    ","null","","","","","","","","","","","",""
"","null","html-keyboard-response","52","105125","0.0-9.0-3.10","CPXsnFXBI5","655ce6f7af924eb65bdefd92","6617fad957f7c6a12ea16e26","6622cdeefe4b761d33560530","feedback screen","null","","","","","","","","","","","",""
"","null","html-keyboard-response","53","105640","0.0-9.0-0.11","CPXsnFXBI5","655ce6f7af924eb65bdefd92","6617fad957f7c6a12ea16e26","6622cdeefe4b761d33560530","fixation cross","null","","","","","","","","","","","",""
"","835","html-keyboard-response","54","106475","0.0-9.0-1.11","CPXsnFXBI5","655ce6f7af924eb65bdefd92","6617fad957f7c6a12ea16e26","6622cdeefe4b761d33560530","image grid","q","","","","","Ontogenetic_Distractor_Threat_target","1900","ongrid","q","8","Phylogenetic","true","practice"
"","null","html-keyboard-response","55","106643","0.0-9.0-2.11","CPXsnFXBI5","655ce6f7af924eb65bdefd92","6617fad957f7c6a12ea16e26","6622cdeefe4b761d33560530","
    <div id=""grid-container"">
        <!-- Grid items will be dynamically added here -->
    </div>    ","null","","","","","","","","","","","",""
"","null","html-keyboard-response","56","107858","0.0-9.0-3.11","CPXsnFXBI5","655ce6f7af924eb65bdefd92","6617fad957f7c6a12ea16e26","6622cdeefe4b761d33560530","feedback screen","null","","","","","","","","","","","",""
"","null","html-keyboard-response","57","108371","0.0-9.0-0.12","CPXsnFXBI5","655ce6f7af924eb65bdefd92","6617fad957f7c6a12ea16e26","6622cdeefe4b761d33560530","fixation cross","null","","","","","","","","","","","",""
"","1592","html-keyboard-response","58","109964","0.0-9.0-1.12","CPXsnFXBI5","655ce6f7af924eb65bdefd92","6617fad957f7c6a12ea16e26","6622cdeefe4b761d33560530","image grid","p","","","","","Phylogenetic_Distractor_Nonthreat_target","1800","ongrid","p","2","Phylogenetic","true","practice"
"","null","html-keyboard-response","59","110115","0.0-9.0-2.12","CPXsnFXBI5","655ce6f7af924eb65bdefd92","6617fad957f7c6a12ea16e26","6622cdeefe4b761d33560530","
    <div id=""grid-container"">
        <!-- Grid items will be dynamically added here -->
    </div>    ","null","","","","","","","","","","","",""
"","null","html-keyboard-response","60","111320","0.0-9.0-3.12","CPXsnFXBI5","655ce6f7af924eb65bdefd92","6617fad957f7c6a12ea16e26","6622cdeefe4b761d33560530","feedback screen","null","","","","","","","","","","","",""
"","null","html-keyboard-response","61","111836","0.0-9.0-0.13","CPXsnFXBI5","655ce6f7af924eb65bdefd92","6617fad957f7c6a12ea16e26","6622cdeefe4b761d33560530","fixation cross","null","","","","","","","","","","","",""
"","null","html-keyboard-response","62","113551","0.0-9.0-1.13","CPXsnFXBI5","655ce6f7af924eb65bdefd92","6617fad957f7c6a12ea16e26","6622cdeefe4b761d33560530","
        <div id=""grid-container"">
        <!-- Grid items will be dynamically added here -->
    </div>    ","null","","","","","","","","","","","",""
"","1793","html-keyboard-response","63","113644","0.0-9.0-2.13","CPXsnFXBI5","655ce6f7af924eb65bdefd92","6617fad957f7c6a12ea16e26","6622cdeefe4b761d33560530","mask grid"," ","","","","","Phylogenetic_Distractor_Nonthreat_target","1700","onmask","p","9","Phylogenetic","false","practice"
"","null","html-keyboard-response","64","114854","0.0-9.0-3.13","CPXsnFXBI5","655ce6f7af924eb65bdefd92","6617fad957f7c6a12ea16e26","6622cdeefe4b761d33560530","feedback screen","null","","","","","","","","","","","",""
"","null","html-keyboard-response","65","115368","0.0-9.0-0.14","CPXsnFXBI5","655ce6f7af924eb65bdefd92","6617fad957f7c6a12ea16e26","6622cdeefe4b761d33560530","fixation cross","null","","","","","","","","","","","",""
"","null","html-keyboard-response","66","116970","0.0-9.0-1.14","CPXsnFXBI5","655ce6f7af924eb65bdefd92","6617fad957f7c6a12ea16e26","6622cdeefe4b761d33560530","
        <div id=""grid-container"">
        <!-- Grid items will be dynamically added here -->
    </div>    ","null","","","","","","","","","","","",""
"","1891","html-keyboard-response","67","117261","0.0-9.0-2.14","CPXsnFXBI5","655ce6f7af924eb65bdefd92","6617fad957f7c6a12ea16e26","6622cdeefe4b761d33560530","mask grid","p","","","","","Phylogenetic_Distractor_Nonthreat_target","1600","onmask","p","8","Phylogenetic","true","practice"
"","null","html-keyboard-response","68","118480","0.0-9.0-3.14","CPXsnFXBI5","655ce6f7af924eb65bdefd92","6617fad957f7c6a12ea16e26","6622cdeefe4b761d33560530","feedback screen","null","","","","","","","","","","","",""
"","null","html-keyboard-response","69","118995","0.0-9.0-0.15","CPXsnFXBI5","655ce6f7af924eb65bdefd92","6617fad957f7c6a12ea16e26","6622cdeefe4b761d33560530","fixation cross","null","","","","","","","","","","","",""
"","null","html-keyboard-response","70","120507","0.0-9.0-1.15","CPXsnFXBI5","655ce6f7af924eb65bdefd92","6617fad957f7c6a12ea16e26","6622cdeefe4b761d33560530","
        <div id=""grid-container"">
        <!-- Grid items will be dynamically added here -->
    </div>    ","null","","","","","","","","","","","",""
"","1566","html-keyboard-response","71","120573","0.0-9.0-2.15","CPXsnFXBI5","655ce6f7af924eb65bdefd92","6617fad957f7c6a12ea16e26","6622cdeefe4b761d33560530","mask grid"," ","","","","","Phylogenetic_Distractor_notarget","1500","onmask"," ","8","Phylogenetic","true","practice"
"","null","html-keyboard-response","72","121797","0.0-9.0-3.15","CPXsnFXBI5","655ce6f7af924eb65bdefd92","6617fad957f7c6a12ea16e26","6622cdeefe4b761d33560530","feedback screen","null","","","","","","","","","","","",""
"","null","html-keyboard-response","73","122312","0.0-9.0-0.16","CPXsnFXBI5","655ce6f7af924eb65bdefd92","6617fad957f7c6a12ea16e26","6622cdeefe4b761d33560530","fixation cross","null","","","","","","","","","","","",""
"","1077","html-keyboard-response","74","123390","0.0-9.0-1.16","CPXsnFXBI5","655ce6f7af924eb65bdefd92","6617fad957f7c6a12ea16e26","6622cdeefe4b761d33560530","image grid","q","","","","","Ontogenetic_Distractor_Threat_target","1400","ongrid","q","8","Phylogenetic","true","practice"
"","null","html-keyboard-response","75","123543","0.0-9.0-2.16","CPXsnFXBI5","655ce6f7af924eb65bdefd92","6617fad957f7c6a12ea16e26","6622cdeefe4b761d33560530","
    <div id=""grid-container"">
        <!-- Grid items will be dynamically added here -->
    </div>    ","null","","","","","","","","","","","",""
"","null","html-keyboard-response","76","124766","0.0-9.0-3.16","CPXsnFXBI5","655ce6f7af924eb65bdefd92","6617fad957f7c6a12ea16e26","6622cdeefe4b761d33560530","feedback screen","null","","","","","","","","","","","",""
"","null","html-keyboard-response","77","125280","0.0-9.0-0.17","CPXsnFXBI5","655ce6f7af924eb65bdefd92","6617fad957f7c6a12ea16e26","6622cdeefe4b761d33560530","fixation cross","null","","","","","","","","","","","",""
"","1277","html-keyboard-response","78","126558","0.0-9.0-1.17","CPXsnFXBI5","655ce6f7af924eb65bdefd92","6617fad957f7c6a12ea16e26","6622cdeefe4b761d33560530","image grid","p","","","","","Ontogenetic_Distractor_notarget","1300","ongrid"," ","3","Phylogenetic","false","practice"
"","null","html-keyboard-response","79","126717","0.0-9.0-2.17","CPXsnFXBI5","655ce6f7af924eb65bdefd92","6617fad957f7c6a12ea16e26","6622cdeefe4b761d33560530","
    <div id=""grid-container"">
        <!-- Grid items will be dynamically added here -->
    </div>    ","null","","","","","","","","","","","",""
"","null","html-keyboard-response","80","127930","0.0-9.0-3.17","CPXsnFXBI5","655ce6f7af924eb65bdefd92","6617fad957f7c6a12ea16e26","6622cdeefe4b761d33560530","feedback screen","null","","","","","","","","","","","",""
"","null","html-keyboard-response","81","128432","0.0-9.0-0.18","CPXsnFXBI5","655ce6f7af924eb65bdefd92","6617fad957f7c6a12ea16e26","6622cdeefe4b761d33560530","fixation cross","null","","","","","","","","","","","",""
"","846","html-keyboard-response","82","129279","0.0-9.0-1.18","CPXsnFXBI5","655ce6f7af924eb65bdefd92","6617fad957f7c6a12ea16e26","6622cdeefe4b761d33560530","image grid","q","","","","","Phylogenetic_Distractor_Threat_target","1200","ongrid","q","5","Phylogenetic","true","practice"
"","null","html-keyboard-response","83","129432","0.0-9.0-2.18","CPXsnFXBI5","655ce6f7af924eb65bdefd92","6617fad957f7c6a12ea16e26","6622cdeefe4b761d33560530","
    <div id=""grid-container"">
        <!-- Grid items will be dynamically added here -->
    </div>    ","null","","","","","","","","","","","",""
"","null","html-keyboard-response","84","130634","0.0-9.0-3.18","CPXsnFXBI5","655ce6f7af924eb65bdefd92","6617fad957f7c6a12ea16e26","6622cdeefe4b761d33560530","feedback screen","null","","","","","","","","","","","",""
"","null","html-keyboard-response","85","131148","0.0-9.0-0.19","CPXsnFXBI5","655ce6f7af924eb65bdefd92","6617fad957f7c6a12ea16e26","6622cdeefe4b761d33560530","fixation cross","null","","","","","","","","","","","",""
"","882","html-keyboard-response","86","132031","0.0-9.0-1.19","CPXsnFXBI5","655ce6f7af924eb65bdefd92","6617fad957f7c6a12ea16e26","6622cdeefe4b761d33560530","image grid","q","","","","","Ontogenetic_Distractor_Threat_target","1100","ongrid","q","5","Phylogenetic","true","practice"
"","null","html-keyboard-response","87","132181","0.0-9.0-2.19","CPXsnFXBI5","655ce6f7af924eb65bdefd92","6617fad957f7c6a12ea16e26","6622cdeefe4b761d33560530","
    <div id=""grid-container"">
        <!-- Grid items will be dynamically added here -->
    </div>    ","null","","","","","","","","","","","",""
"","null","html-keyboard-response","88","133391","0.0-9.0-3.19","CPXsnFXBI5","655ce6f7af924eb65bdefd92","6617fad957f7c6a12ea16e26","6622cdeefe4b761d33560530","feedback screen","null","","","","","","","","","","","",""
"","78955","html-keyboard-response","89","212362","0.0-10.0","CPXsnFXBI5","655ce6f7af924eb65bdefd92","6617fad957f7c6a12ea16e26","6622cdeefe4b761d33560530","pre-experimental_briefing","k","","","","","","","","","","","",""
"","null","html-keyboard-response","90","214872","0.0-11.0-0.0","CPXsnFXBI5","655ce6f7af924eb65bdefd92","6617fad957f7c6a12ea16e26","6622cdeefe4b761d33560530","fixation cross","null","","","","","","","","","","","",""
"","1747","html-keyboard-response","91","216619","0.0-11.0-1.0","CPXsnFXBI5","655ce6f7af924eb65bdefd92","6617fad957f7c6a12ea16e26","6622cdeefe4b761d33560530","image grid","p","","","","","Phylogenetic_Distractor_Threat_target","2500","ongrid","q","9","Phylogenetic","false","experimental"
"","null","html-keyboard-response","92","216780","0.0-11.0-2.0","CPXsnFXBI5","655ce6f7af924eb65bdefd92","6617fad957f7c6a12ea16e26","6622cdeefe4b761d33560530","
    <div id=""grid-container"">
        <!-- Grid items will be dynamically added here -->
    </div>    ","null","","","","","","","","","","","",""
"","null","html-keyboard-response","93","217484","0.0-11.0-0.1","CPXsnFXBI5","655ce6f7af924eb65bdefd92","6617fad957f7c6a12ea16e26","6622cdeefe4b761d33560530","fixation cross","null","","","","","","","","","","","",""
"","1135","html-keyboard-response","94","218620","0.0-11.0-1.1","CPXsnFXBI5","655ce6f7af924eb65bdefd92","6617fad957f7c6a12ea16e26","6622cdeefe4b761d33560530","image grid","p","","","","","Phylogenetic_Distractor_Nonthreat_target","2500","ongrid","p","5","Phylogenetic","true","experimental"
"","null","html-keyboard-response","95","218782","0.0-11.0-2.1","CPXsnFXBI5","655ce6f7af924eb65bdefd92","6617fad957f7c6a12ea16e26","6622cdeefe4b761d33560530","
    <div id=""grid-container"">
        <!-- Grid items will be dynamically added here -->
    </div>    ","null","","","","","","","","","","","",""
"","null","html-keyboard-response","96","219488","0.0-11.0-0.2","CPXsnFXBI5","655ce6f7af924eb65bdefd92","6617fad957f7c6a12ea16e26","6622cdeefe4b761d33560530","fixation cross","null","","","","","","","","","","","",""
"","859","html-keyboard-response","97","220347","0.0-11.0-1.2","CPXsnFXBI5","655ce6f7af924eb65bdefd92","6617fad957f7c6a12ea16e26","6622cdeefe4b761d33560530","image grid","p","","","","","Phylogenetic_Distractor_Threat_target","2500","ongrid","q","2","Phylogenetic","false","experimental"
"","null","html-keyboard-response","98","220502","0.0-11.0-2.2","CPXsnFXBI5","655ce6f7af924eb65bdefd92","6617fad957f7c6a12ea16e26","6622cdeefe4b761d33560530","
    <div id=""grid-container"">
        <!-- Grid items will be dynamically added here -->
    </div>    ","null","","","","","","","","","","","",""
"","null","html-keyboard-response","99","221209","0.0-11.0-0.3","CPXsnFXBI5","655ce6f7af924eb65bdefd92","6617fad957f7c6a12ea16e26","6622cdeefe4b761d33560530","fixation cross","null","","","","","","","","","","","",""
"","1411","html-keyboard-response","100","222620","0.0-11.0-1.3","CPXsnFXBI5","655ce6f7af924eb65bdefd92","6617fad957f7c6a12ea16e26","6622cdeefe4b761d33560530","image grid","p","","","","","Phylogenetic_Distractor_Nonthreat_target","2500","ongrid","p","8","Phylogenetic","true","experimental"
"","null","html-keyboard-response","101","222772","0.0-11.0-2.3","CPXsnFXBI5","655ce6f7af924eb65bdefd92","6617fad957f7c6a12ea16e26","6622cdeefe4b761d33560530","
    <div id=""grid-container"">
        <!-- Grid items will be dynamically added here -->
    </div>    ","null","","","","","","","","","","","",""
"","null","html-keyboard-response","102","223485","0.0-11.0-0.4","CPXsnFXBI5","655ce6f7af924eb65bdefd92","6617fad957f7c6a12ea16e26","6622cdeefe4b761d33560530","fixation cross","null","","","","","","","","","","","",""
"","1119","html-keyboard-response","103","224605","0.0-11.0-1.4","CPXsnFXBI5","655ce6f7af924eb65bdefd92","6617fad957f7c6a12ea16e26","6622cdeefe4b761d33560530","image grid","p","","","","","Phylogenetic_Distractor_Threat_target","2500","ongrid","q","7","Phylogenetic","false","experimental"
"","null","html-keyboard-response","104","224764","0.0-11.0-2.4","CPXsnFXBI5","655ce6f7af924eb65bdefd92","6617fad957f7c6a12ea16e26","6622cdeefe4b761d33560530","
    <div id=""grid-container"">
        <!-- Grid items will be dynamically added here -->
    </div>    ","null","","","","","","","","","","","",""
"","null","html-keyboard-response","105","225468","0.0-11.0-0.5","CPXsnFXBI5","655ce6f7af924eb65bdefd92","6617fad957f7c6a12ea16e26","6622cdeefe4b761d33560530","fixation cross","null","","","","","","","","","","","",""
"","1184","html-keyboard-response","106","226652","0.0-11.0-1.5","CPXsnFXBI5","655ce6f7af924eb65bdefd92","6617fad957f7c6a12ea16e26","6622cdeefe4b761d33560530","image grid","p","","","","","Phylogenetic_Distractor_Threat_target","2500","ongrid","q","3","Phylogenetic","false","experimental"
"","null","html-keyboard-response","107","226811","0.0-11.0-2.5","CPXsnFXBI5","655ce6f7af924eb65bdefd92","6617fad957f7c6a12ea16e26","6622cdeefe4b761d33560530","
    <div id=""grid-container"">
        <!-- Grid items will be dynamically added here -->
    </div>    ","null","","","","","","","","","","","",""
"","null","html-keyboard-response","108","227519","0.0-11.0-0.6","CPXsnFXBI5","655ce6f7af924eb65bdefd92","6617fad957f7c6a12ea16e26","6622cdeefe4b761d33560530","fixation cross","null","","","","","","","","","","","",""
"","1582","html-keyboard-response","109","229100","0.0-11.0-1.6","CPXsnFXBI5","655ce6f7af924eb65bdefd92","6617fad957f7c6a12ea16e26","6622cdeefe4b761d33560530","image grid","p","","","","","Phylogenetic_Distractor_Threat_target","2500","ongrid","q","1","Phylogenetic","false","experimental"
"","null","html-keyboard-response","110","229266","0.0-11.0-2.6","CPXsnFXBI5","655ce6f7af924eb65bdefd92","6617fad957f7c6a12ea16e26","6622cdeefe4b761d33560530","
    <div id=""grid-container"">
        <!-- Grid items will be dynamically added here -->
    </div>    ","null","","","","","","","","","","","",""
"","null","html-keyboard-response","111","229971","0.0-11.0-0.7","CPXsnFXBI5","655ce6f7af924eb65bdefd92","6617fad957f7c6a12ea16e26","6622cdeefe4b761d33560530","fixation cross","null","","","","","","","","","","","",""
"","1018","html-keyboard-response","112","230989","0.0-11.0-1.7","CPXsnFXBI5","655ce6f7af924eb65bdefd92","6617fad957f7c6a12ea16e26","6622cdeefe4b761d33560530","image grid","p","","","","","Phylogenetic_Distractor_Threat_target","2500","ongrid","q","9","Phylogenetic","false","experimental"
"","null","html-keyboard-response","113","231148","0.0-11.0-2.7","CPXsnFXBI5","655ce6f7af924eb65bdefd92","6617fad957f7c6a12ea16e26","6622cdeefe4b761d33560530","
    <div id=""grid-container"">
        <!-- Grid items will be dynamically added here -->
    </div>    ","null","","","","","","","","","","","",""
"","null","html-keyboard-response","114","231854","0.0-11.0-0.8","CPXsnFXBI5","655ce6f7af924eb65bdefd92","6617fad957f7c6a12ea16e26","6622cdeefe4b761d33560530","fixation cross","null","","","","","","","","","","","",""
"","1454","html-keyboard-response","115","233309","0.0-11.0-1.8","CPXsnFXBI5","655ce6f7af924eb65bdefd92","6617fad957f7c6a12ea16e26","6622cdeefe4b761d33560530","image grid","p","","","","","Phylogenetic_Distractor_Nonthreat_target","2500","ongrid","p","4","Phylogenetic","true","experimental"
"","null","html-keyboard-response","116","233461","0.0-11.0-2.8","CPXsnFXBI5","655ce6f7af924eb65bdefd92","6617fad957f7c6a12ea16e26","6622cdeefe4b761d33560530","
    <div id=""grid-container"">
        <!-- Grid items will be dynamically added here -->
    </div>    ","null","","","","","","","","","","","",""
"","null","html-keyboard-response","117","234173","0.0-11.0-0.9","CPXsnFXBI5","655ce6f7af924eb65bdefd92","6617fad957f7c6a12ea16e26","6622cdeefe4b761d33560530","fixation cross","null","","","","","","","","","","","",""
"","1216","html-keyboard-response","118","235389","0.0-11.0-1.9","CPXsnFXBI5","655ce6f7af924eb65bdefd92","6617fad957f7c6a12ea16e26","6622cdeefe4b761d33560530","image grid","p","","","","","Phylogenetic_Distractor_Threat_target","2500","ongrid","q","8","Phylogenetic","false","experimental"
"","null","html-keyboard-response","119","235548","0.0-11.0-2.9","CPXsnFXBI5","655ce6f7af924eb65bdefd92","6617fad957f7c6a12ea16e26","6622cdeefe4b761d33560530","
    <div id=""grid-container"">
        <!-- Grid items will be dynamically added here -->
    </div>    ","null","","","","","","","","","","","",""
"","null","html-keyboard-response","120","236268","0.0-11.0-0.10","CPXsnFXBI5","655ce6f7af924eb65bdefd92","6617fad957f7c6a12ea16e26","6622cdeefe4b761d33560530","fixation cross","null","","","","","","","","","","","",""
"","1730","html-keyboard-response","121","237998","0.0-11.0-1.10","CPXsnFXBI5","655ce6f7af924eb65bdefd92","6617fad957f7c6a12ea16e26","6622cdeefe4b761d33560530","image grid","q","","","","","Phylogenetic_Distractor_Nonthreat_target","2500","ongrid","p","7","Phylogenetic","false","experimental"
"","null","html-keyboard-response","122","238155","0.0-11.0-2.10","CPXsnFXBI5","655ce6f7af924eb65bdefd92","6617fad957f7c6a12ea16e26","6622cdeefe4b761d33560530","
    <div id=""grid-container"">
        <!-- Grid items will be dynamically added here -->
    </div>    ","null","","","","","","","","","","","",""
"","null","html-keyboard-response","123","238860","0.0-11.0-0.11","CPXsnFXBI5","655ce6f7af924eb65bdefd92","6617fad957f7c6a12ea16e26","6622cdeefe4b761d33560530","fixation cross","null","","","","","","","","","","","",""
"","2418","html-keyboard-response","124","241278","0.0-11.0-1.11","CPXsnFXBI5","655ce6f7af924eb65bdefd92","6617fad957f7c6a12ea16e26","6622cdeefe4b761d33560530","image grid"," ","","","","","Phylogenetic_Distractor_notarget","2500","ongrid"," ","1","Phylogenetic","true","experimental"
"","null","html-keyboard-response","125","241439","0.0-11.0-2.11","CPXsnFXBI5","655ce6f7af924eb65bdefd92","6617fad957f7c6a12ea16e26","6622cdeefe4b761d33560530","
    <div id=""grid-container"">
        <!-- Grid items will be dynamically added here -->
    </div>    ","null","","","","","","","","","","","",""
"","null","html-keyboard-response","126","242142","0.0-11.0-0.12","CPXsnFXBI5","655ce6f7af924eb65bdefd92","6617fad957f7c6a12ea16e26","6622cdeefe4b761d33560530","fixation cross","null","","","","","","","","","","","",""
"","1185","html-keyboard-response","127","243327","0.0-11.0-1.12","CPXsnFXBI5","655ce6f7af924eb65bdefd92","6617fad957f7c6a12ea16e26","6622cdeefe4b761d33560530","image grid","q","","","","","Phylogenetic_Distractor_Nonthreat_target","2500","ongrid","p","6","Phylogenetic","false","experimental"
"","null","html-keyboard-response","128","243481","0.0-11.0-2.12","CPXsnFXBI5","655ce6f7af924eb65bdefd92","6617fad957f7c6a12ea16e26","6622cdeefe4b761d33560530","
    <div id=""grid-container"">
        <!-- Grid items will be dynamically added here -->
    </div>    ","null","","","","","","","","","","","",""
"","null","html-keyboard-response","129","244192","0.0-11.0-0.13","CPXsnFXBI5","655ce6f7af924eb65bdefd92","6617fad957f7c6a12ea16e26","6622cdeefe4b761d33560530","fixation cross","null","","","","","","","","","","","",""
"","1470","html-keyboard-response","130","245663","0.0-11.0-1.13","CPXsnFXBI5","655ce6f7af924eb65bdefd92","6617fad957f7c6a12ea16e26","6622cdeefe4b761d33560530","image grid"," ","","","","","Phylogenetic_Distractor_notarget","2500","ongrid"," ","3","Phylogenetic","true","experimental"
"","null","html-keyboard-response","131","245820","0.0-11.0-2.13","CPXsnFXBI5","655ce6f7af924eb65bdefd92","6617fad957f7c6a12ea16e26","6622cdeefe4b761d33560530","
    <div id=""grid-container"">
        <!-- Grid items will be dynamically added here -->
    </div>    ","null","","","","","","","","","","","",""
"","null","html-keyboard-response","132","246536","0.0-11.0-0.14","CPXsnFXBI5","655ce6f7af924eb65bdefd92","6617fad957f7c6a12ea16e26","6622cdeefe4b761d33560530","fixation cross","null","","","","","","","","","","","",""
"","1591","html-keyboard-response","133","248127","0.0-11.0-1.14","CPXsnFXBI5","655ce6f7af924eb65bdefd92","6617fad957f7c6a12ea16e26","6622cdeefe4b761d33560530","image grid","q","","","","","Phylogenetic_Distractor_Threat_target","2500","ongrid","q","6","Phylogenetic","true","experimental"
"","null","html-keyboard-response","134","248281","0.0-11.0-2.14","CPXsnFXBI5","655ce6f7af924eb65bdefd92","6617fad957f7c6a12ea16e26","6622cdeefe4b761d33560530","
    <div id=""grid-container"">
        <!-- Grid items will be dynamically added here -->
    </div>    ","null","","","","","","","","","","","",""
"","null","html-keyboard-response","135","248988","0.0-11.0-0.15","CPXsnFXBI5","655ce6f7af924eb65bdefd92","6617fad957f7c6a12ea16e26","6622cdeefe4b761d33560530","fixation cross","null","","","","","","","","","","","",""
"","2051","html-keyboard-response","136","251040","0.0-11.0-1.15","CPXsnFXBI5","655ce6f7af924eb65bdefd92","6617fad957f7c6a12ea16e26","6622cdeefe4b761d33560530","image grid","p","","","","","Phylogenetic_Distractor_Nonthreat_target","2500","ongrid","p","9","Phylogenetic","true","experimental"
"","null","html-keyboard-response","137","251205","0.0-11.0-2.15","CPXsnFXBI5","655ce6f7af924eb65bdefd92","6617fad957f7c6a12ea16e26","6622cdeefe4b761d33560530","
    <div id=""grid-container"">
        <!-- Grid items will be dynamically added here -->
    </div>    ","null","","","","","","","","","","","",""
"","null","html-keyboard-response","138","251924","0.0-11.0-0.16","CPXsnFXBI5","655ce6f7af924eb65bdefd92","6617fad957f7c6a12ea16e26","6622cdeefe4b761d33560530","fixation cross","null","","","","","","","","","","","",""
"","1772","html-keyboard-response","139","253696","0.0-11.0-1.16","CPXsnFXBI5","655ce6f7af924eb65bdefd92","6617fad957f7c6a12ea16e26","6622cdeefe4b761d33560530","image grid","q","","","","","Phylogenetic_Distractor_Nonthreat_target","2500","ongrid","p","3","Phylogenetic","false","experimental"
"","null","html-keyboard-response","140","253848","0.0-11.0-2.16","CPXsnFXBI5","655ce6f7af924eb65bdefd92","6617fad957f7c6a12ea16e26","6622cdeefe4b761d33560530","
    <div id=""grid-container"">
        <!-- Grid items will be dynamically added here -->
    </div>    ","null","","","","","","","","","","","",""
"","null","html-keyboard-response","141","254559","0.0-11.0-0.17","CPXsnFXBI5","655ce6f7af924eb65bdefd92","6617fad957f7c6a12ea16e26","6622cdeefe4b761d33560530","fixation cross","null","","","","","","","","","","","",""
"","1233","html-keyboard-response","142","255792","0.0-11.0-1.17","CPXsnFXBI5","655ce6f7af924eb65bdefd92","6617fad957f7c6a12ea16e26","6622cdeefe4b761d33560530","image grid","q","","","","","Phylogenetic_Distractor_Threat_target","2500","ongrid","q","6","Phylogenetic","true","experimental"
"","null","html-keyboard-response","143","255956","0.0-11.0-2.17","CPXsnFXBI5","655ce6f7af924eb65bdefd92","6617fad957f7c6a12ea16e26","6622cdeefe4b761d33560530","
    <div id=""grid-container"">
        <!-- Grid items will be dynamically added here -->
    </div>    ","null","","","","","","","","","","","",""
"","null","html-keyboard-response","144","256672","0.0-11.0-0.18","CPXsnFXBI5","655ce6f7af924eb65bdefd92","6617fad957f7c6a12ea16e26","6622cdeefe4b761d33560530","fixation cross","null","","","","","","","","","","","",""
"","784","html-keyboard-response","145","257456","0.0-11.0-1.18","CPXsnFXBI5","655ce6f7af924eb65bdefd92","6617fad957f7c6a12ea16e26","6622cdeefe4b761d33560530","image grid","q","","","","","Phylogenetic_Distractor_Threat_target","2500","ongrid","q","2","Phylogenetic","true","experimental"
"","null","html-keyboard-response","146","257619","0.0-11.0-2.18","CPXsnFXBI5","655ce6f7af924eb65bdefd92","6617fad957f7c6a12ea16e26","6622cdeefe4b761d33560530","
    <div id=""grid-container"">
        <!-- Grid items will be dynamically added here -->
    </div>    ","null","","","","","","","","","","","",""
"","null","html-keyboard-response","147","258342","0.0-11.0-0.19","CPXsnFXBI5","655ce6f7af924eb65bdefd92","6617fad957f7c6a12ea16e26","6622cdeefe4b761d33560530","fixation cross","null","","","","","","","","","","","",""
"","923","html-keyboard-response","148","259265","0.0-11.0-1.19","CPXsnFXBI5","655ce6f7af924eb65bdefd92","6617fad957f7c6a12ea16e26","6622cdeefe4b761d33560530","image grid","q","","","","","Phylogenetic_Distractor_Threat_target","2500","ongrid","q","4","Phylogenetic","true","experimental"
"","null","html-keyboard-response","149","259423","0.0-11.0-2.19","CPXsnFXBI5","655ce6f7af924eb65bdefd92","6617fad957f7c6a12ea16e26","6622cdeefe4b761d33560530","
    <div id=""grid-container"">
        <!-- Grid items will be dynamically added here -->
    </div>    ","null","","","","","","","","","","","",""
"","null","html-keyboard-response","150","260127","0.0-11.0-0.20","CPXsnFXBI5","655ce6f7af924eb65bdefd92","6617fad957f7c6a12ea16e26","6622cdeefe4b761d33560530","fixation cross","null","","","","","","","","","","","",""
"","977","html-keyboard-response","151","261105","0.0-11.0-1.20","CPXsnFXBI5","655ce6f7af924eb65bdefd92","6617fad957f7c6a12ea16e26","6622cdeefe4b761d33560530","image grid","q","","","","","Phylogenetic_Distractor_Threat_target","2500","ongrid","q","3","Phylogenetic","true","experimental"
"","null","html-keyboard-response","152","261272","0.0-11.0-2.20","CPXsnFXBI5","655ce6f7af924eb65bdefd92","6617fad957f7c6a12ea16e26","6622cdeefe4b761d33560530","
    <div id=""grid-container"">
        <!-- Grid items will be dynamically added here -->
    </div>    ","null","","","","","","","","","","","",""
"","null","html-keyboard-response","153","261974","0.0-11.0-0.21","CPXsnFXBI5","655ce6f7af924eb65bdefd92","6617fad957f7c6a12ea16e26","6622cdeefe4b761d33560530","fixation cross","null","","","","","","","","","","","",""
"","1387","html-keyboard-response","154","263361","0.0-11.0-1.21","CPXsnFXBI5","655ce6f7af924eb65bdefd92","6617fad957f7c6a12ea16e26","6622cdeefe4b761d33560530","image grid","q","","","","","Phylogenetic_Distractor_Nonthreat_target","2500","ongrid","p","2","Phylogenetic","false","experimental"
"","null","html-keyboard-response","155","263520","0.0-11.0-2.21","CPXsnFXBI5","655ce6f7af924eb65bdefd92","6617fad957f7c6a12ea16e26","6622cdeefe4b761d33560530","
    <div id=""grid-container"">
        <!-- Grid items will be dynamically added here -->
    </div>    ","null","","","","","","","","","","","",""
"","null","html-keyboard-response","156","264232","0.0-11.0-0.22","CPXsnFXBI5","655ce6f7af924eb65bdefd92","6617fad957f7c6a12ea16e26","6622cdeefe4b761d33560530","fixation cross","null","","","","","","","","","","","",""
"","1801","html-keyboard-response","157","266034","0.0-11.0-1.22","CPXsnFXBI5","655ce6f7af924eb65bdefd92","6617fad957f7c6a12ea16e26","6622cdeefe4b761d33560530","image grid","q","","","","","Phylogenetic_Distractor_Nonthreat_target","2500","ongrid","p","3","Phylogenetic","false","experimental"
"","null","html-keyboard-response","158","266203","0.0-11.0-2.22","CPXsnFXBI5","655ce6f7af924eb65bdefd92","6617fad957f7c6a12ea16e26","6622cdeefe4b761d33560530","
    <div id=""grid-container"">
        <!-- Grid items will be dynamically added here -->
    </div>    ","null","","","","","","","","","","","",""
"","null","html-keyboard-response","159","266918","0.0-11.0-0.23","CPXsnFXBI5","655ce6f7af924eb65bdefd92","6617fad957f7c6a12ea16e26","6622cdeefe4b761d33560530","fixation cross","null","","","","","","","","","","","",""
"","1019","html-keyboard-response","160","267938","0.0-11.0-1.23","CPXsnFXBI5","655ce6f7af924eb65bdefd92","6617fad957f7c6a12ea16e26","6622cdeefe4b761d33560530","image grid","q","","","","","Phylogenetic_Distractor_Threat_target","2500","ongrid","q","1","Phylogenetic","true","experimental"
"","null","html-keyboard-response","161","268093","0.0-11.0-2.23","CPXsnFXBI5","655ce6f7af924eb65bdefd92","6617fad957f7c6a12ea16e26","6622cdeefe4b761d33560530","
    <div id=""grid-container"">
        <!-- Grid items will be dynamically added here -->
    </div>    ","null","","","","","","","","","","","",""
"","null","html-keyboard-response","162","268798","0.0-11.0-0.24","CPXsnFXBI5","655ce6f7af924eb65bdefd92","6617fad957f7c6a12ea16e26","6622cdeefe4b761d33560530","fixation cross","null","","","","","","","","","","","",""
"","1476","html-keyboard-response","163","270274","0.0-11.0-1.24","CPXsnFXBI5","655ce6f7af924eb65bdefd92","6617fad957f7c6a12ea16e26","6622cdeefe4b761d33560530","image grid"," ","","","","","Phylogenetic_Distractor_notarget","2500","ongrid"," ","9","Phylogenetic","true","experimental"
"","null","html-keyboard-response","164","270441","0.0-11.0-2.24","CPXsnFXBI5","655ce6f7af924eb65bdefd92","6617fad957f7c6a12ea16e26","6622cdeefe4b761d33560530","
    <div id=""grid-container"">
        <!-- Grid items will be dynamically added here -->
    </div>    ","null","","","","","","","","","","","",""
"","null","html-keyboard-response","165","271152","0.0-11.0-0.25","CPXsnFXBI5","655ce6f7af924eb65bdefd92","6617fad957f7c6a12ea16e26","6622cdeefe4b761d33560530","fixation cross","null","","","","","","","","","","","",""
"","994","html-keyboard-response","166","272147","0.0-11.0-1.25","CPXsnFXBI5","655ce6f7af924eb65bdefd92","6617fad957f7c6a12ea16e26","6622cdeefe4b761d33560530","image grid","q","","","","","Phylogenetic_Distractor_Threat_target","2500","ongrid","q","3","Phylogenetic","true","experimental"
"","null","html-keyboard-response","167","272302","0.0-11.0-2.25","CPXsnFXBI5","655ce6f7af924eb65bdefd92","6617fad957f7c6a12ea16e26","6622cdeefe4b761d33560530","
    <div id=""grid-container"">
        <!-- Grid items will be dynamically added here -->
    </div>    ","null","","","","","","","","","","","",""
"","null","html-keyboard-response","168","273004","0.0-11.0-0.26","CPXsnFXBI5","655ce6f7af924eb65bdefd92","6617fad957f7c6a12ea16e26","6622cdeefe4b761d33560530","fixation cross","null","","","","","","","","","","","",""
"","2039","html-keyboard-response","169","275043","0.0-11.0-1.26","CPXsnFXBI5","655ce6f7af924eb65bdefd92","6617fad957f7c6a12ea16e26","6622cdeefe4b761d33560530","image grid"," ","","","","","Phylogenetic_Distractor_Nonthreat_target","2500","ongrid","p","7","Phylogenetic","false","experimental"
"","null","html-keyboard-response","170","275208","0.0-11.0-2.26","CPXsnFXBI5","655ce6f7af924eb65bdefd92","6617fad957f7c6a12ea16e26","6622cdeefe4b761d33560530","
    <div id=""grid-container"">
        <!-- Grid items will be dynamically added here -->
    </div>    ","null","","","","","","","","","","","",""
"","null","html-keyboard-response","171","275927","0.0-11.0-0.27","CPXsnFXBI5","655ce6f7af924eb65bdefd92","6617fad957f7c6a12ea16e26","6622cdeefe4b761d33560530","fixation cross","null","","","","","","","","","","","",""
"","908","html-keyboard-response","172","276835","0.0-11.0-1.27","CPXsnFXBI5","655ce6f7af924eb65bdefd92","6617fad957f7c6a12ea16e26","6622cdeefe4b761d33560530","image grid","q","","","","","Phylogenetic_Distractor_Nonthreat_target","2500","ongrid","p","2","Phylogenetic","false","experimental"
"","null","html-keyboard-response","173","276988","0.0-11.0-2.27","CPXsnFXBI5","655ce6f7af924eb65bdefd92","6617fad957f7c6a12ea16e26","6622cdeefe4b761d33560530","
    <div id=""grid-container"">
        <!-- Grid items will be dynamically added here -->
    </div>    ","null","","","","","","","","","","","",""
"","null","html-keyboard-response","174","277696","0.0-11.0-0.28","CPXsnFXBI5","655ce6f7af924eb65bdefd92","6617fad957f7c6a12ea16e26","6622cdeefe4b761d33560530","fixation cross","null","","","","","","","","","","","",""
"","2004","html-keyboard-response","175","279700","0.0-11.0-1.28","CPXsnFXBI5","655ce6f7af924eb65bdefd92","6617fad957f7c6a12ea16e26","6622cdeefe4b761d33560530","image grid","q","","","","","Phylogenetic_Distractor_Nonthreat_target","2500","ongrid","p","6","Phylogenetic","false","experimental"
"","null","html-keyboard-response","176","279864","0.0-11.0-2.28","CPXsnFXBI5","655ce6f7af924eb65bdefd92","6617fad957f7c6a12ea16e26","6622cdeefe4b761d33560530","
    <div id=""grid-container"">
        <!-- Grid items will be dynamically added here -->
    </div>    ","null","","","","","","","","","","","",""
"","null","html-keyboard-response","177","280567","0.0-11.0-0.29","CPXsnFXBI5","655ce6f7af924eb65bdefd92","6617fad957f7c6a12ea16e26","6622cdeefe4b761d33560530","fixation cross","null","","","","","","","","","","","",""
"","1933","html-keyboard-response","178","282500","0.0-11.0-1.29","CPXsnFXBI5","655ce6f7af924eb65bdefd92","6617fad957f7c6a12ea16e26","6622cdeefe4b761d33560530","image grid"," ","","","","","Phylogenetic_Distractor_notarget","2500","ongrid"," ","3","Phylogenetic","true","experimental"
"","null","html-keyboard-response","179","282656","0.0-11.0-2.29","CPXsnFXBI5","655ce6f7af924eb65bdefd92","6617fad957f7c6a12ea16e26","6622cdeefe4b761d33560530","
    <div id=""grid-container"">
        <!-- Grid items will be dynamically added here -->
    </div>    ","null","","","","","","","","","","","",""
"","null","html-keyboard-response","180","283362","0.0-11.0-0.30","CPXsnFXBI5","655ce6f7af924eb65bdefd92","6617fad957f7c6a12ea16e26","6622cdeefe4b761d33560530","fixation cross","null","","","","","","","","","","","",""
"","1490","html-keyboard-response","181","284852","0.0-11.0-1.30","CPXsnFXBI5","655ce6f7af924eb65bdefd92","6617fad957f7c6a12ea16e26","6622cdeefe4b761d33560530","image grid","q","","","","","Phylogenetic_Distractor_Threat_target","2500","ongrid","q","9","Phylogenetic","true","experimental"
"","null","html-keyboard-response","182","285011","0.0-11.0-2.30","CPXsnFXBI5","655ce6f7af924eb65bdefd92","6617fad957f7c6a12ea16e26","6622cdeefe4b761d33560530","
    <div id=""grid-container"">
        <!-- Grid items will be dynamically added here -->
    </div>    ","null","","","","","","","","","","","",""
"","null","html-keyboard-response","183","285727","0.0-11.0-0.31","CPXsnFXBI5","655ce6f7af924eb65bdefd92","6617fad957f7c6a12ea16e26","6622cdeefe4b761d33560530","fixation cross","null","","","","","","","","","","","",""
"","1413","html-keyboard-response","184","287141","0.0-11.0-1.31","CPXsnFXBI5","655ce6f7af924eb65bdefd92","6617fad957f7c6a12ea16e26","6622cdeefe4b761d33560530","image grid","q","","","","","Phylogenetic_Distractor_Nonthreat_target","2500","ongrid","p","4","Phylogenetic","false","experimental"
"","null","html-keyboard-response","185","287305","0.0-11.0-2.31","CPXsnFXBI5","655ce6f7af924eb65bdefd92","6617fad957f7c6a12ea16e26","6622cdeefe4b761d33560530","
    <div id=""grid-container"">
        <!-- Grid items will be dynamically added here -->
    </div>    ","null","","","","","","","","","","","",""
"","null","html-keyboard-response","186","288019","0.0-11.0-0.32","CPXsnFXBI5","655ce6f7af924eb65bdefd92","6617fad957f7c6a12ea16e26","6622cdeefe4b761d33560530","fixation cross","null","","","","","","","","","","","",""
"","738","html-keyboard-response","187","288757","0.0-11.0-1.32","CPXsnFXBI5","655ce6f7af924eb65bdefd92","6617fad957f7c6a12ea16e26","6622cdeefe4b761d33560530","image grid","q","","","","","Phylogenetic_Distractor_Threat_target","2500","ongrid","q","4","Phylogenetic","true","experimental"
"","null","html-keyboard-response","188","288911","0.0-11.0-2.32","CPXsnFXBI5","655ce6f7af924eb65bdefd92","6617fad957f7c6a12ea16e26","6622cdeefe4b761d33560530","
    <div id=""grid-container"">
        <!-- Grid items will be dynamically added here -->
    </div>    ","null","","","","","","","","","","","",""
"","null","html-keyboard-response","189","289613","0.0-11.0-0.33","CPXsnFXBI5","655ce6f7af924eb65bdefd92","6617fad957f7c6a12ea16e26","6622cdeefe4b761d33560530","fixation cross","null","","","","","","","","","","","",""
"","1528","html-keyboard-response","190","291141","0.0-11.0-1.33","CPXsnFXBI5","655ce6f7af924eb65bdefd92","6617fad957f7c6a12ea16e26","6622cdeefe4b761d33560530","image grid","q","","","","","Phylogenetic_Distractor_Nonthreat_target","2500","ongrid","p","9","Phylogenetic","false","experimental"
"","null","html-keyboard-response","191","291297","0.0-11.0-2.33","CPXsnFXBI5","655ce6f7af924eb65bdefd92","6617fad957f7c6a12ea16e26","6622cdeefe4b761d33560530","
    <div id=""grid-container"">
        <!-- Grid items will be dynamically added here -->
    </div>    ","null","","","","","","","","","","","",""
"","null","html-keyboard-response","192","292003","0.0-11.0-0.34","CPXsnFXBI5","655ce6f7af924eb65bdefd92","6617fad957f7c6a12ea16e26","6622cdeefe4b761d33560530","fixation cross","null","","","","","","","","","","","",""
"","755","html-keyboard-response","193","292757","0.0-11.0-1.34","CPXsnFXBI5","655ce6f7af924eb65bdefd92","6617fad957f7c6a12ea16e26","6622cdeefe4b761d33560530","image grid","q","","","","","Phylogenetic_Distractor_Nonthreat_target","2500","ongrid","p","8","Phylogenetic","false","experimental"
"","null","html-keyboard-response","194","292923","0.0-11.0-2.34","CPXsnFXBI5","655ce6f7af924eb65bdefd92","6617fad957f7c6a12ea16e26","6622cdeefe4b761d33560530","
    <div id=""grid-container"">
        <!-- Grid items will be dynamically added here -->
    </div>    ","null","","","","","","","","","","","",""
"","null","html-keyboard-response","195","293634","0.0-11.0-0.35","CPXsnFXBI5","655ce6f7af924eb65bdefd92","6617fad957f7c6a12ea16e26","6622cdeefe4b761d33560530","fixation cross","null","","","","","","","","","","","",""
"","1412","html-keyboard-response","196","295046","0.0-11.0-1.35","CPXsnFXBI5","655ce6f7af924eb65bdefd92","6617fad957f7c6a12ea16e26","6622cdeefe4b761d33560530","image grid","q","","","","","Phylogenetic_Distractor_Nonthreat_target","2500","ongrid","p","3","Phylogenetic","false","experimental"
"","null","html-keyboard-response","197","295210","0.0-11.0-2.35","CPXsnFXBI5","655ce6f7af924eb65bdefd92","6617fad957f7c6a12ea16e26","6622cdeefe4b761d33560530","
    <div id=""grid-container"">
        <!-- Grid items will be dynamically added here -->
    </div>    ","null","","","","","","","","","","","",""
"","null","html-keyboard-response","198","295914","0.0-11.0-0.36","CPXsnFXBI5","655ce6f7af924eb65bdefd92","6617fad957f7c6a12ea16e26","6622cdeefe4b761d33560530","fixation cross","null","","","","","","","","","","","",""
"","1100","html-keyboard-response","199","297015","0.0-11.0-1.36","CPXsnFXBI5","655ce6f7af924eb65bdefd92","6617fad957f7c6a12ea16e26","6622cdeefe4b761d33560530","image grid","q","","","","","Phylogenetic_Distractor_Threat_target","2500","ongrid","q","6","Phylogenetic","true","experimental"
"","null","html-keyboard-response","200","297167","0.0-11.0-2.36","CPXsnFXBI5","655ce6f7af924eb65bdefd92","6617fad957f7c6a12ea16e26","6622cdeefe4b761d33560530","
    <div id=""grid-container"">
        <!-- Grid items will be dynamically added here -->
    </div>    ","null","","","","","","","","","","","",""
"","null","html-keyboard-response","201","297878","0.0-11.0-0.37","CPXsnFXBI5","655ce6f7af924eb65bdefd92","6617fad957f7c6a12ea16e26","6622cdeefe4b761d33560530","fixation cross","null","","","","","","","","","","","",""
"","1025","html-keyboard-response","202","298903","0.0-11.0-1.37","CPXsnFXBI5","655ce6f7af924eb65bdefd92","6617fad957f7c6a12ea16e26","6622cdeefe4b761d33560530","image grid","q","","","","","Phylogenetic_Distractor_Threat_target","2500","ongrid","q","4","Phylogenetic","true","experimental"
"","null","html-keyboard-response","203","299054","0.0-11.0-2.37","CPXsnFXBI5","655ce6f7af924eb65bdefd92","6617fad957f7c6a12ea16e26","6622cdeefe4b761d33560530","
    <div id=""grid-container"">
        <!-- Grid items will be dynamically added here -->
    </div>    ","null","","","","","","","","","","","",""
"","null","html-keyboard-response","204","299763","0.0-11.0-0.38","CPXsnFXBI5","655ce6f7af924eb65bdefd92","6617fad957f7c6a12ea16e26","6622cdeefe4b761d33560530","fixation cross","null","","","","","","","","","","","",""
"","980","html-keyboard-response","205","300743","0.0-11.0-1.38","CPXsnFXBI5","655ce6f7af924eb65bdefd92","6617fad957f7c6a12ea16e26","6622cdeefe4b761d33560530","image grid","q","","","","","Phylogenetic_Distractor_Nonthreat_target","2500","ongrid","p","1","Phylogenetic","false","experimental"
"","null","html-keyboard-response","206","300910","0.0-11.0-2.38","CPXsnFXBI5","655ce6f7af924eb65bdefd92","6617fad957f7c6a12ea16e26","6622cdeefe4b761d33560530","
    <div id=""grid-container"">
        <!-- Grid items will be dynamically added here -->
    </div>    ","null","","","","","","","","","","","",""
"","null","html-keyboard-response","207","301624","0.0-11.0-0.39","CPXsnFXBI5","655ce6f7af924eb65bdefd92","6617fad957f7c6a12ea16e26","6622cdeefe4b761d33560530","fixation cross","null","","","","","","","","","","","",""
"","783","html-keyboard-response","208","302407","0.0-11.0-1.39","CPXsnFXBI5","655ce6f7af924eb65bdefd92","6617fad957f7c6a12ea16e26","6622cdeefe4b761d33560530","image grid","q","","","","","Phylogenetic_Distractor_Nonthreat_target","2500","ongrid","p","5","Phylogenetic","false","experimental"
"","null","html-keyboard-response","209","302563","0.0-11.0-2.39","CPXsnFXBI5","655ce6f7af924eb65bdefd92","6617fad957f7c6a12ea16e26","6622cdeefe4b761d33560530","
    <div id=""grid-container"">
        <!-- Grid items will be dynamically added here -->
    </div>    ","null","","","","","","","","","","","",""
"","6733","html-keyboard-response","210","309512","0.0-12.0","CPXsnFXBI5","655ce6f7af924eb65bdefd92","6617fad957f7c6a12ea16e26","6622cdeefe4b761d33560530","break screen","j","","","","","","","","","","","",""
"","null","html-keyboard-response","211","312040","0.0-13.0-0.0","CPXsnFXBI5","655ce6f7af924eb65bdefd92","6617fad957f7c6a12ea16e26","6622cdeefe4b761d33560530","fixation cross","null","","","","","","","","","","","",""
"","null","html-keyboard-response","212","314544","0.0-13.0-1.0","CPXsnFXBI5","655ce6f7af924eb65bdefd92","6617fad957f7c6a12ea16e26","6622cdeefe4b761d33560530","
        <div id=""grid-container"">
        <!-- Grid items will be dynamically added here -->
    </div>    ","null","","","","","","","","","","","",""
"","7501","html-keyboard-response","213","319545","0.0-13.0-2.0","CPXsnFXBI5","655ce6f7af924eb65bdefd92","6617fad957f7c6a12ea16e26","6622cdeefe4b761d33560530","mask grid","p","","","","","Ontogenetic_Distractor_Nonthreat_target","2500","onmask","p","1","Ontogenetic","true","experimental"
"","null","html-keyboard-response","214","320250","0.0-13.0-0.1","CPXsnFXBI5","655ce6f7af924eb65bdefd92","6617fad957f7c6a12ea16e26","6622cdeefe4b761d33560530","fixation cross","null","","","","","","","","","","","",""
"","2031","html-keyboard-response","215","322282","0.0-13.0-1.1","CPXsnFXBI5","655ce6f7af924eb65bdefd92","6617fad957f7c6a12ea16e26","6622cdeefe4b761d33560530","image grid","p","","","","","Ontogenetic_Distractor_Nonthreat_target","2500","ongrid","p","2","Ontogenetic","true","experimental"
"","null","html-keyboard-response","216","322435","0.0-13.0-2.1","CPXsnFXBI5","655ce6f7af924eb65bdefd92","6617fad957f7c6a12ea16e26","6622cdeefe4b761d33560530","
    <div id=""grid-container"">
        <!-- Grid items will be dynamically added here -->
    </div>    ","null","","","","","","","","","","","",""
"","null","html-keyboard-response","217","323142","0.0-13.0-0.2","CPXsnFXBI5","655ce6f7af924eb65bdefd92","6617fad957f7c6a12ea16e26","6622cdeefe4b761d33560530","fixation cross","null","","","","","","","","","","","",""
"","1492","html-keyboard-response","218","324634","0.0-13.0-1.2","CPXsnFXBI5","655ce6f7af924eb65bdefd92","6617fad957f7c6a12ea16e26","6622cdeefe4b761d33560530","image grid","p","","","","","Ontogenetic_Distractor_Nonthreat_target","2500","ongrid","p","1","Ontogenetic","true","experimental"
"","null","html-keyboard-response","219","324786","0.0-13.0-2.2","CPXsnFXBI5","655ce6f7af924eb65bdefd92","6617fad957f7c6a12ea16e26","6622cdeefe4b761d33560530","
    <div id=""grid-container"">
        <!-- Grid items will be dynamically added here -->
    </div>    ","null","","","","","","","","","","","",""
"","null","html-keyboard-response","220","325496","0.0-13.0-0.3","CPXsnFXBI5","655ce6f7af924eb65bdefd92","6617fad957f7c6a12ea16e26","6622cdeefe4b761d33560530","fixation cross","null","","","","","","","","","","","",""
"","898","html-keyboard-response","221","326394","0.0-13.0-1.3","CPXsnFXBI5","655ce6f7af924eb65bdefd92","6617fad957f7c6a12ea16e26","6622cdeefe4b761d33560530","image grid","p","","","","","Ontogenetic_Distractor_Nonthreat_target","2500","ongrid","p","6","Ontogenetic","true","experimental"
"","null","html-keyboard-response","222","326559","0.0-13.0-2.3","CPXsnFXBI5","655ce6f7af924eb65bdefd92","6617fad957f7c6a12ea16e26","6622cdeefe4b761d33560530","
    <div id=""grid-container"">
        <!-- Grid items will be dynamically added here -->
    </div>    ","null","","","","","","","","","","","",""
"","null","html-keyboard-response","223","327275","0.0-13.0-0.4","CPXsnFXBI5","655ce6f7af924eb65bdefd92","6617fad957f7c6a12ea16e26","6622cdeefe4b761d33560530","fixation cross","null","","","","","","","","","","","",""
"","1343","html-keyboard-response","224","328619","0.0-13.0-1.4","CPXsnFXBI5","655ce6f7af924eb65bdefd92","6617fad957f7c6a12ea16e26","6622cdeefe4b761d33560530","image grid","q","","","","","Ontogenetic_Distractor_Threat_target","2500","ongrid","q","6","Ontogenetic","true","experimental"
"","null","html-keyboard-response","225","328779","0.0-13.0-2.4","CPXsnFXBI5","655ce6f7af924eb65bdefd92","6617fad957f7c6a12ea16e26","6622cdeefe4b761d33560530","
    <div id=""grid-container"">
        <!-- Grid items will be dynamically added here -->
    </div>    ","null","","","","","","","","","","","",""
"","null","html-keyboard-response","226","329485","0.0-13.0-0.5","CPXsnFXBI5","655ce6f7af924eb65bdefd92","6617fad957f7c6a12ea16e26","6622cdeefe4b761d33560530","fixation cross","null","","","","","","","","","","","",""
"","1886","html-keyboard-response","227","331371","0.0-13.0-1.5","CPXsnFXBI5","655ce6f7af924eb65bdefd92","6617fad957f7c6a12ea16e26","6622cdeefe4b761d33560530","image grid","p","","","","","Ontogenetic_Distractor_notarget","2500","ongrid"," ","1","Ontogenetic","false","experimental"
"","null","html-keyboard-response","228","331531","0.0-13.0-2.5","CPXsnFXBI5","655ce6f7af924eb65bdefd92","6617fad957f7c6a12ea16e26","6622cdeefe4b761d33560530","
    <div id=""grid-container"">
        <!-- Grid items will be dynamically added here -->
    </div>    ","null","","","","","","","","","","","",""
"","null","html-keyboard-response","229","332250","0.0-13.0-0.6","CPXsnFXBI5","655ce6f7af924eb65bdefd92","6617fad957f7c6a12ea16e26","6622cdeefe4b761d33560530","fixation cross","null","","","","","","","","","","","",""
"","944","html-keyboard-response","230","333195","0.0-13.0-1.6","CPXsnFXBI5","655ce6f7af924eb65bdefd92","6617fad957f7c6a12ea16e26","6622cdeefe4b761d33560530","image grid","p","","","","","Ontogenetic_Distractor_Nonthreat_target","2500","ongrid","p","2","Ontogenetic","true","experimental"
"","null","html-keyboard-response","231","333361","0.0-13.0-2.6","CPXsnFXBI5","655ce6f7af924eb65bdefd92","6617fad957f7c6a12ea16e26","6622cdeefe4b761d33560530","
    <div id=""grid-container"">
        <!-- Grid items will be dynamically added here -->
    </div>    ","null","","","","","","","","","","","",""
"","null","html-keyboard-response","232","334065","0.0-13.0-0.7","CPXsnFXBI5","655ce6f7af924eb65bdefd92","6617fad957f7c6a12ea16e26","6622cdeefe4b761d33560530","fixation cross","null","","","","","","","","","","","",""
"","810","html-keyboard-response","233","334876","0.0-13.0-1.7","CPXsnFXBI5","655ce6f7af924eb65bdefd92","6617fad957f7c6a12ea16e26","6622cdeefe4b761d33560530","image grid","q","","","","","Ontogenetic_Distractor_Threat_target","2500","ongrid","q","3","Ontogenetic","true","experimental"
"","null","html-keyboard-response","234","335029","0.0-13.0-2.7","CPXsnFXBI5","655ce6f7af924eb65bdefd92","6617fad957f7c6a12ea16e26","6622cdeefe4b761d33560530","
    <div id=""grid-container"">
        <!-- Grid items will be dynamically added here -->
    </div>    ","null","","","","","","","","","","","",""
"","null","html-keyboard-response","235","335735","0.0-13.0-0.8","CPXsnFXBI5","655ce6f7af924eb65bdefd92","6617fad957f7c6a12ea16e26","6622cdeefe4b761d33560530","fixation cross","null","","","","","","","","","","","",""
"","2212","html-keyboard-response","236","337948","0.0-13.0-1.8","CPXsnFXBI5","655ce6f7af924eb65bdefd92","6617fad957f7c6a12ea16e26","6622cdeefe4b761d33560530","image grid"," ","","","","","Ontogenetic_Distractor_notarget","2500","ongrid"," ","4","Ontogenetic","true","experimental"
"","null","html-keyboard-response","237","338108","0.0-13.0-2.8","CPXsnFXBI5","655ce6f7af924eb65bdefd92","6617fad957f7c6a12ea16e26","6622cdeefe4b761d33560530","
    <div id=""grid-container"">
        <!-- Grid items will be dynamically added here -->
    </div>    ","null","","","","","","","","","","","",""
"","null","html-keyboard-response","238","338819","0.0-13.0-0.9","CPXsnFXBI5","655ce6f7af924eb65bdefd92","6617fad957f7c6a12ea16e26","6622cdeefe4b761d33560530","fixation cross","null","","","","","","","","","","","",""
"","904","html-keyboard-response","239","339724","0.0-13.0-1.9","CPXsnFXBI5","655ce6f7af924eb65bdefd92","6617fad957f7c6a12ea16e26","6622cdeefe4b761d33560530","image grid","q","","","","","Ontogenetic_Distractor_Nonthreat_target","2500","ongrid","p","3","Ontogenetic","false","experimental"
"","null","html-keyboard-response","240","339878","0.0-13.0-2.9","CPXsnFXBI5","655ce6f7af924eb65bdefd92","6617fad957f7c6a12ea16e26","6622cdeefe4b761d33560530","
    <div id=""grid-container"">
        <!-- Grid items will be dynamically added here -->
    </div>    ","null","","","","","","","","","","","",""
"","null","html-keyboard-response","241","340598","0.0-13.0-0.10","CPXsnFXBI5","655ce6f7af924eb65bdefd92","6617fad957f7c6a12ea16e26","6622cdeefe4b761d33560530","fixation cross","null","","","","","","","","","","","",""
"","1030","html-keyboard-response","242","341629","0.0-13.0-1.10","CPXsnFXBI5","655ce6f7af924eb65bdefd92","6617fad957f7c6a12ea16e26","6622cdeefe4b761d33560530","image grid","p","","","","","Ontogenetic_Distractor_Nonthreat_target","2500","ongrid","p","6","Ontogenetic","true","experimental"
"","null","html-keyboard-response","243","341781","0.0-13.0-2.10","CPXsnFXBI5","655ce6f7af924eb65bdefd92","6617fad957f7c6a12ea16e26","6622cdeefe4b761d33560530","
    <div id=""grid-container"">
        <!-- Grid items will be dynamically added here -->
    </div>    ","null","","","","","","","","","","","",""
"","null","html-keyboard-response","244","342498","0.0-13.0-0.11","CPXsnFXBI5","655ce6f7af924eb65bdefd92","6617fad957f7c6a12ea16e26","6622cdeefe4b761d33560530","fixation cross","null","","","","","","","","","","","",""
"","1115","html-keyboard-response","245","343614","0.0-13.0-1.11","CPXsnFXBI5","655ce6f7af924eb65bdefd92","6617fad957f7c6a12ea16e26","6622cdeefe4b761d33560530","image grid","p","","","","","Ontogenetic_Distractor_Nonthreat_target","2500","ongrid","p","2","Ontogenetic","true","experimental"
"","null","html-keyboard-response","246","343768","0.0-13.0-2.11","CPXsnFXBI5","655ce6f7af924eb65bdefd92","6617fad957f7c6a12ea16e26","6622cdeefe4b761d33560530","
    <div id=""grid-container"">
        <!-- Grid items will be dynamically added here -->
    </div>    ","null","","","","","","","","","","","",""
"","null","html-keyboard-response","247","344476","0.0-13.0-0.12","CPXsnFXBI5","655ce6f7af924eb65bdefd92","6617fad957f7c6a12ea16e26","6622cdeefe4b761d33560530","fixation cross","null","","","","","","","","","","","",""
"","1057","html-keyboard-response","248","345533","0.0-13.0-1.12","CPXsnFXBI5","655ce6f7af924eb65bdefd92","6617fad957f7c6a12ea16e26","6622cdeefe4b761d33560530","image grid","q","","","","","Ontogenetic_Distractor_Threat_target","2500","ongrid","q","7","Ontogenetic","true","experimental"
"","null","html-keyboard-response","249","345692","0.0-13.0-2.12","CPXsnFXBI5","655ce6f7af924eb65bdefd92","6617fad957f7c6a12ea16e26","6622cdeefe4b761d33560530","
    <div id=""grid-container"">
        <!-- Grid items will be dynamically added here -->
    </div>    ","null","","","","","","","","","","","",""
"","null","html-keyboard-response","250","346397","0.0-13.0-0.13","CPXsnFXBI5","655ce6f7af924eb65bdefd92","6617fad957f7c6a12ea16e26","6622cdeefe4b761d33560530","fixation cross","null","","","","","","","","","","","",""
"","976","html-keyboard-response","251","347373","0.0-13.0-1.13","CPXsnFXBI5","655ce6f7af924eb65bdefd92","6617fad957f7c6a12ea16e26","6622cdeefe4b761d33560530","image grid","q","","","","","Ontogenetic_Distractor_Threat_target","2500","ongrid","q","7","Ontogenetic","true","experimental"
"","null","html-keyboard-response","252","347535","0.0-13.0-2.13","CPXsnFXBI5","655ce6f7af924eb65bdefd92","6617fad957f7c6a12ea16e26","6622cdeefe4b761d33560530","
    <div id=""grid-container"">
        <!-- Grid items will be dynamically added here -->
    </div>    ","null","","","","","","","","","","","",""
"","null","html-keyboard-response","253","348241","0.0-13.0-0.14","CPXsnFXBI5","655ce6f7af924eb65bdefd92","6617fad957f7c6a12ea16e26","6622cdeefe4b761d33560530","fixation cross","null","","","","","","","","","","","",""
"","956","html-keyboard-response","254","349198","0.0-13.0-1.14","CPXsnFXBI5","655ce6f7af924eb65bdefd92","6617fad957f7c6a12ea16e26","6622cdeefe4b761d33560530","image grid","p","","","","","Ontogenetic_Distractor_Nonthreat_target","2500","ongrid","p","4","Ontogenetic","true","experimental"
"","null","html-keyboard-response","255","349367","0.0-13.0-2.14","CPXsnFXBI5","655ce6f7af924eb65bdefd92","6617fad957f7c6a12ea16e26","6622cdeefe4b761d33560530","
    <div id=""grid-container"">
        <!-- Grid items will be dynamically added here -->
    </div>    ","null","","","","","","","","","","","",""
"","null","html-keyboard-response","256","350069","0.0-13.0-0.15","CPXsnFXBI5","655ce6f7af924eb65bdefd92","6617fad957f7c6a12ea16e26","6622cdeefe4b761d33560530","fixation cross","null","","","","","","","","","","","",""
"","1577","html-keyboard-response","257","351646","0.0-13.0-1.15","CPXsnFXBI5","655ce6f7af924eb65bdefd92","6617fad957f7c6a12ea16e26","6622cdeefe4b761d33560530","image grid","q","","","","","Ontogenetic_Distractor_Threat_target","2500","ongrid","q","9","Ontogenetic","true","experimental"
"","null","html-keyboard-response","258","351812","0.0-13.0-2.15","CPXsnFXBI5","655ce6f7af924eb65bdefd92","6617fad957f7c6a12ea16e26","6622cdeefe4b761d33560530","
    <div id=""grid-container"">
        <!-- Grid items will be dynamically added here -->
    </div>    ","null","","","","","","","","","","","",""
"","null","html-keyboard-response","259","352516","0.0-13.0-0.16","CPXsnFXBI5","655ce6f7af924eb65bdefd92","6617fad957f7c6a12ea16e26","6622cdeefe4b761d33560530","fixation cross","null","","","","","","","","","","","",""
"","1355","html-keyboard-response","260","353871","0.0-13.0-1.16","CPXsnFXBI5","655ce6f7af924eb65bdefd92","6617fad957f7c6a12ea16e26","6622cdeefe4b761d33560530","image grid","p","","","","","Ontogenetic_Distractor_Nonthreat_target","2500","ongrid","p","7","Ontogenetic","true","experimental"
"","null","html-keyboard-response","261","354035","0.0-13.0-2.16","CPXsnFXBI5","655ce6f7af924eb65bdefd92","6617fad957f7c6a12ea16e26","6622cdeefe4b761d33560530","
    <div id=""grid-container"">
        <!-- Grid items will be dynamically added here -->
    </div>    ","null","","","","","","","","","","","",""
"","null","html-keyboard-response","262","354739","0.0-13.0-0.17","CPXsnFXBI5","655ce6f7af924eb65bdefd92","6617fad957f7c6a12ea16e26","6622cdeefe4b761d33560530","fixation cross","null","","","","","","","","","","","",""
"","763","html-keyboard-response","263","355503","0.0-13.0-1.17","CPXsnFXBI5","655ce6f7af924eb65bdefd92","6617fad957f7c6a12ea16e26","6622cdeefe4b761d33560530","image grid","p","","","","","Ontogenetic_Distractor_Nonthreat_target","2500","ongrid","p","4","Ontogenetic","true","experimental"
"","null","html-keyboard-response","264","355660","0.0-13.0-2.17","CPXsnFXBI5","655ce6f7af924eb65bdefd92","6617fad957f7c6a12ea16e26","6622cdeefe4b761d33560530","
    <div id=""grid-container"">
        <!-- Grid items will be dynamically added here -->
    </div>    ","null","","","","","","","","","","","",""
"","null","html-keyboard-response","265","356367","0.0-13.0-0.18","CPXsnFXBI5","655ce6f7af924eb65bdefd92","6617fad957f7c6a12ea16e26","6622cdeefe4b761d33560530","fixation cross","null","","","","","","","","","","","",""
"","1136","html-keyboard-response","266","357503","0.0-13.0-1.18","CPXsnFXBI5","655ce6f7af924eb65bdefd92","6617fad957f7c6a12ea16e26","6622cdeefe4b761d33560530","image grid","p","","","","","Ontogenetic_Distractor_Nonthreat_target","2500","ongrid","p","7","Ontogenetic","true","experimental"
"","null","html-keyboard-response","267","357658","0.0-13.0-2.18","CPXsnFXBI5","655ce6f7af924eb65bdefd92","6617fad957f7c6a12ea16e26","6622cdeefe4b761d33560530","
    <div id=""grid-container"">
        <!-- Grid items will be dynamically added here -->
    </div>    ","null","","","","","","","","","","","",""
"","null","html-keyboard-response","268","358364","0.0-13.0-0.19","CPXsnFXBI5","655ce6f7af924eb65bdefd92","6617fad957f7c6a12ea16e26","6622cdeefe4b761d33560530","fixation cross","null","","","","","","","","","","","",""
"","771","html-keyboard-response","269","359136","0.0-13.0-1.19","CPXsnFXBI5","655ce6f7af924eb65bdefd92","6617fad957f7c6a12ea16e26","6622cdeefe4b761d33560530","image grid","q","","","","","Ontogenetic_Distractor_Threat_target","2500","ongrid","q","4","Ontogenetic","true","experimental"
"","null","html-keyboard-response","270","359289","0.0-13.0-2.19","CPXsnFXBI5","655ce6f7af924eb65bdefd92","6617fad957f7c6a12ea16e26","6622cdeefe4b761d33560530","
    <div id=""grid-container"">
        <!-- Grid items will be dynamically added here -->
    </div>    ","null","","","","","","","","","","","",""
"","null","html-keyboard-response","271","359992","0.0-13.0-0.20","CPXsnFXBI5","655ce6f7af924eb65bdefd92","6617fad957f7c6a12ea16e26","6622cdeefe4b761d33560530","fixation cross","null","","","","","","","","","","","",""
"","1383","html-keyboard-response","272","361376","0.0-13.0-1.20","CPXsnFXBI5","655ce6f7af924eb65bdefd92","6617fad957f7c6a12ea16e26","6622cdeefe4b761d33560530","image grid","p","","","","","Ontogenetic_Distractor_Nonthreat_target","2500","ongrid","p","9","Ontogenetic","true","experimental"
"","null","html-keyboard-response","273","361537","0.0-13.0-2.20","CPXsnFXBI5","655ce6f7af924eb65bdefd92","6617fad957f7c6a12ea16e26","6622cdeefe4b761d33560530","
    <div id=""grid-container"">
        <!-- Grid items will be dynamically added here -->
    </div>    ","null","","","","","","","","","","","",""
"","null","html-keyboard-response","274","362243","0.0-13.0-0.21","CPXsnFXBI5","655ce6f7af924eb65bdefd92","6617fad957f7c6a12ea16e26","6622cdeefe4b761d33560530","fixation cross","null","","","","","","","","","","","",""
"","765","html-keyboard-response","275","363008","0.0-13.0-1.21","CPXsnFXBI5","655ce6f7af924eb65bdefd92","6617fad957f7c6a12ea16e26","6622cdeefe4b761d33560530","image grid","q","","","","","Ontogenetic_Distractor_Threat_target","2500","ongrid","q","5","Ontogenetic","true","experimental"
"","null","html-keyboard-response","276","363162","0.0-13.0-2.21","CPXsnFXBI5","655ce6f7af924eb65bdefd92","6617fad957f7c6a12ea16e26","6622cdeefe4b761d33560530","
    <div id=""grid-container"">
        <!-- Grid items will be dynamically added here -->
    </div>    ","null","","","","","","","","","","","",""
"","null","html-keyboard-response","277","363872","0.0-13.0-0.22","CPXsnFXBI5","655ce6f7af924eb65bdefd92","6617fad957f7c6a12ea16e26","6622cdeefe4b761d33560530","fixation cross","null","","","","","","","","","","","",""
"","703","html-keyboard-response","278","364576","0.0-13.0-1.22","CPXsnFXBI5","655ce6f7af924eb65bdefd92","6617fad957f7c6a12ea16e26","6622cdeefe4b761d33560530","image grid","q","","","","","Ontogenetic_Distractor_Threat_target","2500","ongrid","q","2","Ontogenetic","true","experimental"
"","null","html-keyboard-response","279","364735","0.0-13.0-2.22","CPXsnFXBI5","655ce6f7af924eb65bdefd92","6617fad957f7c6a12ea16e26","6622cdeefe4b761d33560530","
    <div id=""grid-container"">
        <!-- Grid items will be dynamically added here -->
    </div>    ","null","","","","","","","","","","","",""
"","null","html-keyboard-response","280","365440","0.0-13.0-0.23","CPXsnFXBI5","655ce6f7af924eb65bdefd92","6617fad957f7c6a12ea16e26","6622cdeefe4b761d33560530","fixation cross","null","","","","","","","","","","","",""
"","864","html-keyboard-response","281","366304","0.0-13.0-1.23","CPXsnFXBI5","655ce6f7af924eb65bdefd92","6617fad957f7c6a12ea16e26","6622cdeefe4b761d33560530","image grid","q","","","","","Ontogenetic_Distractor_Threat_target","2500","ongrid","q","8","Ontogenetic","true","experimental"
"","null","html-keyboard-response","282","366467","0.0-13.0-2.23","CPXsnFXBI5","655ce6f7af924eb65bdefd92","6617fad957f7c6a12ea16e26","6622cdeefe4b761d33560530","
    <div id=""grid-container"">
        <!-- Grid items will be dynamically added here -->
    </div>    ","null","","","","","","","","","","","",""
"","null","html-keyboard-response","283","367175","0.0-13.0-0.24","CPXsnFXBI5","655ce6f7af924eb65bdefd92","6617fad957f7c6a12ea16e26","6622cdeefe4b761d33560530","fixation cross","null","","","","","","","","","","","",""
"","793","html-keyboard-response","284","367968","0.0-13.0-1.24","CPXsnFXBI5","655ce6f7af924eb65bdefd92","6617fad957f7c6a12ea16e26","6622cdeefe4b761d33560530","image grid","q","","","","","Ontogenetic_Distractor_Threat_target","2500","ongrid","q","9","Ontogenetic","true","experimental"
"","null","html-keyboard-response","285","368127","0.0-13.0-2.24","CPXsnFXBI5","655ce6f7af924eb65bdefd92","6617fad957f7c6a12ea16e26","6622cdeefe4b761d33560530","
    <div id=""grid-container"">
        <!-- Grid items will be dynamically added here -->
    </div>    ","null","","","","","","","","","","","",""
"","null","html-keyboard-response","286","368841","0.0-13.0-0.25","CPXsnFXBI5","655ce6f7af924eb65bdefd92","6617fad957f7c6a12ea16e26","6622cdeefe4b761d33560530","fixation cross","null","","","","","","","","","","","",""
"","759","html-keyboard-response","287","369601","0.0-13.0-1.25","CPXsnFXBI5","655ce6f7af924eb65bdefd92","6617fad957f7c6a12ea16e26","6622cdeefe4b761d33560530","image grid","q","","","","","Ontogenetic_Distractor_Threat_target","2500","ongrid","q","4","Ontogenetic","true","experimental"
"","null","html-keyboard-response","288","369766","0.0-13.0-2.25","CPXsnFXBI5","655ce6f7af924eb65bdefd92","6617fad957f7c6a12ea16e26","6622cdeefe4b761d33560530","
    <div id=""grid-container"">
        <!-- Grid items will be dynamically added here -->
    </div>    ","null","","","","","","","","","","","",""
"","null","html-keyboard-response","289","370473","0.0-13.0-0.26","CPXsnFXBI5","655ce6f7af924eb65bdefd92","6617fad957f7c6a12ea16e26","6622cdeefe4b761d33560530","fixation cross","null","","","","","","","","","","","",""
"","759","html-keyboard-response","290","371233","0.0-13.0-1.26","CPXsnFXBI5","655ce6f7af924eb65bdefd92","6617fad957f7c6a12ea16e26","6622cdeefe4b761d33560530","image grid","q","","","","","Ontogenetic_Distractor_Threat_target","2500","ongrid","q","7","Ontogenetic","true","experimental"
"","null","html-keyboard-response","291","371390","0.0-13.0-2.26","CPXsnFXBI5","655ce6f7af924eb65bdefd92","6617fad957f7c6a12ea16e26","6622cdeefe4b761d33560530","
    <div id=""grid-container"">
        <!-- Grid items will be dynamically added here -->
    </div>    ","null","","","","","","","","","","","",""
"","null","html-keyboard-response","292","372107","0.0-13.0-0.27","CPXsnFXBI5","655ce6f7af924eb65bdefd92","6617fad957f7c6a12ea16e26","6622cdeefe4b761d33560530","fixation cross","null","","","","","","","","","","","",""
"","437","html-keyboard-response","293","372545","0.0-13.0-1.27","CPXsnFXBI5","655ce6f7af924eb65bdefd92","6617fad957f7c6a12ea16e26","6622cdeefe4b761d33560530","image grid","q","","","","","Ontogenetic_Distractor_Threat_target","2500","ongrid","q","4","Ontogenetic","true","experimental"
"","null","html-keyboard-response","294","372701","0.0-13.0-2.27","CPXsnFXBI5","655ce6f7af924eb65bdefd92","6617fad957f7c6a12ea16e26","6622cdeefe4b761d33560530","
    <div id=""grid-container"">
        <!-- Grid items will be dynamically added here -->
    </div>    ","null","","","","","","","","","","","",""
"","null","html-keyboard-response","295","373405","0.0-13.0-0.28","CPXsnFXBI5","655ce6f7af924eb65bdefd92","6617fad957f7c6a12ea16e26","6622cdeefe4b761d33560530","fixation cross","null","","","","","","","","","","","",""
"","885","html-keyboard-response","296","374289","0.0-13.0-1.28","CPXsnFXBI5","655ce6f7af924eb65bdefd92","6617fad957f7c6a12ea16e26","6622cdeefe4b761d33560530","image grid","q","","","","","Ontogenetic_Distractor_Threat_target","2500","ongrid","q","6","Ontogenetic","true","experimental"
"","null","html-keyboard-response","297","374445","0.0-13.0-2.28","CPXsnFXBI5","655ce6f7af924eb65bdefd92","6617fad957f7c6a12ea16e26","6622cdeefe4b761d33560530","
    <div id=""grid-container"">
        <!-- Grid items will be dynamically added here -->
    </div>    ","null","","","","","","","","","","","",""
"","null","html-keyboard-response","298","375152","0.0-13.0-0.29","CPXsnFXBI5","655ce6f7af924eb65bdefd92","6617fad957f7c6a12ea16e26","6622cdeefe4b761d33560530","fixation cross","null","","","","","","","","","","","",""
"","898","html-keyboard-response","299","376050","0.0-13.0-1.29","CPXsnFXBI5","655ce6f7af924eb65bdefd92","6617fad957f7c6a12ea16e26","6622cdeefe4b761d33560530","image grid","q","","","","","Ontogenetic_Distractor_Threat_target","2500","ongrid","q","9","Ontogenetic","true","experimental"
"","null","html-keyboard-response","300","376212","0.0-13.0-2.29","CPXsnFXBI5","655ce6f7af924eb65bdefd92","6617fad957f7c6a12ea16e26","6622cdeefe4b761d33560530","
    <div id=""grid-container"">
        <!-- Grid items will be dynamically added here -->
    </div>    ","null","","","","","","","","","","","",""
"","null","html-keyboard-response","301","376928","0.0-13.0-0.30","CPXsnFXBI5","655ce6f7af924eb65bdefd92","6617fad957f7c6a12ea16e26","6622cdeefe4b761d33560530","fixation cross","null","","","","","","","","","","","",""
"","834","html-keyboard-response","302","377762","0.0-13.0-1.30","CPXsnFXBI5","655ce6f7af924eb65bdefd92","6617fad957f7c6a12ea16e26","6622cdeefe4b761d33560530","image grid","p","","","","","Ontogenetic_Distractor_Nonthreat_target","2500","ongrid","p","8","Ontogenetic","true","experimental"
"","null","html-keyboard-response","303","377927","0.0-13.0-2.30","CPXsnFXBI5","655ce6f7af924eb65bdefd92","6617fad957f7c6a12ea16e26","6622cdeefe4b761d33560530","
    <div id=""grid-container"">
        <!-- Grid items will be dynamically added here -->
    </div>    ","null","","","","","","","","","","","",""
"","null","html-keyboard-response","304","378640","0.0-13.0-0.31","CPXsnFXBI5","655ce6f7af924eb65bdefd92","6617fad957f7c6a12ea16e26","6622cdeefe4b761d33560530","fixation cross","null","","","","","","","","","","","",""
"","1010","html-keyboard-response","305","379650","0.0-13.0-1.31","CPXsnFXBI5","655ce6f7af924eb65bdefd92","6617fad957f7c6a12ea16e26","6622cdeefe4b761d33560530","image grid","p","","","","","Ontogenetic_Distractor_Nonthreat_target","2500","ongrid","p","4","Ontogenetic","true","experimental"
"","null","html-keyboard-response","306","379801","0.0-13.0-2.31","CPXsnFXBI5","655ce6f7af924eb65bdefd92","6617fad957f7c6a12ea16e26","6622cdeefe4b761d33560530","
    <div id=""grid-container"">
        <!-- Grid items will be dynamically added here -->
    </div>    ","null","","","","","","","","","","","",""
"","null","html-keyboard-response","307","380509","0.0-13.0-0.32","CPXsnFXBI5","655ce6f7af924eb65bdefd92","6617fad957f7c6a12ea16e26","6622cdeefe4b761d33560530","fixation cross","null","","","","","","","","","","","",""
"","885","html-keyboard-response","308","381395","0.0-13.0-1.32","CPXsnFXBI5","655ce6f7af924eb65bdefd92","6617fad957f7c6a12ea16e26","6622cdeefe4b761d33560530","image grid","p","","","","","Ontogenetic_Distractor_Nonthreat_target","2500","ongrid","p","2","Ontogenetic","true","experimental"
"","null","html-keyboard-response","309","381554","0.0-13.0-2.32","CPXsnFXBI5","655ce6f7af924eb65bdefd92","6617fad957f7c6a12ea16e26","6622cdeefe4b761d33560530","
    <div id=""grid-container"">
        <!-- Grid items will be dynamically added here -->
    </div>    ","null","","","","","","","","","","","",""
"","null","html-keyboard-response","310","382269","0.0-13.0-0.33","CPXsnFXBI5","655ce6f7af924eb65bdefd92","6617fad957f7c6a12ea16e26","6622cdeefe4b761d33560530","fixation cross","null","","","","","","","","","","","",""
"","821","html-keyboard-response","311","383090","0.0-13.0-1.33","CPXsnFXBI5","655ce6f7af924eb65bdefd92","6617fad957f7c6a12ea16e26","6622cdeefe4b761d33560530","image grid","q","","","","","Ontogenetic_Distractor_Threat_target","2500","ongrid","q","3","Ontogenetic","true","experimental"
"","null","html-keyboard-response","312","383256","0.0-13.0-2.33","CPXsnFXBI5","655ce6f7af924eb65bdefd92","6617fad957f7c6a12ea16e26","6622cdeefe4b761d33560530","
    <div id=""grid-container"">
        <!-- Grid items will be dynamically added here -->
    </div>    ","null","","","","","","","","","","","",""
"","null","html-keyboard-response","313","383969","0.0-13.0-0.34","CPXsnFXBI5","655ce6f7af924eb65bdefd92","6617fad957f7c6a12ea16e26","6622cdeefe4b761d33560530","fixation cross","null","","","","","","","","","","","",""
"","785","html-keyboard-response","314","384755","0.0-13.0-1.34","CPXsnFXBI5","655ce6f7af924eb65bdefd92","6617fad957f7c6a12ea16e26","6622cdeefe4b761d33560530","image grid","q","","","","","Ontogenetic_Distractor_Threat_target","2500","ongrid","q","9","Ontogenetic","true","experimental"
"","null","html-keyboard-response","315","384915","0.0-13.0-2.34","CPXsnFXBI5","655ce6f7af924eb65bdefd92","6617fad957f7c6a12ea16e26","6622cdeefe4b761d33560530","
    <div id=""grid-container"">
        <!-- Grid items will be dynamically added here -->
    </div>    ","null","","","","","","","","","","","",""
"","null","html-keyboard-response","316","385621","0.0-13.0-0.35","CPXsnFXBI5","655ce6f7af924eb65bdefd92","6617fad957f7c6a12ea16e26","6622cdeefe4b761d33560530","fixation cross","null","","","","","","","","","","","",""
"","1790","html-keyboard-response","317","387411","0.0-13.0-1.35","CPXsnFXBI5","655ce6f7af924eb65bdefd92","6617fad957f7c6a12ea16e26","6622cdeefe4b761d33560530","image grid"," ","","","","","Ontogenetic_Distractor_notarget","2500","ongrid"," ","5","Ontogenetic","true","experimental"
"","null","html-keyboard-response","318","387568","0.0-13.0-2.35","CPXsnFXBI5","655ce6f7af924eb65bdefd92","6617fad957f7c6a12ea16e26","6622cdeefe4b761d33560530","
    <div id=""grid-container"">
        <!-- Grid items will be dynamically added here -->
    </div>    ","null","","","","","","","","","","","",""
"","null","html-keyboard-response","319","388284","0.0-13.0-0.36","CPXsnFXBI5","655ce6f7af924eb65bdefd92","6617fad957f7c6a12ea16e26","6622cdeefe4b761d33560530","fixation cross","null","","","","","","","","","","","",""
"","822","html-keyboard-response","320","389107","0.0-13.0-1.36","CPXsnFXBI5","655ce6f7af924eb65bdefd92","6617fad957f7c6a12ea16e26","6622cdeefe4b761d33560530","image grid","p","","","","","Ontogenetic_Distractor_Nonthreat_target","2500","ongrid","p","6","Ontogenetic","true","experimental"
"","null","html-keyboard-response","321","389267","0.0-13.0-2.36","CPXsnFXBI5","655ce6f7af924eb65bdefd92","6617fad957f7c6a12ea16e26","6622cdeefe4b761d33560530","
    <div id=""grid-container"">
        <!-- Grid items will be dynamically added here -->
    </div>    ","null","","","","","","","","","","","",""
"","null","html-keyboard-response","322","389970","0.0-13.0-0.37","CPXsnFXBI5","655ce6f7af924eb65bdefd92","6617fad957f7c6a12ea16e26","6622cdeefe4b761d33560530","fixation cross","null","","","","","","","","","","","",""
"","1633","html-keyboard-response","323","391603","0.0-13.0-1.37","CPXsnFXBI5","655ce6f7af924eb65bdefd92","6617fad957f7c6a12ea16e26","6622cdeefe4b761d33560530","image grid"," ","","","","","Ontogenetic_Distractor_notarget","2500","ongrid"," ","2","Ontogenetic","true","experimental"
"","null","html-keyboard-response","324","391764","0.0-13.0-2.37","CPXsnFXBI5","655ce6f7af924eb65bdefd92","6617fad957f7c6a12ea16e26","6622cdeefe4b761d33560530","
    <div id=""grid-container"">
        <!-- Grid items will be dynamically added here -->
    </div>    ","null","","","","","","","","","","","",""
"","null","html-keyboard-response","325","392468","0.0-13.0-0.38","CPXsnFXBI5","655ce6f7af924eb65bdefd92","6617fad957f7c6a12ea16e26","6622cdeefe4b761d33560530","fixation cross","null","","","","","","","","","","","",""
"","1503","html-keyboard-response","326","393972","0.0-13.0-1.38","CPXsnFXBI5","655ce6f7af924eb65bdefd92","6617fad957f7c6a12ea16e26","6622cdeefe4b761d33560530","image grid"," ","","","","","Ontogenetic_Distractor_Threat_target","2500","ongrid","q","7","Ontogenetic","false","experimental"
"","null","html-keyboard-response","327","394127","0.0-13.0-2.38","CPXsnFXBI5","655ce6f7af924eb65bdefd92","6617fad957f7c6a12ea16e26","6622cdeefe4b761d33560530","
    <div id=""grid-container"">
        <!-- Grid items will be dynamically added here -->
    </div>    ","null","","","","","","","","","","","",""
"","null","html-keyboard-response","328","394832","0.0-13.0-0.39","CPXsnFXBI5","655ce6f7af924eb65bdefd92","6617fad957f7c6a12ea16e26","6622cdeefe4b761d33560530","fixation cross","null","","","","","","","","","","","",""
"","771","html-keyboard-response","329","395604","0.0-13.0-1.39","CPXsnFXBI5","655ce6f7af924eb65bdefd92","6617fad957f7c6a12ea16e26","6622cdeefe4b761d33560530","image grid","p","","","","","Ontogenetic_Distractor_Nonthreat_target","2500","ongrid","p","1","Ontogenetic","true","experimental"
"","null","html-keyboard-response","330","395768","0.0-13.0-2.39","CPXsnFXBI5","655ce6f7af924eb65bdefd92","6617fad957f7c6a12ea16e26","6622cdeefe4b761d33560530","
    <div id=""grid-container"">
        <!-- Grid items will be dynamically added here -->
    </div>    ","null","","","","","","","","","","","",""
"","1474","html-keyboard-response","331","397444","0.0-14.0","CPXsnFXBI5","655ce6f7af924eb65bdefd92","6617fad957f7c6a12ea16e26","6622cdeefe4b761d33560530","break screen","'","","","","","","","","","","","",""
"","null","html-keyboard-response","332","399958","0.0-15.0-0.0","CPXsnFXBI5","655ce6f7af924eb65bdefd92","6617fad957f7c6a12ea16e26","6622cdeefe4b761d33560530","fixation cross","null","","","","","","","","","","","",""
"","null","html-keyboard-response","333","400765","0.0-15.0-1.0","CPXsnFXBI5","655ce6f7af924eb65bdefd92","6617fad957f7c6a12ea16e26","6622cdeefe4b761d33560530","
        <div id=""grid-container"">
        <!-- Grid items will be dynamically added here -->
    </div>    ","null","","","","","","","","","","","",""
"","2327","html-keyboard-response","334","402293","0.0-15.0-2.0","CPXsnFXBI5","655ce6f7af924eb65bdefd92","6617fad957f7c6a12ea16e26","6622cdeefe4b761d33560530","mask grid"," ","","","","","Ontogenetic_Distractor_Nonthreat_target","800","onmask","p","3","Ontogenetic","false","experimental"
"","null","html-keyboard-response","335","403002","0.0-15.0-0.1","CPXsnFXBI5","655ce6f7af924eb65bdefd92","6617fad957f7c6a12ea16e26","6622cdeefe4b761d33560530","fixation cross","null","","","","","","","","","","","",""
"","null","html-keyboard-response","336","403809","0.0-15.0-1.1","CPXsnFXBI5","655ce6f7af924eb65bdefd92","6617fad957f7c6a12ea16e26","6622cdeefe4b761d33560530","
        <div id=""grid-container"">
        <!-- Grid items will be dynamically added here -->
    </div>    ","null","","","","","","","","","","","",""
"","836","html-keyboard-response","337","403845","0.0-15.0-2.1","CPXsnFXBI5","655ce6f7af924eb65bdefd92","6617fad957f7c6a12ea16e26","6622cdeefe4b761d33560530","mask grid","q","","","","","Ontogenetic_Distractor_Threat_target","800","onmask","q","4","Ontogenetic","true","experimental"
"","null","html-keyboard-response","338","404549","0.0-15.0-0.2","CPXsnFXBI5","655ce6f7af924eb65bdefd92","6617fad957f7c6a12ea16e26","6622cdeefe4b761d33560530","fixation cross","null","","","","","","","","","","","",""
"","null","html-keyboard-response","339","405362","0.0-15.0-1.2","CPXsnFXBI5","655ce6f7af924eb65bdefd92","6617fad957f7c6a12ea16e26","6622cdeefe4b761d33560530","
        <div id=""grid-container"">
        <!-- Grid items will be dynamically added here -->
    </div>    ","null","","","","","","","","","","","",""
"","803","html-keyboard-response","340","405365","0.0-15.0-2.2","CPXsnFXBI5","655ce6f7af924eb65bdefd92","6617fad957f7c6a12ea16e26","6622cdeefe4b761d33560530","mask grid","p","","","","","Ontogenetic_Distractor_Nonthreat_target","800","onmask","p","2","Ontogenetic","true","experimental"
"","null","html-keyboard-response","341","406091","0.0-15.0-0.3","CPXsnFXBI5","655ce6f7af924eb65bdefd92","6617fad957f7c6a12ea16e26","6622cdeefe4b761d33560530","fixation cross","null","","","","","","","","","","","",""
"","null","html-keyboard-response","342","406905","0.0-15.0-1.3","CPXsnFXBI5","655ce6f7af924eb65bdefd92","6617fad957f7c6a12ea16e26","6622cdeefe4b761d33560530","
        <div id=""grid-container"">
        <!-- Grid items will be dynamically added here -->
    </div>    ","null","","","","","","","","","","","",""
"","892","html-keyboard-response","343","406997","0.0-15.0-2.3","CPXsnFXBI5","655ce6f7af924eb65bdefd92","6617fad957f7c6a12ea16e26","6622cdeefe4b761d33560530","mask grid","q","","","","","Ontogenetic_Distractor_Threat_target","800","onmask","q","1","Ontogenetic","true","experimental"
"","null","html-keyboard-response","344","407716","0.0-15.0-0.4","CPXsnFXBI5","655ce6f7af924eb65bdefd92","6617fad957f7c6a12ea16e26","6622cdeefe4b761d33560530","fixation cross","null","","","","","","","","","","","",""
"","675","html-keyboard-response","345","408391","0.0-15.0-1.4","CPXsnFXBI5","655ce6f7af924eb65bdefd92","6617fad957f7c6a12ea16e26","6622cdeefe4b761d33560530","image grid","p","","","","","Ontogenetic_Distractor_Nonthreat_target","800","ongrid","p","5","Ontogenetic","true","experimental"
"","null","html-keyboard-response","346","408547","0.0-15.0-2.4","CPXsnFXBI5","655ce6f7af924eb65bdefd92","6617fad957f7c6a12ea16e26","6622cdeefe4b761d33560530","
    <div id=""grid-container"">
        <!-- Grid items will be dynamically added here -->
    </div>    ","null","","","","","","","","","","","",""
"","null","html-keyboard-response","347","409255","0.0-15.0-0.5","CPXsnFXBI5","655ce6f7af924eb65bdefd92","6617fad957f7c6a12ea16e26","6622cdeefe4b761d33560530","fixation cross","null","","","","","","","","","","","",""
"","606","html-keyboard-response","348","409862","0.0-15.0-1.5","CPXsnFXBI5","655ce6f7af924eb65bdefd92","6617fad957f7c6a12ea16e26","6622cdeefe4b761d33560530","image grid","p","","","","","Ontogenetic_Distractor_Nonthreat_target","800","ongrid","p","5","Ontogenetic","true","experimental"
"","null","html-keyboard-response","349","410023","0.0-15.0-2.5","CPXsnFXBI5","655ce6f7af924eb65bdefd92","6617fad957f7c6a12ea16e26","6622cdeefe4b761d33560530","
    <div id=""grid-container"">
        <!-- Grid items will be dynamically added here -->
    </div>    ","null","","","","","","","","","","","",""
"","null","html-keyboard-response","350","410725","0.0-15.0-0.6","CPXsnFXBI5","655ce6f7af924eb65bdefd92","6617fad957f7c6a12ea16e26","6622cdeefe4b761d33560530","fixation cross","null","","","","","","","","","","","",""
"","null","html-keyboard-response","351","411539","0.0-15.0-1.6","CPXsnFXBI5","655ce6f7af924eb65bdefd92","6617fad957f7c6a12ea16e26","6622cdeefe4b761d33560530","
        <div id=""grid-container"">
        <!-- Grid items will be dynamically added here -->
    </div>    ","null","","","","","","","","","","","",""
"","994","html-keyboard-response","352","411734","0.0-15.0-2.6","CPXsnFXBI5","655ce6f7af924eb65bdefd92","6617fad957f7c6a12ea16e26","6622cdeefe4b761d33560530","mask grid"," ","","","","","Ontogenetic_Distractor_notarget","800","onmask"," ","9","Ontogenetic","true","experimental"
"","null","html-keyboard-response","353","412464","0.0-15.0-0.7","CPXsnFXBI5","655ce6f7af924eb65bdefd92","6617fad957f7c6a12ea16e26","6622cdeefe4b761d33560530","fixation cross","null","","","","","","","","","","","",""
"","null","html-keyboard-response","354","413269","0.0-15.0-1.7","CPXsnFXBI5","655ce6f7af924eb65bdefd92","6617fad957f7c6a12ea16e26","6622cdeefe4b761d33560530","
        <div id=""grid-container"">
        <!-- Grid items will be dynamically added here -->
    </div>    ","null","","","","","","","","","","","",""
"","929","html-keyboard-response","355","413398","0.0-15.0-2.7","CPXsnFXBI5","655ce6f7af924eb65bdefd92","6617fad957f7c6a12ea16e26","6622cdeefe4b761d33560530","mask grid","q","","","","","Ontogenetic_Distractor_Threat_target","800","onmask","q","9","Ontogenetic","true","experimental"
"","null","html-keyboard-response","356","414109","0.0-15.0-0.8","CPXsnFXBI5","655ce6f7af924eb65bdefd92","6617fad957f7c6a12ea16e26","6622cdeefe4b761d33560530","fixation cross","null","","","","","","","","","","","",""
"","682","html-keyboard-response","357","414791","0.0-15.0-1.8","CPXsnFXBI5","655ce6f7af924eb65bdefd92","6617fad957f7c6a12ea16e26","6622cdeefe4b761d33560530","image grid","q","","","","","Ontogenetic_Distractor_Threat_target","800","ongrid","q","8","Ontogenetic","true","experimental"
"","null","html-keyboard-response","358","414946","0.0-15.0-2.8","CPXsnFXBI5","655ce6f7af924eb65bdefd92","6617fad957f7c6a12ea16e26","6622cdeefe4b761d33560530","
    <div id=""grid-container"">
        <!-- Grid items will be dynamically added here -->
    </div>    ","null","","","","","","","","","","","",""
"","null","html-keyboard-response","359","415654","0.0-15.0-0.9","CPXsnFXBI5","655ce6f7af924eb65bdefd92","6617fad957f7c6a12ea16e26","6622cdeefe4b761d33560530","fixation cross","null","","","","","","","","","","","",""
"","609","html-keyboard-response","360","416263","0.0-15.0-1.9","CPXsnFXBI5","655ce6f7af924eb65bdefd92","6617fad957f7c6a12ea16e26","6622cdeefe4b761d33560530","image grid","p","","","","","Ontogenetic_Distractor_Nonthreat_target","800","ongrid","p","5","Ontogenetic","true","experimental"
"","null","html-keyboard-response","361","416421","0.0-15.0-2.9","CPXsnFXBI5","655ce6f7af924eb65bdefd92","6617fad957f7c6a12ea16e26","6622cdeefe4b761d33560530","
    <div id=""grid-container"">
        <!-- Grid items will be dynamically added here -->
    </div>    ","null","","","","","","","","","","","",""
"","null","html-keyboard-response","362","417134","0.0-15.0-0.10","CPXsnFXBI5","655ce6f7af924eb65bdefd92","6617fad957f7c6a12ea16e26","6622cdeefe4b761d33560530","fixation cross","null","","","","","","","","","","","",""
"","null","html-keyboard-response","363","417953","0.0-15.0-1.10","CPXsnFXBI5","655ce6f7af924eb65bdefd92","6617fad957f7c6a12ea16e26","6622cdeefe4b761d33560530","
        <div id=""grid-container"">
        <!-- Grid items will be dynamically added here -->
    </div>    ","null","","","","","","","","","","","",""
"","811","html-keyboard-response","364","417963","0.0-15.0-2.10","CPXsnFXBI5","655ce6f7af924eb65bdefd92","6617fad957f7c6a12ea16e26","6622cdeefe4b761d33560530","mask grid","q","","","","","Ontogenetic_Distractor_Threat_target","800","onmask","q","8","Ontogenetic","true","experimental"
"","null","html-keyboard-response","365","418674","0.0-15.0-0.11","CPXsnFXBI5","655ce6f7af924eb65bdefd92","6617fad957f7c6a12ea16e26","6622cdeefe4b761d33560530","fixation cross","null","","","","","","","","","","","",""
"","null","html-keyboard-response","366","419478","0.0-15.0-1.11","CPXsnFXBI5","655ce6f7af924eb65bdefd92","6617fad957f7c6a12ea16e26","6622cdeefe4b761d33560530","
        <div id=""grid-container"">
        <!-- Grid items will be dynamically added here -->
    </div>    ","null","","","","","","","","","","","",""
"","929","html-keyboard-response","367","419608","0.0-15.0-2.11","CPXsnFXBI5","655ce6f7af924eb65bdefd92","6617fad957f7c6a12ea16e26","6622cdeefe4b761d33560530","mask grid","p","","","","","Ontogenetic_Distractor_Nonthreat_target","800","onmask","p","6","Ontogenetic","true","experimental"
"","null","html-keyboard-response","368","420326","0.0-15.0-0.12","CPXsnFXBI5","655ce6f7af924eb65bdefd92","6617fad957f7c6a12ea16e26","6622cdeefe4b761d33560530","fixation cross","null","","","","","","","","","","","",""
"","null","html-keyboard-response","369","421135","0.0-15.0-1.12","CPXsnFXBI5","655ce6f7af924eb65bdefd92","6617fad957f7c6a12ea16e26","6622cdeefe4b761d33560530","
        <div id=""grid-container"">
        <!-- Grid items will be dynamically added here -->
    </div>    ","null","","","","","","","","","","","",""
