"success","rt","trial_type","trial_index","time_elapsed","internal_node_id","unique_identifier","subject_id","study_id","session_id","stimulus","response","timeout","failed_images","failed_audio","failed_video","task","time_manipulation","respondedwhen","correctresponse","targetimagelocation","blocktype","correct","roundtype"
"true","2195","fullscreen","0","3207","0.0-0.0","u2F1qKzwCL","605b800261a3587647dc423a","6617fad957f7c6a12ea16e26","6622cfa57f97d0d40de009fa","","","","","","","","","","","","","",""
"","12827","html-keyboard-response","1","16038","0.0-1.0","u2F1qKzwCL","605b800261a3587647dc423a","6617fad957f7c6a12ea16e26","6622cfa57f97d0d40de009fa","instruction screen 0","k","","","","","","","","","","","",""
"true","","preload","2","17292","0.0-2.0","u2F1qKzwCL","605b800261a3587647dc423a","6617fad957f7c6a12ea16e26","6622cfa57f97d0d40de009fa","","","false","[]","[]","[]","","","","","","","",""
"","9982","html-keyboard-response","3","27277","0.0-3.0","u2F1qKzwCL","605b800261a3587647dc423a","6617fad957f7c6a12ea16e26","6622cfa57f97d0d40de009fa","instruction screen 1","j","","","","","","","","","","","",""
"","5299","html-keyboard-response","4","32584","0.0-4.0","u2F1qKzwCL","605b800261a3587647dc423a","6617fad957f7c6a12ea16e26","6622cfa57f97d0d40de009fa","instruction screen 2","q","","","","","","","","","","","",""
"","4646","html-keyboard-response","5","37233","0.0-5.0","u2F1qKzwCL","605b800261a3587647dc423a","6617fad957f7c6a12ea16e26","6622cfa57f97d0d40de009fa","instruction screen 3","p","","","","","","","","","","","",""
"","4464","html-keyboard-response","6","41706","0.0-6.0","u2F1qKzwCL","605b800261a3587647dc423a","6617fad957f7c6a12ea16e26","6622cfa57f97d0d40de009fa","instruction screen 4"," ","","","","","","","","","","","",""
"","7734","html-keyboard-response","7","49448","0.0-7.0","u2F1qKzwCL","605b800261a3587647dc423a","6617fad957f7c6a12ea16e26","6622cfa57f97d0d40de009fa","instruction screen 5"," ","","","","","","","","","","","",""
"","null","html-keyboard-response","8","49964","0.0-8.0","u2F1qKzwCL","605b800261a3587647dc423a","6617fad957f7c6a12ea16e26","6622cfa57f97d0d40de009fa","fixation cross","null","","","","","","","","","","","",""
"","null","html-keyboard-response","9","50474","0.0-9.0-0.0","u2F1qKzwCL","605b800261a3587647dc423a","6617fad957f7c6a12ea16e26","6622cfa57f97d0d40de009fa","fixation cross","null","","","","","","","","","","","",""
"","1394","html-keyboard-response","10","51869","0.0-9.0-1.0","u2F1qKzwCL","605b800261a3587647dc423a","6617fad957f7c6a12ea16e26","6622cfa57f97d0d40de009fa","image grid","q","","","","","Ontogenetic_Distractor_Threat_target","3000","ongrid","q","7","Phylogenetic","true","practice"
"","null","html-keyboard-response","11","52028","0.0-9.0-2.0","u2F1qKzwCL","605b800261a3587647dc423a","6617fad957f7c6a12ea16e26","6622cfa57f97d0d40de009fa","
    <div id=""grid-container"">
        <!-- Grid items will be dynamically added here -->
    </div>    ","null","","","","","","","","","","","",""
"","null","html-keyboard-response","12","53251","0.0-9.0-3.0","u2F1qKzwCL","605b800261a3587647dc423a","6617fad957f7c6a12ea16e26","6622cfa57f97d0d40de009fa","feedback screen","null","","","","","","","","","","","",""
"","null","html-keyboard-response","13","53765","0.0-9.0-0.1","u2F1qKzwCL","605b800261a3587647dc423a","6617fad957f7c6a12ea16e26","6622cfa57f97d0d40de009fa","fixation cross","null","","","","","","","","","","","",""
"","1292","html-keyboard-response","14","55058","0.0-9.0-1.1","u2F1qKzwCL","605b800261a3587647dc423a","6617fad957f7c6a12ea16e26","6622cfa57f97d0d40de009fa","image grid"," ","","","","","Ontogenetic_Distractor_notarget","2900","ongrid"," ","2","Phylogenetic","true","practice"
"","null","html-keyboard-response","15","55225","0.0-9.0-2.1","u2F1qKzwCL","605b800261a3587647dc423a","6617fad957f7c6a12ea16e26","6622cfa57f97d0d40de009fa","
    <div id=""grid-container"">
        <!-- Grid items will be dynamically added here -->
    </div>    ","null","","","","","","","","","","","",""
"","null","html-keyboard-response","16","56446","0.0-9.0-3.1","u2F1qKzwCL","605b800261a3587647dc423a","6617fad957f7c6a12ea16e26","6622cfa57f97d0d40de009fa","feedback screen","null","","","","","","","","","","","",""
"","null","html-keyboard-response","17","56956","0.0-9.0-0.2","u2F1qKzwCL","605b800261a3587647dc423a","6617fad957f7c6a12ea16e26","6622cfa57f97d0d40de009fa","fixation cross","null","","","","","","","","","","","",""
"","1872","html-keyboard-response","18","58829","0.0-9.0-1.2","u2F1qKzwCL","605b800261a3587647dc423a","6617fad957f7c6a12ea16e26","6622cfa57f97d0d40de009fa","image grid","q","","","","","Phylogenetic_Distractor_Threat_target","2800","ongrid","q","9","Phylogenetic","true","practice"
"","null","html-keyboard-response","19","58993","0.0-9.0-2.2","u2F1qKzwCL","605b800261a3587647dc423a","6617fad957f7c6a12ea16e26","6622cfa57f97d0d40de009fa","
    <div id=""grid-container"">
        <!-- Grid items will be dynamically added here -->
    </div>    ","null","","","","","","","","","","","",""
"","null","html-keyboard-response","20","60218","0.0-9.0-3.2","u2F1qKzwCL","605b800261a3587647dc423a","6617fad957f7c6a12ea16e26","6622cfa57f97d0d40de009fa","feedback screen","null","","","","","","","","","","","",""
"","null","html-keyboard-response","21","60732","0.0-9.0-0.3","u2F1qKzwCL","605b800261a3587647dc423a","6617fad957f7c6a12ea16e26","6622cfa57f97d0d40de009fa","fixation cross","null","","","","","","","","","","","",""
"","1691","html-keyboard-response","22","62424","0.0-9.0-1.3","u2F1qKzwCL","605b800261a3587647dc423a","6617fad957f7c6a12ea16e26","6622cfa57f97d0d40de009fa","image grid"," ","","","","","Phylogenetic_Distractor_notarget","2700","ongrid"," ","9","Phylogenetic","true","practice"
"","null","html-keyboard-response","23","62580","0.0-9.0-2.3","u2F1qKzwCL","605b800261a3587647dc423a","6617fad957f7c6a12ea16e26","6622cfa57f97d0d40de009fa","
    <div id=""grid-container"">
        <!-- Grid items will be dynamically added here -->
    </div>    ","null","","","","","","","","","","","",""
"","null","html-keyboard-response","24","63791","0.0-9.0-3.3","u2F1qKzwCL","605b800261a3587647dc423a","6617fad957f7c6a12ea16e26","6622cfa57f97d0d40de009fa","feedback screen","null","","","","","","","","","","","",""
"","null","html-keyboard-response","25","64303","0.0-9.0-0.4","u2F1qKzwCL","605b800261a3587647dc423a","6617fad957f7c6a12ea16e26","6622cfa57f97d0d40de009fa","fixation cross","null","","","","","","","","","","","",""
"","1757","html-keyboard-response","26","66062","0.0-9.0-1.4","u2F1qKzwCL","605b800261a3587647dc423a","6617fad957f7c6a12ea16e26","6622cfa57f97d0d40de009fa","image grid","q","","","","","Phylogenetic_Distractor_Threat_target","2600","ongrid","q","4","Phylogenetic","true","practice"
"","null","html-keyboard-response","27","66222","0.0-9.0-2.4","u2F1qKzwCL","605b800261a3587647dc423a","6617fad957f7c6a12ea16e26","6622cfa57f97d0d40de009fa","
    <div id=""grid-container"">
        <!-- Grid items will be dynamically added here -->
    </div>    ","null","","","","","","","","","","","",""
"","null","html-keyboard-response","28","67431","0.0-9.0-3.4","u2F1qKzwCL","605b800261a3587647dc423a","6617fad957f7c6a12ea16e26","6622cfa57f97d0d40de009fa","feedback screen","null","","","","","","","","","","","",""
"","null","html-keyboard-response","29","67943","0.0-9.0-0.5","u2F1qKzwCL","605b800261a3587647dc423a","6617fad957f7c6a12ea16e26","6622cfa57f97d0d40de009fa","fixation cross","null","","","","","","","","","","","",""
"","1568","html-keyboard-response","30","69512","0.0-9.0-1.5","u2F1qKzwCL","605b800261a3587647dc423a","6617fad957f7c6a12ea16e26","6622cfa57f97d0d40de009fa","image grid","p","","","","","Ontogenetic_Distractor_Nonthreat_target","2500","ongrid","p","9","Phylogenetic","true","practice"
"","null","html-keyboard-response","31","69668","0.0-9.0-2.5","u2F1qKzwCL","605b800261a3587647dc423a","6617fad957f7c6a12ea16e26","6622cfa57f97d0d40de009fa","
    <div id=""grid-container"">
        <!-- Grid items will be dynamically added here -->
    </div>    ","null","","","","","","","","","","","",""
"","null","html-keyboard-response","32","70878","0.0-9.0-3.5","u2F1qKzwCL","605b800261a3587647dc423a","6617fad957f7c6a12ea16e26","6622cfa57f97d0d40de009fa","feedback screen","null","","","","","","","","","","","",""
"","null","html-keyboard-response","33","71390","0.0-9.0-0.6","u2F1qKzwCL","605b800261a3587647dc423a","6617fad957f7c6a12ea16e26","6622cfa57f97d0d40de009fa","fixation cross","null","","","","","","","","","","","",""
"","783","html-keyboard-response","34","72174","0.0-9.0-1.6","u2F1qKzwCL","605b800261a3587647dc423a","6617fad957f7c6a12ea16e26","6622cfa57f97d0d40de009fa","image grid","p","","","","","Ontogenetic_Distractor_Nonthreat_target","2400","ongrid","p","5","Phylogenetic","true","practice"
"","null","html-keyboard-response","35","72336","0.0-9.0-2.6","u2F1qKzwCL","605b800261a3587647dc423a","6617fad957f7c6a12ea16e26","6622cfa57f97d0d40de009fa","
    <div id=""grid-container"">
        <!-- Grid items will be dynamically added here -->
    </div>    ","null","","","","","","","","","","","",""
"","null","html-keyboard-response","36","73560","0.0-9.0-3.6","u2F1qKzwCL","605b800261a3587647dc423a","6617fad957f7c6a12ea16e26","6622cfa57f97d0d40de009fa","feedback screen","null","","","","","","","","","","","",""
"","null","html-keyboard-response","37","74072","0.0-9.0-0.7","u2F1qKzwCL","605b800261a3587647dc423a","6617fad957f7c6a12ea16e26","6622cfa57f97d0d40de009fa","fixation cross","null","","","","","","","","","","","",""
"","1023","html-keyboard-response","38","75096","0.0-9.0-1.7","u2F1qKzwCL","605b800261a3587647dc423a","6617fad957f7c6a12ea16e26","6622cfa57f97d0d40de009fa","image grid","q","","","","","Phylogenetic_Distractor_Threat_target","2300","ongrid","q","6","Phylogenetic","true","practice"
"","null","html-keyboard-response","39","75254","0.0-9.0-2.7","u2F1qKzwCL","605b800261a3587647dc423a","6617fad957f7c6a12ea16e26","6622cfa57f97d0d40de009fa","
    <div id=""grid-container"">
        <!-- Grid items will be dynamically added here -->
    </div>    ","null","","","","","","","","","","","",""
"","null","html-keyboard-response","40","76463","0.0-9.0-3.7","u2F1qKzwCL","605b800261a3587647dc423a","6617fad957f7c6a12ea16e26","6622cfa57f97d0d40de009fa","feedback screen","null","","","","","","","","","","","",""
"","null","html-keyboard-response","41","76975","0.0-9.0-0.8","u2F1qKzwCL","605b800261a3587647dc423a","6617fad957f7c6a12ea16e26","6622cfa57f97d0d40de009fa","fixation cross","null","","","","","","","","","","","",""
"","1029","html-keyboard-response","42","78005","0.0-9.0-1.8","u2F1qKzwCL","605b800261a3587647dc423a","6617fad957f7c6a12ea16e26","6622cfa57f97d0d40de009fa","image grid"," ","","","","","Ontogenetic_Distractor_notarget","2200","ongrid"," ","1","Phylogenetic","true","practice"
"","null","html-keyboard-response","43","78170","0.0-9.0-2.8","u2F1qKzwCL","605b800261a3587647dc423a","6617fad957f7c6a12ea16e26","6622cfa57f97d0d40de009fa","
    <div id=""grid-container"">
        <!-- Grid items will be dynamically added here -->
    </div>    ","null","","","","","","","","","","","",""
"","null","html-keyboard-response","44","79383","0.0-9.0-3.8","u2F1qKzwCL","605b800261a3587647dc423a","6617fad957f7c6a12ea16e26","6622cfa57f97d0d40de009fa","feedback screen","null","","","","","","","","","","","",""
"","null","html-keyboard-response","45","79896","0.0-9.0-0.9","u2F1qKzwCL","605b800261a3587647dc423a","6617fad957f7c6a12ea16e26","6622cfa57f97d0d40de009fa","fixation cross","null","","","","","","","","","","","",""
"","853","html-keyboard-response","46","80750","0.0-9.0-1.9","u2F1qKzwCL","605b800261a3587647dc423a","6617fad957f7c6a12ea16e26","6622cfa57f97d0d40de009fa","image grid","q","","","","","Ontogenetic_Distractor_Threat_target","2100","ongrid","q","6","Phylogenetic","true","practice"
"","null","html-keyboard-response","47","80905","0.0-9.0-2.9","u2F1qKzwCL","605b800261a3587647dc423a","6617fad957f7c6a12ea16e26","6622cfa57f97d0d40de009fa","
    <div id=""grid-container"">
        <!-- Grid items will be dynamically added here -->
    </div>    ","null","","","","","","","","","","","",""
"","null","html-keyboard-response","48","82117","0.0-9.0-3.9","u2F1qKzwCL","605b800261a3587647dc423a","6617fad957f7c6a12ea16e26","6622cfa57f97d0d40de009fa","feedback screen","null","","","","","","","","","","","",""
"","null","html-keyboard-response","49","82632","0.0-9.0-0.10","u2F1qKzwCL","605b800261a3587647dc423a","6617fad957f7c6a12ea16e26","6622cfa57f97d0d40de009fa","fixation cross","null","","","","","","","","","","","",""
"","1451","html-keyboard-response","50","84085","0.0-9.0-1.10","u2F1qKzwCL","605b800261a3587647dc423a","6617fad957f7c6a12ea16e26","6622cfa57f97d0d40de009fa","image grid"," ","","","","","Phylogenetic_Distractor_Nonthreat_target","2000","ongrid","p","2","Phylogenetic","false","practice"
"","null","html-keyboard-response","51","84246","0.0-9.0-2.10","u2F1qKzwCL","605b800261a3587647dc423a","6617fad957f7c6a12ea16e26","6622cfa57f97d0d40de009fa","
    <div id=""grid-container"">
        <!-- Grid items will be dynamically added here -->
    </div>    ","null","","","","","","","","","","","",""
"","null","html-keyboard-response","52","85456","0.0-9.0-3.10","u2F1qKzwCL","605b800261a3587647dc423a","6617fad957f7c6a12ea16e26","6622cfa57f97d0d40de009fa","feedback screen","null","","","","","","","","","","","",""
"","null","html-keyboard-response","53","85964","0.0-9.0-0.11","u2F1qKzwCL","605b800261a3587647dc423a","6617fad957f7c6a12ea16e26","6622cfa57f97d0d40de009fa","fixation cross","null","","","","","","","","","","","",""
"","1140","html-keyboard-response","54","87104","0.0-9.0-1.11","u2F1qKzwCL","605b800261a3587647dc423a","6617fad957f7c6a12ea16e26","6622cfa57f97d0d40de009fa","image grid","q","","","","","Phylogenetic_Distractor_Threat_target","1900","ongrid","q","3","Phylogenetic","true","practice"
"","null","html-keyboard-response","55","87270","0.0-9.0-2.11","u2F1qKzwCL","605b800261a3587647dc423a","6617fad957f7c6a12ea16e26","6622cfa57f97d0d40de009fa","
    <div id=""grid-container"">
        <!-- Grid items will be dynamically added here -->
    </div>    ","null","","","","","","","","","","","",""
"","null","html-keyboard-response","56","88479","0.0-9.0-3.11","u2F1qKzwCL","605b800261a3587647dc423a","6617fad957f7c6a12ea16e26","6622cfa57f97d0d40de009fa","feedback screen","null","","","","","","","","","","","",""
"","null","html-keyboard-response","57","88989","0.0-9.0-0.12","u2F1qKzwCL","605b800261a3587647dc423a","6617fad957f7c6a12ea16e26","6622cfa57f97d0d40de009fa","fixation cross","null","","","","","","","","","","","",""
"","1644","html-keyboard-response","58","90634","0.0-9.0-1.12","u2F1qKzwCL","605b800261a3587647dc423a","6617fad957f7c6a12ea16e26","6622cfa57f97d0d40de009fa","image grid"," ","","","","","Phylogenetic_Distractor_notarget","1800","ongrid"," ","5","Phylogenetic","true","practice"
"","null","html-keyboard-response","59","90791","0.0-9.0-2.12","u2F1qKzwCL","605b800261a3587647dc423a","6617fad957f7c6a12ea16e26","6622cfa57f97d0d40de009fa","
    <div id=""grid-container"">
        <!-- Grid items will be dynamically added here -->
    </div>    ","null","","","","","","","","","","","",""
"","null","html-keyboard-response","60","91996","0.0-9.0-3.12","u2F1qKzwCL","605b800261a3587647dc423a","6617fad957f7c6a12ea16e26","6622cfa57f97d0d40de009fa","feedback screen","null","","","","","","","","","","","",""
"","null","html-keyboard-response","61","92508","0.0-9.0-0.13","u2F1qKzwCL","605b800261a3587647dc423a","6617fad957f7c6a12ea16e26","6622cfa57f97d0d40de009fa","fixation cross","null","","","","","","","","","","","",""
"","912","html-keyboard-response","62","93420","0.0-9.0-1.13","u2F1qKzwCL","605b800261a3587647dc423a","6617fad957f7c6a12ea16e26","6622cfa57f97d0d40de009fa","image grid","p","","","","","Ontogenetic_Distractor_Nonthreat_target","1700","ongrid","p","9","Phylogenetic","true","practice"
"","null","html-keyboard-response","63","93578","0.0-9.0-2.13","u2F1qKzwCL","605b800261a3587647dc423a","6617fad957f7c6a12ea16e26","6622cfa57f97d0d40de009fa","
    <div id=""grid-container"">
        <!-- Grid items will be dynamically added here -->
    </div>    ","null","","","","","","","","","","","",""
"","null","html-keyboard-response","64","94788","0.0-9.0-3.13","u2F1qKzwCL","605b800261a3587647dc423a","6617fad957f7c6a12ea16e26","6622cfa57f97d0d40de009fa","feedback screen","null","","","","","","","","","","","",""
"","null","html-keyboard-response","65","95312","0.0-9.0-0.14","u2F1qKzwCL","605b800261a3587647dc423a","6617fad957f7c6a12ea16e26","6622cfa57f97d0d40de009fa","fixation cross","null","","","","","","","","","","","",""
"","1252","html-keyboard-response","66","96565","0.0-9.0-1.14","u2F1qKzwCL","605b800261a3587647dc423a","6617fad957f7c6a12ea16e26","6622cfa57f97d0d40de009fa","image grid","q","","","","","Ontogenetic_Distractor_Threat_target","1600","ongrid","q","3","Phylogenetic","true","practice"
"","null","html-keyboard-response","67","96721","0.0-9.0-2.14","u2F1qKzwCL","605b800261a3587647dc423a","6617fad957f7c6a12ea16e26","6622cfa57f97d0d40de009fa","
    <div id=""grid-container"">
        <!-- Grid items will be dynamically added here -->
    </div>    ","null","","","","","","","","","","","",""
"","null","html-keyboard-response","68","97933","0.0-9.0-3.14","u2F1qKzwCL","605b800261a3587647dc423a","6617fad957f7c6a12ea16e26","6622cfa57f97d0d40de009fa","feedback screen","null","","","","","","","","","","","",""
"","null","html-keyboard-response","69","98445","0.0-9.0-0.15","u2F1qKzwCL","605b800261a3587647dc423a","6617fad957f7c6a12ea16e26","6622cfa57f97d0d40de009fa","fixation cross","null","","","","","","","","","","","",""
"","821","html-keyboard-response","70","99267","0.0-9.0-1.15","u2F1qKzwCL","605b800261a3587647dc423a","6617fad957f7c6a12ea16e26","6622cfa57f97d0d40de009fa","image grid","q","","","","","Ontogenetic_Distractor_Threat_target","1500","ongrid","q","3","Phylogenetic","true","practice"
"","null","html-keyboard-response","71","99423","0.0-9.0-2.15","u2F1qKzwCL","605b800261a3587647dc423a","6617fad957f7c6a12ea16e26","6622cfa57f97d0d40de009fa","
    <div id=""grid-container"">
        <!-- Grid items will be dynamically added here -->
    </div>    ","null","","","","","","","","","","","",""
"","null","html-keyboard-response","72","100631","0.0-9.0-3.15","u2F1qKzwCL","605b800261a3587647dc423a","6617fad957f7c6a12ea16e26","6622cfa57f97d0d40de009fa","feedback screen","null","","","","","","","","","","","",""
"","null","html-keyboard-response","73","101147","0.0-9.0-0.16","u2F1qKzwCL","605b800261a3587647dc423a","6617fad957f7c6a12ea16e26","6622cfa57f97d0d40de009fa","fixation cross","null","","","","","","","","","","","",""
"","null","html-keyboard-response","74","102561","0.0-9.0-1.16","u2F1qKzwCL","605b800261a3587647dc423a","6617fad957f7c6a12ea16e26","6622cfa57f97d0d40de009fa","
        <div id=""grid-container"">
        <!-- Grid items will be dynamically added here -->
    </div>    ","null","","","","","","","","","","","",""
"","1438","html-keyboard-response","75","102600","0.0-9.0-2.16","u2F1qKzwCL","605b800261a3587647dc423a","6617fad957f7c6a12ea16e26","6622cfa57f97d0d40de009fa","mask grid"," ","","","","","Phylogenetic_Distractor_Nonthreat_target","1400","onmask","p","5","Phylogenetic","false","practice"
"","null","html-keyboard-response","76","103815","0.0-9.0-3.16","u2F1qKzwCL","605b800261a3587647dc423a","6617fad957f7c6a12ea16e26","6622cfa57f97d0d40de009fa","feedback screen","null","","","","","","","","","","","",""
"","null","html-keyboard-response","77","104326","0.0-9.0-0.17","u2F1qKzwCL","605b800261a3587647dc423a","6617fad957f7c6a12ea16e26","6622cfa57f97d0d40de009fa","fixation cross","null","","","","","","","","","","","",""
"","null","html-keyboard-response","78","105632","0.0-9.0-1.17","u2F1qKzwCL","605b800261a3587647dc423a","6617fad957f7c6a12ea16e26","6622cfa57f97d0d40de009fa","
        <div id=""grid-container"">
        <!-- Grid items will be dynamically added here -->
    </div>    ","null","","","","","","","","","","","",""
"","1364","html-keyboard-response","79","105697","0.0-9.0-2.17","u2F1qKzwCL","605b800261a3587647dc423a","6617fad957f7c6a12ea16e26","6622cfa57f97d0d40de009fa","mask grid","p","","","","","Phylogenetic_Distractor_Nonthreat_target","1300","onmask","p","9","Phylogenetic","true","practice"
"","null","html-keyboard-response","80","106904","0.0-9.0-3.17","u2F1qKzwCL","605b800261a3587647dc423a","6617fad957f7c6a12ea16e26","6622cfa57f97d0d40de009fa","feedback screen","null","","","","","","","","","","","",""
"","null","html-keyboard-response","81","107418","0.0-9.0-0.18","u2F1qKzwCL","605b800261a3587647dc423a","6617fad957f7c6a12ea16e26","6622cfa57f97d0d40de009fa","fixation cross","null","","","","","","","","","","","",""
"","947","html-keyboard-response","82","108366","0.0-9.0-1.18","u2F1qKzwCL","605b800261a3587647dc423a","6617fad957f7c6a12ea16e26","6622cfa57f97d0d40de009fa","image grid","p","","","","","Phylogenetic_Distractor_Nonthreat_target","1200","ongrid","p","4","Phylogenetic","true","practice"
"","null","html-keyboard-response","83","108522","0.0-9.0-2.18","u2F1qKzwCL","605b800261a3587647dc423a","6617fad957f7c6a12ea16e26","6622cfa57f97d0d40de009fa","
    <div id=""grid-container"">
        <!-- Grid items will be dynamically added here -->
    </div>    ","null","","","","","","","","","","","",""
"","null","html-keyboard-response","84","109747","0.0-9.0-3.18","u2F1qKzwCL","605b800261a3587647dc423a","6617fad957f7c6a12ea16e26","6622cfa57f97d0d40de009fa","feedback screen","null","","","","","","","","","","","",""
"","null","html-keyboard-response","85","110258","0.0-9.0-0.19","u2F1qKzwCL","605b800261a3587647dc423a","6617fad957f7c6a12ea16e26","6622cfa57f97d0d40de009fa","fixation cross","null","","","","","","","","","","","",""
"","819","html-keyboard-response","86","111078","0.0-9.0-1.19","u2F1qKzwCL","605b800261a3587647dc423a","6617fad957f7c6a12ea16e26","6622cfa57f97d0d40de009fa","image grid","p","","","","","Ontogenetic_Distractor_Nonthreat_target","1100","ongrid","p","1","Phylogenetic","true","practice"
"","null","html-keyboard-response","87","111240","0.0-9.0-2.19","u2F1qKzwCL","605b800261a3587647dc423a","6617fad957f7c6a12ea16e26","6622cfa57f97d0d40de009fa","
    <div id=""grid-container"">
        <!-- Grid items will be dynamically added here -->
    </div>    ","null","","","","","","","","","","","",""
"","null","html-keyboard-response","88","112447","0.0-9.0-3.19","u2F1qKzwCL","605b800261a3587647dc423a","6617fad957f7c6a12ea16e26","6622cfa57f97d0d40de009fa","feedback screen","null","","","","","","","","","","","",""
"","6501","html-keyboard-response","89","119018","0.0-10.0","u2F1qKzwCL","605b800261a3587647dc423a","6617fad957f7c6a12ea16e26","6622cfa57f97d0d40de009fa","pre-experimental_briefing"," ","","","","","","","","","","","",""
"","null","html-keyboard-response","90","121605","0.0-11.0-0.0","u2F1qKzwCL","605b800261a3587647dc423a","6617fad957f7c6a12ea16e26","6622cfa57f97d0d40de009fa","fixation cross","null","","","","","","","","","","","",""
"","null","html-keyboard-response","91","122412","0.0-11.0-1.0","u2F1qKzwCL","605b800261a3587647dc423a","6617fad957f7c6a12ea16e26","6622cfa57f97d0d40de009fa","
        <div id=""grid-container"">
        <!-- Grid items will be dynamically added here -->
    </div>    ","null","","","","","","","","","","","",""
"","3976","html-keyboard-response","92","125589","0.0-11.0-2.0","u2F1qKzwCL","605b800261a3587647dc423a","6617fad957f7c6a12ea16e26","6622cfa57f97d0d40de009fa","mask grid","q","","","","","Phylogenetic_Distractor_Threat_target","800","onmask","q","4","Phylogenetic","true","experimental"
"","null","html-keyboard-response","93","126318","0.0-11.0-0.1","u2F1qKzwCL","605b800261a3587647dc423a","6617fad957f7c6a12ea16e26","6622cfa57f97d0d40de009fa","fixation cross","null","","","","","","","","","","","",""
"","null","html-keyboard-response","94","127132","0.0-11.0-1.1","u2F1qKzwCL","605b800261a3587647dc423a","6617fad957f7c6a12ea16e26","6622cfa57f97d0d40de009fa","
        <div id=""grid-container"">
        <!-- Grid items will be dynamically added here -->
    </div>    ","null","","","","","","","","","","","",""
"","1103","html-keyboard-response","95","127436","0.0-11.0-2.1","u2F1qKzwCL","605b800261a3587647dc423a","6617fad957f7c6a12ea16e26","6622cfa57f97d0d40de009fa","mask grid"," ","","","","","Phylogenetic_Distractor_Nonthreat_target","800","onmask","p","4","Phylogenetic","false","experimental"
"","null","html-keyboard-response","96","128153","0.0-11.0-0.2","u2F1qKzwCL","605b800261a3587647dc423a","6617fad957f7c6a12ea16e26","6622cfa57f97d0d40de009fa","fixation cross","null","","","","","","","","","","","",""
"","null","html-keyboard-response","97","128963","0.0-11.0-1.2","u2F1qKzwCL","605b800261a3587647dc423a","6617fad957f7c6a12ea16e26","6622cfa57f97d0d40de009fa","
        <div id=""grid-container"">
        <!-- Grid items will be dynamically added here -->
    </div>    ","null","","","","","","","","","","","",""
"","893","html-keyboard-response","98","129057","0.0-11.0-2.2","u2F1qKzwCL","605b800261a3587647dc423a","6617fad957f7c6a12ea16e26","6622cfa57f97d0d40de009fa","mask grid","q","","","","","Phylogenetic_Distractor_Nonthreat_target","800","onmask","p","7","Phylogenetic","false","experimental"
"","null","html-keyboard-response","99","129776","0.0-11.0-0.3","u2F1qKzwCL","605b800261a3587647dc423a","6617fad957f7c6a12ea16e26","6622cfa57f97d0d40de009fa","fixation cross","null","","","","","","","","","","","",""
"","683","html-keyboard-response","100","130459","0.0-11.0-1.3","u2F1qKzwCL","605b800261a3587647dc423a","6617fad957f7c6a12ea16e26","6622cfa57f97d0d40de009fa","image grid","p","","","","","Phylogenetic_Distractor_Threat_target","800","ongrid","q","5","Phylogenetic","false","experimental"
"","null","html-keyboard-response","101","130612","0.0-11.0-2.3","u2F1qKzwCL","605b800261a3587647dc423a","6617fad957f7c6a12ea16e26","6622cfa57f97d0d40de009fa","
    <div id=""grid-container"">
        <!-- Grid items will be dynamically added here -->
    </div>    ","null","","","","","","","","","","","",""
"","null","html-keyboard-response","102","131329","0.0-11.0-0.4","u2F1qKzwCL","605b800261a3587647dc423a","6617fad957f7c6a12ea16e26","6622cfa57f97d0d40de009fa","fixation cross","null","","","","","","","","","","","",""
"","null","html-keyboard-response","103","132133","0.0-11.0-1.4","u2F1qKzwCL","605b800261a3587647dc423a","6617fad957f7c6a12ea16e26","6622cfa57f97d0d40de009fa","
        <div id=""grid-container"">
        <!-- Grid items will be dynamically added here -->
    </div>    ","null","","","","","","","","","","","",""
"","1024","html-keyboard-response","104","132358","0.0-11.0-2.4","u2F1qKzwCL","605b800261a3587647dc423a","6617fad957f7c6a12ea16e26","6622cfa57f97d0d40de009fa","mask grid"," ","","","","","Phylogenetic_Distractor_Nonthreat_target","800","onmask","p","9","Phylogenetic","false","experimental"
"","null","html-keyboard-response","105","133075","0.0-11.0-0.5","u2F1qKzwCL","605b800261a3587647dc423a","6617fad957f7c6a12ea16e26","6622cfa57f97d0d40de009fa","fixation cross","null","","","","","","","","","","","",""
"","null","html-keyboard-response","106","133885","0.0-11.0-1.5","u2F1qKzwCL","605b800261a3587647dc423a","6617fad957f7c6a12ea16e26","6622cfa57f97d0d40de009fa","
        <div id=""grid-container"">
        <!-- Grid items will be dynamically added here -->
    </div>    ","null","","","","","","","","","","","",""
"","823","html-keyboard-response","107","133909","0.0-11.0-2.5","u2F1qKzwCL","605b800261a3587647dc423a","6617fad957f7c6a12ea16e26","6622cfa57f97d0d40de009fa","mask grid"," ","","","","","Phylogenetic_Distractor_Threat_target","800","onmask","q","1","Phylogenetic","false","experimental"
"","null","html-keyboard-response","108","134630","0.0-11.0-0.6","u2F1qKzwCL","605b800261a3587647dc423a","6617fad957f7c6a12ea16e26","6622cfa57f97d0d40de009fa","fixation cross","null","","","","","","","","","","","",""
"","null","html-keyboard-response","109","135436","0.0-11.0-1.6","u2F1qKzwCL","605b800261a3587647dc423a","6617fad957f7c6a12ea16e26","6622cfa57f97d0d40de009fa","
        <div id=""grid-container"">
        <!-- Grid items will be dynamically added here -->
    </div>    ","null","","","","","","","","","","","",""
"","1000","html-keyboard-response","110","135637","0.0-11.0-2.6","u2F1qKzwCL","605b800261a3587647dc423a","6617fad957f7c6a12ea16e26","6622cfa57f97d0d40de009fa","mask grid"," ","","","","","Phylogenetic_Distractor_Threat_target","800","onmask","q","2","Phylogenetic","false","experimental"
"","null","html-keyboard-response","111","136340","0.0-11.0-0.7","u2F1qKzwCL","605b800261a3587647dc423a","6617fad957f7c6a12ea16e26","6622cfa57f97d0d40de009fa","fixation cross","null","","","","","","","","","","","",""
"","794","html-keyboard-response","112","137134","0.0-11.0-1.7","u2F1qKzwCL","605b800261a3587647dc423a","6617fad957f7c6a12ea16e26","6622cfa57f97d0d40de009fa","image grid","q","","","","","Phylogenetic_Distractor_Threat_target","800","ongrid","q","6","Phylogenetic","true","experimental"
"","null","html-keyboard-response","113","137297","0.0-11.0-2.7","u2F1qKzwCL","605b800261a3587647dc423a","6617fad957f7c6a12ea16e26","6622cfa57f97d0d40de009fa","
    <div id=""grid-container"">
        <!-- Grid items will be dynamically added here -->
    </div>    ","null","","","","","","","","","","","",""
"","null","html-keyboard-response","114","138012","0.0-11.0-0.8","u2F1qKzwCL","605b800261a3587647dc423a","6617fad957f7c6a12ea16e26","6622cfa57f97d0d40de009fa","fixation cross","null","","","","","","","","","","","",""
"","null","html-keyboard-response","115","138817","0.0-11.0-1.8","u2F1qKzwCL","605b800261a3587647dc423a","6617fad957f7c6a12ea16e26","6622cfa57f97d0d40de009fa","
        <div id=""grid-container"">
        <!-- Grid items will be dynamically added here -->
    </div>    ","null","","","","","","","","","","","",""
"","811","html-keyboard-response","116","138828","0.0-11.0-2.8","u2F1qKzwCL","605b800261a3587647dc423a","6617fad957f7c6a12ea16e26","6622cfa57f97d0d40de009fa","mask grid"," ","","","","","Phylogenetic_Distractor_Threat_target","800","onmask","q","2","Phylogenetic","false","experimental"
"","null","html-keyboard-response","117","139542","0.0-11.0-0.9","u2F1qKzwCL","605b800261a3587647dc423a","6617fad957f7c6a12ea16e26","6622cfa57f97d0d40de009fa","fixation cross","null","","","","","","","","","","","",""
"","null","html-keyboard-response","118","140344","0.0-11.0-1.9","u2F1qKzwCL","605b800261a3587647dc423a","6617fad957f7c6a12ea16e26","6622cfa57f97d0d40de009fa","
        <div id=""grid-container"">
        <!-- Grid items will be dynamically added here -->
    </div>    ","null","","","","","","","","","","","",""
"","912","html-keyboard-response","119","140457","0.0-11.0-2.9","u2F1qKzwCL","605b800261a3587647dc423a","6617fad957f7c6a12ea16e26","6622cfa57f97d0d40de009fa","mask grid","p","","","","","Phylogenetic_Distractor_Threat_target","800","onmask","q","7","Phylogenetic","false","experimental"
"","null","html-keyboard-response","120","141180","0.0-11.0-0.10","u2F1qKzwCL","605b800261a3587647dc423a","6617fad957f7c6a12ea16e26","6622cfa57f97d0d40de009fa","fixation cross","null","","","","","","","","","","","",""
"","null","html-keyboard-response","121","141988","0.0-11.0-1.10","u2F1qKzwCL","605b800261a3587647dc423a","6617fad957f7c6a12ea16e26","6622cfa57f97d0d40de009fa","
        <div id=""grid-container"">
        <!-- Grid items will be dynamically added here -->
    </div>    ","null","","","","","","","","","","","",""
"","800","html-keyboard-response","122","147001","0.0-11.0-2.10","u2F1qKzwCL","605b800261a3587647dc423a","6617fad957f7c6a12ea16e26","6622cfa57f97d0d40de009fa","mask grid","null","","","","","Phylogenetic_Distractor_Nonthreat_target","800","onmask","p","6","Phylogenetic","false","experimental"
"","null","html-keyboard-response","123","147730","0.0-11.0-0.11","u2F1qKzwCL","605b800261a3587647dc423a","6617fad957f7c6a12ea16e26","6622cfa57f97d0d40de009fa","fixation cross","null","","","","","","","","","","","",""
"","null","html-keyboard-response","124","148546","0.0-11.0-1.11","u2F1qKzwCL","605b800261a3587647dc423a","6617fad957f7c6a12ea16e26","6622cfa57f97d0d40de009fa","
        <div id=""grid-container"">
        <!-- Grid items will be dynamically added here -->
    </div>    ","null","","","","","","","","","","","",""
"","936","html-keyboard-response","125","148683","0.0-11.0-2.11","u2F1qKzwCL","605b800261a3587647dc423a","6617fad957f7c6a12ea16e26","6622cfa57f97d0d40de009fa","mask grid"," ","","","","","Phylogenetic_Distractor_Nonthreat_target","800","onmask","p","3","Phylogenetic","false","experimental"
"","null","html-keyboard-response","126","149400","0.0-11.0-0.12","u2F1qKzwCL","605b800261a3587647dc423a","6617fad957f7c6a12ea16e26","6622cfa57f97d0d40de009fa","fixation cross","null","","","","","","","","","","","",""
"","null","html-keyboard-response","127","150202","0.0-11.0-1.12","u2F1qKzwCL","605b800261a3587647dc423a","6617fad957f7c6a12ea16e26","6622cfa57f97d0d40de009fa","
        <div id=""grid-container"">
        <!-- Grid items will be dynamically added here -->
    </div>    ","null","","","","","","","","","","","",""
"","1060","html-keyboard-response","128","150463","0.0-11.0-2.12","u2F1qKzwCL","605b800261a3587647dc423a","6617fad957f7c6a12ea16e26","6622cfa57f97d0d40de009fa","mask grid"," ","","","","","Phylogenetic_Distractor_Nonthreat_target","800","onmask","p","5","Phylogenetic","false","experimental"
"","null","html-keyboard-response","129","151180","0.0-11.0-0.13","u2F1qKzwCL","605b800261a3587647dc423a","6617fad957f7c6a12ea16e26","6622cfa57f97d0d40de009fa","fixation cross","null","","","","","","","","","","","",""
"","null","html-keyboard-response","130","151989","0.0-11.0-1.13","u2F1qKzwCL","605b800261a3587647dc423a","6617fad957f7c6a12ea16e26","6622cfa57f97d0d40de009fa","
        <div id=""grid-container"">
        <!-- Grid items will be dynamically added here -->
    </div>    ","null","","","","","","","","","","","",""
"","814","html-keyboard-response","131","152003","0.0-11.0-2.13","u2F1qKzwCL","605b800261a3587647dc423a","6617fad957f7c6a12ea16e26","6622cfa57f97d0d40de009fa","mask grid","q","","","","","Phylogenetic_Distractor_Nonthreat_target","800","onmask","p","5","Phylogenetic","false","experimental"
"","null","html-keyboard-response","132","152719","0.0-11.0-0.14","u2F1qKzwCL","605b800261a3587647dc423a","6617fad957f7c6a12ea16e26","6622cfa57f97d0d40de009fa","fixation cross","null","","","","","","","","","","","",""
"","null","html-keyboard-response","133","153530","0.0-11.0-1.14","u2F1qKzwCL","605b800261a3587647dc423a","6617fad957f7c6a12ea16e26","6622cfa57f97d0d40de009fa","
        <div id=""grid-container"">
        <!-- Grid items will be dynamically added here -->
    </div>    ","null","","","","","","","","","","","",""
"","1013","html-keyboard-response","134","153744","0.0-11.0-2.14","u2F1qKzwCL","605b800261a3587647dc423a","6617fad957f7c6a12ea16e26","6622cfa57f97d0d40de009fa","mask grid","p","","","","","Phylogenetic_Distractor_Nonthreat_target","800","onmask","p","1","Phylogenetic","true","experimental"
"","null","html-keyboard-response","135","154460","0.0-11.0-0.15","u2F1qKzwCL","605b800261a3587647dc423a","6617fad957f7c6a12ea16e26","6622cfa57f97d0d40de009fa","fixation cross","null","","","","","","","","","","","",""
"","null","html-keyboard-response","136","155268","0.0-11.0-1.15","u2F1qKzwCL","605b800261a3587647dc423a","6617fad957f7c6a12ea16e26","6622cfa57f97d0d40de009fa","
        <div id=""grid-container"">
        <!-- Grid items will be dynamically added here -->
    </div>    ","null","","","","","","","","","","","",""
"","870","html-keyboard-response","137","155338","0.0-11.0-2.15","u2F1qKzwCL","605b800261a3587647dc423a","6617fad957f7c6a12ea16e26","6622cfa57f97d0d40de009fa","mask grid","p","","","","","Phylogenetic_Distractor_Threat_target","800","onmask","q","5","Phylogenetic","false","experimental"
"","null","html-keyboard-response","138","156057","0.0-11.0-0.16","u2F1qKzwCL","605b800261a3587647dc423a","6617fad957f7c6a12ea16e26","6622cfa57f97d0d40de009fa","fixation cross","null","","","","","","","","","","","",""
"","null","html-keyboard-response","139","156862","0.0-11.0-1.16","u2F1qKzwCL","605b800261a3587647dc423a","6617fad957f7c6a12ea16e26","6622cfa57f97d0d40de009fa","
        <div id=""grid-container"">
        <!-- Grid items will be dynamically added here -->
    </div>    ","null","","","","","","","","","","","",""
"","884","html-keyboard-response","140","156947","0.0-11.0-2.16","u2F1qKzwCL","605b800261a3587647dc423a","6617fad957f7c6a12ea16e26","6622cfa57f97d0d40de009fa","mask grid","p","","","","","Phylogenetic_Distractor_Nonthreat_target","800","onmask","p","3","Phylogenetic","true","experimental"
"","null","html-keyboard-response","141","157671","0.0-11.0-0.17","u2F1qKzwCL","605b800261a3587647dc423a","6617fad957f7c6a12ea16e26","6622cfa57f97d0d40de009fa","fixation cross","null","","","","","","","","","","","",""
"","null","html-keyboard-response","142","158481","0.0-11.0-1.17","u2F1qKzwCL","605b800261a3587647dc423a","6617fad957f7c6a12ea16e26","6622cfa57f97d0d40de009fa","
        <div id=""grid-container"">
        <!-- Grid items will be dynamically added here -->
    </div>    ","null","","","","","","","","","","","",""
"","1073","html-keyboard-response","143","158755","0.0-11.0-2.17","u2F1qKzwCL","605b800261a3587647dc423a","6617fad957f7c6a12ea16e26","6622cfa57f97d0d40de009fa","mask grid","p","","","","","Phylogenetic_Distractor_Nonthreat_target","800","onmask","p","1","Phylogenetic","true","experimental"
"","null","html-keyboard-response","144","159473","0.0-11.0-0.18","u2F1qKzwCL","605b800261a3587647dc423a","6617fad957f7c6a12ea16e26","6622cfa57f97d0d40de009fa","fixation cross","null","","","","","","","","","","","",""
"","802","html-keyboard-response","145","160276","0.0-11.0-1.18","u2F1qKzwCL","605b800261a3587647dc423a","6617fad957f7c6a12ea16e26","6622cfa57f97d0d40de009fa","image grid","p","","","","","Phylogenetic_Distractor_Nonthreat_target","800","ongrid","p","6","Phylogenetic","true","experimental"
"","null","html-keyboard-response","146","160435","0.0-11.0-2.18","u2F1qKzwCL","605b800261a3587647dc423a","6617fad957f7c6a12ea16e26","6622cfa57f97d0d40de009fa","
    <div id=""grid-container"">
        <!-- Grid items will be dynamically added here -->
    </div>    ","null","","","","","","","","","","","",""
"","null","html-keyboard-response","147","161149","0.0-11.0-0.19","u2F1qKzwCL","605b800261a3587647dc423a","6617fad957f7c6a12ea16e26","6622cfa57f97d0d40de009fa","fixation cross","null","","","","","","","","","","","",""
"","null","html-keyboard-response","148","161951","0.0-11.0-1.19","u2F1qKzwCL","605b800261a3587647dc423a","6617fad957f7c6a12ea16e26","6622cfa57f97d0d40de009fa","
        <div id=""grid-container"">
        <!-- Grid items will be dynamically added here -->
    </div>    ","null","","","","","","","","","","","",""
"","838","html-keyboard-response","149","161989","0.0-11.0-2.19","u2F1qKzwCL","605b800261a3587647dc423a","6617fad957f7c6a12ea16e26","6622cfa57f97d0d40de009fa","mask grid","p","","","","","Phylogenetic_Distractor_Nonthreat_target","800","onmask","p","6","Phylogenetic","true","experimental"
"","null","html-keyboard-response","150","162714","0.0-11.0-0.20","u2F1qKzwCL","605b800261a3587647dc423a","6617fad957f7c6a12ea16e26","6622cfa57f97d0d40de009fa","fixation cross","null","","","","","","","","","","","",""
"","null","html-keyboard-response","151","163521","0.0-11.0-1.20","u2F1qKzwCL","605b800261a3587647dc423a","6617fad957f7c6a12ea16e26","6622cfa57f97d0d40de009fa","
        <div id=""grid-container"">
        <!-- Grid items will be dynamically added here -->
    </div>    ","null","","","","","","","","","","","",""
"","821","html-keyboard-response","152","163543","0.0-11.0-2.20","u2F1qKzwCL","605b800261a3587647dc423a","6617fad957f7c6a12ea16e26","6622cfa57f97d0d40de009fa","mask grid","p","","","","","Phylogenetic_Distractor_notarget","800","onmask"," ","7","Phylogenetic","false","experimental"
"","null","html-keyboard-response","153","164269","0.0-11.0-0.21","u2F1qKzwCL","605b800261a3587647dc423a","6617fad957f7c6a12ea16e26","6622cfa57f97d0d40de009fa","fixation cross","null","","","","","","","","","","","",""
"","null","html-keyboard-response","154","165078","0.0-11.0-1.21","u2F1qKzwCL","605b800261a3587647dc423a","6617fad957f7c6a12ea16e26","6622cfa57f97d0d40de009fa","
        <div id=""grid-container"">
        <!-- Grid items will be dynamically added here -->
    </div>    ","null","","","","","","","","","","","",""
"","852","html-keyboard-response","155","165132","0.0-11.0-2.21","u2F1qKzwCL","605b800261a3587647dc423a","6617fad957f7c6a12ea16e26","6622cfa57f97d0d40de009fa","mask grid","p","","","","","Phylogenetic_Distractor_Nonthreat_target","800","onmask","p","9","Phylogenetic","true","experimental"
"","null","html-keyboard-response","156","165836","0.0-11.0-0.22","u2F1qKzwCL","605b800261a3587647dc423a","6617fad957f7c6a12ea16e26","6622cfa57f97d0d40de009fa","fixation cross","null","","","","","","","","","","","",""
"","752","html-keyboard-response","157","166589","0.0-11.0-1.22","u2F1qKzwCL","605b800261a3587647dc423a","6617fad957f7c6a12ea16e26","6622cfa57f97d0d40de009fa","image grid","q","","","","","Phylogenetic_Distractor_Threat_target","800","ongrid","q","1","Phylogenetic","true","experimental"
"","null","html-keyboard-response","158","166749","0.0-11.0-2.22","u2F1qKzwCL","605b800261a3587647dc423a","6617fad957f7c6a12ea16e26","6622cfa57f97d0d40de009fa","
    <div id=""grid-container"">
        <!-- Grid items will be dynamically added here -->
    </div>    ","null","","","","","","","","","","","",""
"","null","html-keyboard-response","159","167466","0.0-11.0-0.23","u2F1qKzwCL","605b800261a3587647dc423a","6617fad957f7c6a12ea16e26","6622cfa57f97d0d40de009fa","fixation cross","null","","","","","","","","","","","",""
"","null","html-keyboard-response","160","168275","0.0-11.0-1.23","u2F1qKzwCL","605b800261a3587647dc423a","6617fad957f7c6a12ea16e26","6622cfa57f97d0d40de009fa","
        <div id=""grid-container"">
        <!-- Grid items will be dynamically added here -->
    </div>    ","null","","","","","","","","","","","",""
"","941","html-keyboard-response","161","168418","0.0-11.0-2.23","u2F1qKzwCL","605b800261a3587647dc423a","6617fad957f7c6a12ea16e26","6622cfa57f97d0d40de009fa","mask grid"," ","","","","","Phylogenetic_Distractor_Threat_target","800","onmask","q","5","Phylogenetic","false","experimental"
"","null","html-keyboard-response","162","169143","0.0-11.0-0.24","u2F1qKzwCL","605b800261a3587647dc423a","6617fad957f7c6a12ea16e26","6622cfa57f97d0d40de009fa","fixation cross","null","","","","","","","","","","","",""
"","null","html-keyboard-response","163","169950","0.0-11.0-1.24","u2F1qKzwCL","605b800261a3587647dc423a","6617fad957f7c6a12ea16e26","6622cfa57f97d0d40de009fa","
        <div id=""grid-container"">
        <!-- Grid items will be dynamically added here -->
    </div>    ","null","","","","","","","","","","","",""
"","1029","html-keyboard-response","164","170180","0.0-11.0-2.24","u2F1qKzwCL","605b800261a3587647dc423a","6617fad957f7c6a12ea16e26","6622cfa57f97d0d40de009fa","mask grid","p","","","","","Phylogenetic_Distractor_Nonthreat_target","800","onmask","p","3","Phylogenetic","true","experimental"
"","null","html-keyboard-response","165","170896","0.0-11.0-0.25","u2F1qKzwCL","605b800261a3587647dc423a","6617fad957f7c6a12ea16e26","6622cfa57f97d0d40de009fa","fixation cross","null","","","","","","","","","","","",""
"","null","html-keyboard-response","166","171701","0.0-11.0-1.25","u2F1qKzwCL","605b800261a3587647dc423a","6617fad957f7c6a12ea16e26","6622cfa57f97d0d40de009fa","
        <div id=""grid-container"">
        <!-- Grid items will be dynamically added here -->
    </div>    ","null","","","","","","","","","","","",""
"","1042","html-keyboard-response","167","171943","0.0-11.0-2.25","u2F1qKzwCL","605b800261a3587647dc423a","6617fad957f7c6a12ea16e26","6622cfa57f97d0d40de009fa","mask grid","p","","","","","Phylogenetic_Distractor_notarget","800","onmask"," ","7","Phylogenetic","false","experimental"
"","null","html-keyboard-response","168","172661","0.0-11.0-0.26","u2F1qKzwCL","605b800261a3587647dc423a","6617fad957f7c6a12ea16e26","6622cfa57f97d0d40de009fa","fixation cross","null","","","","","","","","","","","",""
"","755","html-keyboard-response","169","173417","0.0-11.0-1.26","u2F1qKzwCL","605b800261a3587647dc423a","6617fad957f7c6a12ea16e26","6622cfa57f97d0d40de009fa","image grid","q","","","","","Phylogenetic_Distractor_Threat_target","800","ongrid","q","7","Phylogenetic","true","experimental"
"","null","html-keyboard-response","170","173575","0.0-11.0-2.26","u2F1qKzwCL","605b800261a3587647dc423a","6617fad957f7c6a12ea16e26","6622cfa57f97d0d40de009fa","
    <div id=""grid-container"">
        <!-- Grid items will be dynamically added here -->
    </div>    ","null","","","","","","","","","","","",""
"","null","html-keyboard-response","171","174289","0.0-11.0-0.27","u2F1qKzwCL","605b800261a3587647dc423a","6617fad957f7c6a12ea16e26","6622cfa57f97d0d40de009fa","fixation cross","null","","","","","","","","","","","",""
"","null","html-keyboard-response","172","175091","0.0-11.0-1.27","u2F1qKzwCL","605b800261a3587647dc423a","6617fad957f7c6a12ea16e26","6622cfa57f97d0d40de009fa","
        <div id=""grid-container"">
        <!-- Grid items will be dynamically added here -->
    </div>    ","null","","","","","","","","","","","",""
"","875","html-keyboard-response","173","175167","0.0-11.0-2.27","u2F1qKzwCL","605b800261a3587647dc423a","6617fad957f7c6a12ea16e26","6622cfa57f97d0d40de009fa","mask grid"," ","","","","","Phylogenetic_Distractor_Threat_target","800","onmask","q","3","Phylogenetic","false","experimental"
"","null","html-keyboard-response","174","175877","0.0-11.0-0.28","u2F1qKzwCL","605b800261a3587647dc423a","6617fad957f7c6a12ea16e26","6622cfa57f97d0d40de009fa","fixation cross","null","","","","","","","","","","","",""
"","null","html-keyboard-response","175","176681","0.0-11.0-1.28","u2F1qKzwCL","605b800261a3587647dc423a","6617fad957f7c6a12ea16e26","6622cfa57f97d0d40de009fa","
        <div id=""grid-container"">
        <!-- Grid items will be dynamically added here -->
    </div>    ","null","","","","","","","","","","","",""
"","827","html-keyboard-response","176","176709","0.0-11.0-2.28","u2F1qKzwCL","605b800261a3587647dc423a","6617fad957f7c6a12ea16e26","6622cfa57f97d0d40de009fa","mask grid","q","","","","","Phylogenetic_Distractor_Threat_target","800","onmask","q","2","Phylogenetic","true","experimental"
"","null","html-keyboard-response","177","177422","0.0-11.0-0.29","u2F1qKzwCL","605b800261a3587647dc423a","6617fad957f7c6a12ea16e26","6622cfa57f97d0d40de009fa","fixation cross","null","","","","","","","","","","","",""
"","796","html-keyboard-response","178","178220","0.0-11.0-1.29","u2F1qKzwCL","605b800261a3587647dc423a","6617fad957f7c6a12ea16e26","6622cfa57f97d0d40de009fa","image grid"," ","","","","","Phylogenetic_Distractor_Nonthreat_target","800","ongrid","p","4","Phylogenetic","false","experimental"
"","94","html-keyboard-response","179","178381","0.0-11.0-2.29","u2F1qKzwCL","605b800261a3587647dc423a","6617fad957f7c6a12ea16e26","6622cfa57f97d0d40de009fa","
    <div id=""grid-container"">
        <!-- Grid items will be dynamically added here -->
    </div>    ","p","","","","","","","","","","","",""
"","null","html-keyboard-response","180","179108","0.0-11.0-0.30","u2F1qKzwCL","605b800261a3587647dc423a","6617fad957f7c6a12ea16e26","6622cfa57f97d0d40de009fa","fixation cross","null","","","","","","","","","","","",""
"","657","html-keyboard-response","181","179766","0.0-11.0-1.30","u2F1qKzwCL","605b800261a3587647dc423a","6617fad957f7c6a12ea16e26","6622cfa57f97d0d40de009fa","image grid","q","","","","","Phylogenetic_Distractor_Threat_target","800","ongrid","q","1","Phylogenetic","true","experimental"
"","null","html-keyboard-response","182","179929","0.0-11.0-2.30","u2F1qKzwCL","605b800261a3587647dc423a","6617fad957f7c6a12ea16e26","6622cfa57f97d0d40de009fa","
    <div id=""grid-container"">
        <!-- Grid items will be dynamically added here -->
    </div>    ","null","","","","","","","","","","","",""
"","null","html-keyboard-response","183","180641","0.0-11.0-0.31","u2F1qKzwCL","605b800261a3587647dc423a","6617fad957f7c6a12ea16e26","6622cfa57f97d0d40de009fa","fixation cross","null","","","","","","","","","","","",""
"","null","html-keyboard-response","184","181448","0.0-11.0-1.31","u2F1qKzwCL","605b800261a3587647dc423a","6617fad957f7c6a12ea16e26","6622cfa57f97d0d40de009fa","
        <div id=""grid-container"">
        <!-- Grid items will be dynamically added here -->
    </div>    ","null","","","","","","","","","","","",""
"","870","html-keyboard-response","185","181519","0.0-11.0-2.31","u2F1qKzwCL","605b800261a3587647dc423a","6617fad957f7c6a12ea16e26","6622cfa57f97d0d40de009fa","mask grid"," ","","","","","Phylogenetic_Distractor_notarget","800","onmask"," ","6","Phylogenetic","true","experimental"
"","null","html-keyboard-response","186","182240","0.0-11.0-0.32","u2F1qKzwCL","605b800261a3587647dc423a","6617fad957f7c6a12ea16e26","6622cfa57f97d0d40de009fa","fixation cross","null","","","","","","","","","","","",""
"","null","html-keyboard-response","187","183046","0.0-11.0-1.32","u2F1qKzwCL","605b800261a3587647dc423a","6617fad957f7c6a12ea16e26","6622cfa57f97d0d40de009fa","
        <div id=""grid-container"">
        <!-- Grid items will be dynamically added here -->
    </div>    ","null","","","","","","","","","","","",""
"","851","html-keyboard-response","188","183097","0.0-11.0-2.32","u2F1qKzwCL","605b800261a3587647dc423a","6617fad957f7c6a12ea16e26","6622cfa57f97d0d40de009fa","mask grid"," ","","","","","Phylogenetic_Distractor_Threat_target","800","onmask","q","9","Phylogenetic","false","experimental"
"","null","html-keyboard-response","189","183808","0.0-11.0-0.33","u2F1qKzwCL","605b800261a3587647dc423a","6617fad957f7c6a12ea16e26","6622cfa57f97d0d40de009fa","fixation cross","null","","","","","","","","","","","",""
"","null","html-keyboard-response","190","184615","0.0-11.0-1.33","u2F1qKzwCL","605b800261a3587647dc423a","6617fad957f7c6a12ea16e26","6622cfa57f97d0d40de009fa","
        <div id=""grid-container"">
        <!-- Grid items will be dynamically added here -->
    </div>    ","null","","","","","","","","","","","",""
"","811","html-keyboard-response","191","184627","0.0-11.0-2.33","u2F1qKzwCL","605b800261a3587647dc423a","6617fad957f7c6a12ea16e26","6622cfa57f97d0d40de009fa","mask grid","p","","","","","Phylogenetic_Distractor_Threat_target","800","onmask","q","6","Phylogenetic","false","experimental"
"","null","html-keyboard-response","192","185330","0.0-11.0-0.34","u2F1qKzwCL","605b800261a3587647dc423a","6617fad957f7c6a12ea16e26","6622cfa57f97d0d40de009fa","fixation cross","null","","","","","","","","","","","",""
"","null","html-keyboard-response","193","186138","0.0-11.0-1.34","u2F1qKzwCL","605b800261a3587647dc423a","6617fad957f7c6a12ea16e26","6622cfa57f97d0d40de009fa","
        <div id=""grid-container"">
        <!-- Grid items will be dynamically added here -->
    </div>    ","null","","","","","","","","","","","",""
"","2884","html-keyboard-response","194","188223","0.0-11.0-2.34","u2F1qKzwCL","605b800261a3587647dc423a","6617fad957f7c6a12ea16e26","6622cfa57f97d0d40de009fa","mask grid"," ","","","","","Phylogenetic_Distractor_Threat_target","800","onmask","q","1","Phylogenetic","false","experimental"
"","null","html-keyboard-response","195","188941","0.0-11.0-0.35","u2F1qKzwCL","605b800261a3587647dc423a","6617fad957f7c6a12ea16e26","6622cfa57f97d0d40de009fa","fixation cross","null","","","","","","","","","","","",""
"","596","html-keyboard-response","196","189538","0.0-11.0-1.35","u2F1qKzwCL","605b800261a3587647dc423a","6617fad957f7c6a12ea16e26","6622cfa57f97d0d40de009fa","image grid","q","","","","","Phylogenetic_Distractor_Threat_target","800","ongrid","q","5","Phylogenetic","true","experimental"
"","null","html-keyboard-response","197","189703","0.0-11.0-2.35","u2F1qKzwCL","605b800261a3587647dc423a","6617fad957f7c6a12ea16e26","6622cfa57f97d0d40de009fa","
    <div id=""grid-container"">
        <!-- Grid items will be dynamically added here -->
    </div>    ","null","","","","","","","","","","","",""
"","null","html-keyboard-response","198","190432","0.0-11.0-0.36","u2F1qKzwCL","605b800261a3587647dc423a","6617fad957f7c6a12ea16e26","6622cfa57f97d0d40de009fa","fixation cross","null","","","","","","","","","","","",""
"","null","html-keyboard-response","199","191239","0.0-11.0-1.36","u2F1qKzwCL","605b800261a3587647dc423a","6617fad957f7c6a12ea16e26","6622cfa57f97d0d40de009fa","
        <div id=""grid-container"">
        <!-- Grid items will be dynamically added here -->
    </div>    ","null","","","","","","","","","","","",""
"","879","html-keyboard-response","200","191319","0.0-11.0-2.36","u2F1qKzwCL","605b800261a3587647dc423a","6617fad957f7c6a12ea16e26","6622cfa57f97d0d40de009fa","mask grid","p","","","","","Phylogenetic_Distractor_notarget","800","onmask"," ","9","Phylogenetic","false","experimental"
"","null","html-keyboard-response","201","192028","0.0-11.0-0.37","u2F1qKzwCL","605b800261a3587647dc423a","6617fad957f7c6a12ea16e26","6622cfa57f97d0d40de009fa","fixation cross","null","","","","","","","","","","","",""
"","751","html-keyboard-response","202","192781","0.0-11.0-1.37","u2F1qKzwCL","605b800261a3587647dc423a","6617fad957f7c6a12ea16e26","6622cfa57f97d0d40de009fa","image grid","p","","","","","Phylogenetic_Distractor_Nonthreat_target","800","ongrid","p","2","Phylogenetic","true","experimental"
"","null","html-keyboard-response","203","192942","0.0-11.0-2.37","u2F1qKzwCL","605b800261a3587647dc423a","6617fad957f7c6a12ea16e26","6622cfa57f97d0d40de009fa","
    <div id=""grid-container"">
        <!-- Grid items will be dynamically added here -->
    </div>    ","null","","","","","","","","","","","",""
"","null","html-keyboard-response","204","193667","0.0-11.0-0.38","u2F1qKzwCL","605b800261a3587647dc423a","6617fad957f7c6a12ea16e26","6622cfa57f97d0d40de009fa","fixation cross","null","","","","","","","","","","","",""
"","null","html-keyboard-response","205","194478","0.0-11.0-1.38","u2F1qKzwCL","605b800261a3587647dc423a","6617fad957f7c6a12ea16e26","6622cfa57f97d0d40de009fa","
        <div id=""grid-container"">
        <!-- Grid items will be dynamically added here -->
    </div>    ","null","","","","","","","","","","","",""
"","917","html-keyboard-response","206","194596","0.0-11.0-2.38","u2F1qKzwCL","605b800261a3587647dc423a","6617fad957f7c6a12ea16e26","6622cfa57f97d0d40de009fa","mask grid","p","","","","","Phylogenetic_Distractor_Nonthreat_target","800","onmask","p","7","Phylogenetic","true","experimental"
"","null","html-keyboard-response","207","195315","0.0-11.0-0.39","u2F1qKzwCL","605b800261a3587647dc423a","6617fad957f7c6a12ea16e26","6622cfa57f97d0d40de009fa","fixation cross","null","","","","","","","","","","","",""
"","null","html-keyboard-response","208","196122","0.0-11.0-1.39","u2F1qKzwCL","605b800261a3587647dc423a","6617fad957f7c6a12ea16e26","6622cfa57f97d0d40de009fa","
        <div id=""grid-container"">
        <!-- Grid items will be dynamically added here -->
    </div>    ","null","","","","","","","","","","","",""
"","977","html-keyboard-response","209","196300","0.0-11.0-2.39","u2F1qKzwCL","605b800261a3587647dc423a","6617fad957f7c6a12ea16e26","6622cfa57f97d0d40de009fa","mask grid","p","","","","","Phylogenetic_Distractor_Nonthreat_target","800","onmask","p","1","Phylogenetic","true","experimental"
"","10027","html-keyboard-response","210","206589","0.0-12.0","u2F1qKzwCL","605b800261a3587647dc423a","6617fad957f7c6a12ea16e26","6622cfa57f97d0d40de009fa","break screen"," ","","","","","","","","","","","",""
"","null","html-keyboard-response","211","209134","0.0-13.0-0.0","u2F1qKzwCL","605b800261a3587647dc423a","6617fad957f7c6a12ea16e26","6622cfa57f97d0d40de009fa","fixation cross","null","","","","","","","","","","","",""
"","null","html-keyboard-response","212","209938","0.0-13.0-1.0","u2F1qKzwCL","605b800261a3587647dc423a","6617fad957f7c6a12ea16e26","6622cfa57f97d0d40de009fa","
        <div id=""grid-container"">
        <!-- Grid items will be dynamically added here -->
    </div>    ","null","","","","","","","","","","","",""
"","818","html-keyboard-response","213","209957","0.0-13.0-2.0","u2F1qKzwCL","605b800261a3587647dc423a","6617fad957f7c6a12ea16e26","6622cfa57f97d0d40de009fa","mask grid","p","","","","","Phylogenetic_Distractor_Nonthreat_target","800","onmask","p","3","Phylogenetic","true","experimental"
"","null","html-keyboard-response","214","210683","0.0-13.0-0.1","u2F1qKzwCL","605b800261a3587647dc423a","6617fad957f7c6a12ea16e26","6622cfa57f97d0d40de009fa","fixation cross","null","","","","","","","","","","","",""
"","null","html-keyboard-response","215","211486","0.0-13.0-1.1","u2F1qKzwCL","605b800261a3587647dc423a","6617fad957f7c6a12ea16e26","6622cfa57f97d0d40de009fa","
        <div id=""grid-container"">
        <!-- Grid items will be dynamically added here -->
    </div>    ","null","","","","","","","","","","","",""
"","842","html-keyboard-response","216","211529","0.0-13.0-2.1","u2F1qKzwCL","605b800261a3587647dc423a","6617fad957f7c6a12ea16e26","6622cfa57f97d0d40de009fa","mask grid"," ","","","","","Phylogenetic_Distractor_Threat_target","800","onmask","q","4","Phylogenetic","false","experimental"
"","null","html-keyboard-response","217","212246","0.0-13.0-0.2","u2F1qKzwCL","605b800261a3587647dc423a","6617fad957f7c6a12ea16e26","6622cfa57f97d0d40de009fa","fixation cross","null","","","","","","","","","","","",""
"","774","html-keyboard-response","218","213021","0.0-13.0-1.2","u2F1qKzwCL","605b800261a3587647dc423a","6617fad957f7c6a12ea16e26","6622cfa57f97d0d40de009fa","image grid","p","","","","","Phylogenetic_Distractor_Nonthreat_target","800","ongrid","p","1","Phylogenetic","true","experimental"
"","null","html-keyboard-response","219","213177","0.0-13.0-2.2","u2F1qKzwCL","605b800261a3587647dc423a","6617fad957f7c6a12ea16e26","6622cfa57f97d0d40de009fa","
    <div id=""grid-container"">
        <!-- Grid items will be dynamically added here -->
    </div>    ","null","","","","","","","","","","","",""
"","null","html-keyboard-response","220","213893","0.0-13.0-0.3","u2F1qKzwCL","605b800261a3587647dc423a","6617fad957f7c6a12ea16e26","6622cfa57f97d0d40de009fa","fixation cross","null","","","","","","","","","","","",""
"","null","html-keyboard-response","221","214700","0.0-13.0-1.3","u2F1qKzwCL","605b800261a3587647dc423a","6617fad957f7c6a12ea16e26","6622cfa57f97d0d40de009fa","
        <div id=""grid-container"">
        <!-- Grid items will be dynamically added here -->
    </div>    ","null","","","","","","","","","","","",""
"","979","html-keyboard-response","222","214880","0.0-13.0-2.3","u2F1qKzwCL","605b800261a3587647dc423a","6617fad957f7c6a12ea16e26","6622cfa57f97d0d40de009fa","mask grid"," ","","","","","Phylogenetic_Distractor_Threat_target","800","onmask","q","7","Phylogenetic","false","experimental"
"","null","html-keyboard-response","223","215605","0.0-13.0-0.4","u2F1qKzwCL","605b800261a3587647dc423a","6617fad957f7c6a12ea16e26","6622cfa57f97d0d40de009fa","fixation cross","null","","","","","","","","","","","",""
"","null","html-keyboard-response","224","216411","0.0-13.0-1.4","u2F1qKzwCL","605b800261a3587647dc423a","6617fad957f7c6a12ea16e26","6622cfa57f97d0d40de009fa","
        <div id=""grid-container"">
        <!-- Grid items will be dynamically added here -->
    </div>    ","null","","","","","","","","","","","",""
"","860","html-keyboard-response","225","216472","0.0-13.0-2.4","u2F1qKzwCL","605b800261a3587647dc423a","6617fad957f7c6a12ea16e26","6622cfa57f97d0d40de009fa","mask grid","q","","","","","Phylogenetic_Distractor_Threat_target","800","onmask","q","5","Phylogenetic","true","experimental"
"","null","html-keyboard-response","226","217187","0.0-13.0-0.5","u2F1qKzwCL","605b800261a3587647dc423a","6617fad957f7c6a12ea16e26","6622cfa57f97d0d40de009fa","fixation cross","null","","","","","","","","","","","",""
"","803","html-keyboard-response","227","217990","0.0-13.0-1.5","u2F1qKzwCL","605b800261a3587647dc423a","6617fad957f7c6a12ea16e26","6622cfa57f97d0d40de009fa","image grid"," ","","","","","Phylogenetic_Distractor_Nonthreat_target","800","ongrid","p","4","Phylogenetic","false","experimental"
"","null","html-keyboard-response","228","218149","0.0-13.0-2.5","u2F1qKzwCL","605b800261a3587647dc423a","6617fad957f7c6a12ea16e26","6622cfa57f97d0d40de009fa","
    <div id=""grid-container"">
        <!-- Grid items will be dynamically added here -->
    </div>    ","null","","","","","","","","","","","",""
"","null","html-keyboard-response","229","218855","0.0-13.0-0.6","u2F1qKzwCL","605b800261a3587647dc423a","6617fad957f7c6a12ea16e26","6622cfa57f97d0d40de009fa","fixation cross","null","","","","","","","","","","","",""
"","null","html-keyboard-response","230","219662","0.0-13.0-1.6","u2F1qKzwCL","605b800261a3587647dc423a","6617fad957f7c6a12ea16e26","6622cfa57f97d0d40de009fa","
        <div id=""grid-container"">
        <!-- Grid items will be dynamically added here -->
    </div>    ","null","","","","","","","","","","","",""
"","1363","html-keyboard-response","231","220226","0.0-13.0-2.6","u2F1qKzwCL","605b800261a3587647dc423a","6617fad957f7c6a12ea16e26","6622cfa57f97d0d40de009fa","mask grid","q","","","","","Phylogenetic_Distractor_Threat_target","800","onmask","q","6","Phylogenetic","true","experimental"
"","null","html-keyboard-response","232","220935","0.0-13.0-0.7","u2F1qKzwCL","605b800261a3587647dc423a","6617fad957f7c6a12ea16e26","6622cfa57f97d0d40de009fa","fixation cross","null","","","","","","","","","","","",""
"","null","html-keyboard-response","233","221743","0.0-13.0-1.7","u2F1qKzwCL","605b800261a3587647dc423a","6617fad957f7c6a12ea16e26","6622cfa57f97d0d40de009fa","
        <div id=""grid-container"">
        <!-- Grid items will be dynamically added here -->
    </div>    ","null","","","","","","","","","","","",""
"","1421","html-keyboard-response","234","222365","0.0-13.0-2.7","u2F1qKzwCL","605b800261a3587647dc423a","6617fad957f7c6a12ea16e26","6622cfa57f97d0d40de009fa","mask grid","q","","","","","Phylogenetic_Distractor_Threat_target","800","onmask","q","7","Phylogenetic","true","experimental"
"","null","html-keyboard-response","235","223078","0.0-13.0-0.8","u2F1qKzwCL","605b800261a3587647dc423a","6617fad957f7c6a12ea16e26","6622cfa57f97d0d40de009fa","fixation cross","null","","","","","","","","","","","",""
"","null","html-keyboard-response","236","223885","0.0-13.0-1.8","u2F1qKzwCL","605b800261a3587647dc423a","6617fad957f7c6a12ea16e26","6622cfa57f97d0d40de009fa","
        <div id=""grid-container"">
        <!-- Grid items will be dynamically added here -->
    </div>    ","null","","","","","","","","","","","",""
"","906","html-keyboard-response","237","223992","0.0-13.0-2.8","u2F1qKzwCL","605b800261a3587647dc423a","6617fad957f7c6a12ea16e26","6622cfa57f97d0d40de009fa","mask grid","p","","","","","Phylogenetic_Distractor_Nonthreat_target","800","onmask","p","7","Phylogenetic","true","experimental"
"","null","html-keyboard-response","238","224706","0.0-13.0-0.9","u2F1qKzwCL","605b800261a3587647dc423a","6617fad957f7c6a12ea16e26","6622cfa57f97d0d40de009fa","fixation cross","null","","","","","","","","","","","",""
"","null","html-keyboard-response","239","225522","0.0-13.0-1.9","u2F1qKzwCL","605b800261a3587647dc423a","6617fad957f7c6a12ea16e26","6622cfa57f97d0d40de009fa","
        <div id=""grid-container"">
        <!-- Grid items will be dynamically added here -->
    </div>    ","null","","","","","","","","","","","",""
"","1023","html-keyboard-response","240","225746","0.0-13.0-2.9","u2F1qKzwCL","605b800261a3587647dc423a","6617fad957f7c6a12ea16e26","6622cfa57f97d0d40de009fa","mask grid","p","","","","","Phylogenetic_Distractor_Nonthreat_target","800","onmask","p","2","Phylogenetic","true","experimental"
"","null","html-keyboard-response","241","226465","0.0-13.0-0.10","u2F1qKzwCL","605b800261a3587647dc423a","6617fad957f7c6a12ea16e26","6622cfa57f97d0d40de009fa","fixation cross","null","","","","","","","","","","","",""
"","null","html-keyboard-response","242","227273","0.0-13.0-1.10","u2F1qKzwCL","605b800261a3587647dc423a","6617fad957f7c6a12ea16e26","6622cfa57f97d0d40de009fa","
        <div id=""grid-container"">
        <!-- Grid items will be dynamically added here -->
    </div>    ","null","","","","","","","","","","","",""
"","997","html-keyboard-response","243","227471","0.0-13.0-2.10","u2F1qKzwCL","605b800261a3587647dc423a","6617fad957f7c6a12ea16e26","6622cfa57f97d0d40de009fa","mask grid","q","","","","","Phylogenetic_Distractor_Threat_target","800","onmask","q","3","Phylogenetic","true","experimental"
"","null","html-keyboard-response","244","228188","0.0-13.0-0.11","u2F1qKzwCL","605b800261a3587647dc423a","6617fad957f7c6a12ea16e26","6622cfa57f97d0d40de009fa","fixation cross","null","","","","","","","","","","","",""
"","716","html-keyboard-response","245","228905","0.0-13.0-1.11","u2F1qKzwCL","605b800261a3587647dc423a","6617fad957f7c6a12ea16e26","6622cfa57f97d0d40de009fa","image grid","q","","","","","Phylogenetic_Distractor_Threat_target","800","ongrid","q","7","Phylogenetic","true","experimental"
"","null","html-keyboard-response","246","229069","0.0-13.0-2.11","u2F1qKzwCL","605b800261a3587647dc423a","6617fad957f7c6a12ea16e26","6622cfa57f97d0d40de009fa","
    <div id=""grid-container"">
        <!-- Grid items will be dynamically added here -->
    </div>    ","null","","","","","","","","","","","",""
"","null","html-keyboard-response","247","229786","0.0-13.0-0.12","u2F1qKzwCL","605b800261a3587647dc423a","6617fad957f7c6a12ea16e26","6622cfa57f97d0d40de009fa","fixation cross","null","","","","","","","","","","","",""
"","674","html-keyboard-response","248","230461","0.0-13.0-1.12","u2F1qKzwCL","605b800261a3587647dc423a","6617fad957f7c6a12ea16e26","6622cfa57f97d0d40de009fa","image grid","q","","","","","Phylogenetic_Distractor_Threat_target","800","ongrid","q","8","Phylogenetic","true","experimental"
"","null","html-keyboard-response","249","230626","0.0-13.0-2.12","u2F1qKzwCL","605b800261a3587647dc423a","6617fad957f7c6a12ea16e26","6622cfa57f97d0d40de009fa","
    <div id=""grid-container"">
        <!-- Grid items will be dynamically added here -->
    </div>    ","null","","","","","","","","","","","",""
"","null","html-keyboard-response","250","231353","0.0-13.0-0.13","u2F1qKzwCL","605b800261a3587647dc423a","6617fad957f7c6a12ea16e26","6622cfa57f97d0d40de009fa","fixation cross","null","","","","","","","","","","","",""
"","751","html-keyboard-response","251","232105","0.0-13.0-1.13","u2F1qKzwCL","605b800261a3587647dc423a","6617fad957f7c6a12ea16e26","6622cfa57f97d0d40de009fa","image grid","q","","","","","Phylogenetic_Distractor_Threat_target","800","ongrid","q","2","Phylogenetic","true","experimental"
"","null","html-keyboard-response","252","232262","0.0-13.0-2.13","u2F1qKzwCL","605b800261a3587647dc423a","6617fad957f7c6a12ea16e26","6622cfa57f97d0d40de009fa","
    <div id=""grid-container"">
        <!-- Grid items will be dynamically added here -->
    </div>    ","null","","","","","","","","","","","",""
"","null","html-keyboard-response","253","232979","0.0-13.0-0.14","u2F1qKzwCL","605b800261a3587647dc423a","6617fad957f7c6a12ea16e26","6622cfa57f97d0d40de009fa","fixation cross","null","","","","","","","","","","","",""
"","784","html-keyboard-response","254","233764","0.0-13.0-1.14","u2F1qKzwCL","605b800261a3587647dc423a","6617fad957f7c6a12ea16e26","6622cfa57f97d0d40de009fa","image grid","p","","","","","Phylogenetic_Distractor_Nonthreat_target","800","ongrid","p","8","Phylogenetic","true","experimental"
"","null","html-keyboard-response","255","233928","0.0-13.0-2.14","u2F1qKzwCL","605b800261a3587647dc423a","6617fad957f7c6a12ea16e26","6622cfa57f97d0d40de009fa","
    <div id=""grid-container"">
        <!-- Grid items will be dynamically added here -->
    </div>    ","null","","","","","","","","","","","",""
"","null","html-keyboard-response","256","234641","0.0-13.0-0.15","u2F1qKzwCL","605b800261a3587647dc423a","6617fad957f7c6a12ea16e26","6622cfa57f97d0d40de009fa","fixation cross","null","","","","","","","","","","","",""
"","null","html-keyboard-response","257","235448","0.0-13.0-1.15","u2F1qKzwCL","605b800261a3587647dc423a","6617fad957f7c6a12ea16e26","6622cfa57f97d0d40de009fa","
        <div id=""grid-container"">
        <!-- Grid items will be dynamically added here -->
    </div>    ","null","","","","","","","","","","","",""
"","1014","html-keyboard-response","258","235663","0.0-13.0-2.15","u2F1qKzwCL","605b800261a3587647dc423a","6617fad957f7c6a12ea16e26","6622cfa57f97d0d40de009fa","mask grid"," ","","","","","Phylogenetic_Distractor_notarget","800","onmask"," ","6","Phylogenetic","true","experimental"
"","null","html-keyboard-response","259","236381","0.0-13.0-0.16","u2F1qKzwCL","605b800261a3587647dc423a","6617fad957f7c6a12ea16e26","6622cfa57f97d0d40de009fa","fixation cross","null","","","","","","","","","","","",""
"","749","html-keyboard-response","260","237131","0.0-13.0-1.16","u2F1qKzwCL","605b800261a3587647dc423a","6617fad957f7c6a12ea16e26","6622cfa57f97d0d40de009fa","image grid","q","","","","","Phylogenetic_Distractor_Threat_target","800","ongrid","q","7","Phylogenetic","true","experimental"
"","null","html-keyboard-response","261","237296","0.0-13.0-2.16","u2F1qKzwCL","605b800261a3587647dc423a","6617fad957f7c6a12ea16e26","6622cfa57f97d0d40de009fa","
    <div id=""grid-container"">
        <!-- Grid items will be dynamically added here -->
    </div>    ","null","","","","","","","","","","","",""
"","null","html-keyboard-response","262","238008","0.0-13.0-0.17","u2F1qKzwCL","605b800261a3587647dc423a","6617fad957f7c6a12ea16e26","6622cfa57f97d0d40de009fa","fixation cross","null","","","","","","","","","","","",""
"","null","html-keyboard-response","263","238810","0.0-13.0-1.17","u2F1qKzwCL","605b800261a3587647dc423a","6617fad957f7c6a12ea16e26","6622cfa57f97d0d40de009fa","
        <div id=""grid-container"">
        <!-- Grid items will be dynamically added here -->
    </div>    ","null","","","","","","","","","","","",""
"","887","html-keyboard-response","264","238898","0.0-13.0-2.17","u2F1qKzwCL","605b800261a3587647dc423a","6617fad957f7c6a12ea16e26","6622cfa57f97d0d40de009fa","mask grid","p","","","","","Phylogenetic_Distractor_Threat_target","800","onmask","q","7","Phylogenetic","false","experimental"
"","null","html-keyboard-response","265","239619","0.0-13.0-0.18","u2F1qKzwCL","605b800261a3587647dc423a","6617fad957f7c6a12ea16e26","6622cfa57f97d0d40de009fa","fixation cross","null","","","","","","","","","","","",""
"","null","html-keyboard-response","266","240425","0.0-13.0-1.18","u2F1qKzwCL","605b800261a3587647dc423a","6617fad957f7c6a12ea16e26","6622cfa57f97d0d40de009fa","
        <div id=""grid-container"">
        <!-- Grid items will be dynamically added here -->
    </div>    ","null","","","","","","","","","","","",""
"","1014","html-keyboard-response","267","240639","0.0-13.0-2.18","u2F1qKzwCL","605b800261a3587647dc423a","6617fad957f7c6a12ea16e26","6622cfa57f97d0d40de009fa","mask grid"," ","","","","","Phylogenetic_Distractor_notarget","800","onmask"," ","8","Phylogenetic","true","experimental"
"","null","html-keyboard-response","268","241356","0.0-13.0-0.19","u2F1qKzwCL","605b800261a3587647dc423a","6617fad957f7c6a12ea16e26","6622cfa57f97d0d40de009fa","fixation cross","null","","","","","","","","","","","",""
"","null","html-keyboard-response","269","242161","0.0-13.0-1.19","u2F1qKzwCL","605b800261a3587647dc423a","6617fad957f7c6a12ea16e26","6622cfa57f97d0d40de009fa","
        <div id=""grid-container"">
        <!-- Grid items will be dynamically added here -->
    </div>    ","null","","","","","","","","","","","",""
"","1007","html-keyboard-response","270","242368","0.0-13.0-2.19","u2F1qKzwCL","605b800261a3587647dc423a","6617fad957f7c6a12ea16e26","6622cfa57f97d0d40de009fa","mask grid","p","","","","","Phylogenetic_Distractor_Nonthreat_target","800","onmask","p","9","Phylogenetic","true","experimental"
"","null","html-keyboard-response","271","243075","0.0-13.0-0.20","u2F1qKzwCL","605b800261a3587647dc423a","6617fad957f7c6a12ea16e26","6622cfa57f97d0d40de009fa","fixation cross","null","","","","","","","","","","","",""
"","null","html-keyboard-response","272","243884","0.0-13.0-1.20","u2F1qKzwCL","605b800261a3587647dc423a","6617fad957f7c6a12ea16e26","6622cfa57f97d0d40de009fa","
        <div id=""grid-container"">
        <!-- Grid items will be dynamically added here -->
    </div>    ","null","","","","","","","","","","","",""
"","1034","html-keyboard-response","273","244119","0.0-13.0-2.20","u2F1qKzwCL","605b800261a3587647dc423a","6617fad957f7c6a12ea16e26","6622cfa57f97d0d40de009fa","mask grid","q","","","","","Phylogenetic_Distractor_Threat_target","800","onmask","q","1","Phylogenetic","true","experimental"
"","null","html-keyboard-response","274","244849","0.0-13.0-0.21","u2F1qKzwCL","605b800261a3587647dc423a","6617fad957f7c6a12ea16e26","6622cfa57f97d0d40de009fa","fixation cross","null","","","","","","","","","","","",""
"","767","html-keyboard-response","275","245617","0.0-13.0-1.21","u2F1qKzwCL","605b800261a3587647dc423a","6617fad957f7c6a12ea16e26","6622cfa57f97d0d40de009fa","image grid","p","","","","","Phylogenetic_Distractor_Nonthreat_target","800","ongrid","p","4","Phylogenetic","true","experimental"
"","null","html-keyboard-response","276","245781","0.0-13.0-2.21","u2F1qKzwCL","605b800261a3587647dc423a","6617fad957f7c6a12ea16e26","6622cfa57f97d0d40de009fa","
    <div id=""grid-container"">
        <!-- Grid items will be dynamically added here -->
    </div>    ","null","","","","","","","","","","","",""
"","null","html-keyboard-response","277","246495","0.0-13.0-0.22","u2F1qKzwCL","605b800261a3587647dc423a","6617fad957f7c6a12ea16e26","6622cfa57f97d0d40de009fa","fixation cross","null","","","","","","","","","","","",""
"","757","html-keyboard-response","278","247253","0.0-13.0-1.22","u2F1qKzwCL","605b800261a3587647dc423a","6617fad957f7c6a12ea16e26","6622cfa57f97d0d40de009fa","image grid","q","","","","","Phylogenetic_Distractor_Threat_target","800","ongrid","q","9","Phylogenetic","true","experimental"
"","null","html-keyboard-response","279","247416","0.0-13.0-2.22","u2F1qKzwCL","605b800261a3587647dc423a","6617fad957f7c6a12ea16e26","6622cfa57f97d0d40de009fa","
    <div id=""grid-container"">
        <!-- Grid items will be dynamically added here -->
    </div>    ","null","","","","","","","","","","","",""
"","null","html-keyboard-response","280","248130","0.0-13.0-0.23","u2F1qKzwCL","605b800261a3587647dc423a","6617fad957f7c6a12ea16e26","6622cfa57f97d0d40de009fa","fixation cross","null","","","","","","","","","","","",""
"","null","html-keyboard-response","281","248939","0.0-13.0-1.23","u2F1qKzwCL","605b800261a3587647dc423a","6617fad957f7c6a12ea16e26","6622cfa57f97d0d40de009fa","
        <div id=""grid-container"">
        <!-- Grid items will be dynamically added here -->
    </div>    ","null","","","","","","","","","","","",""
"","1197","html-keyboard-response","282","249336","0.0-13.0-2.23","u2F1qKzwCL","605b800261a3587647dc423a","6617fad957f7c6a12ea16e26","6622cfa57f97d0d40de009fa","mask grid","p","","","","","Phylogenetic_Distractor_Nonthreat_target","800","onmask","p","9","Phylogenetic","true","experimental"
"","null","html-keyboard-response","283","250049","0.0-13.0-0.24","u2F1qKzwCL","605b800261a3587647dc423a","6617fad957f7c6a12ea16e26","6622cfa57f97d0d40de009fa","fixation cross","null","","","","","","","","","","","",""
"","null","html-keyboard-response","284","250854","0.0-13.0-1.24","u2F1qKzwCL","605b800261a3587647dc423a","6617fad957f7c6a12ea16e26","6622cfa57f97d0d40de009fa","
        <div id=""grid-container"">
        <!-- Grid items will be dynamically added here -->
    </div>    ","null","","","","","","","","","","","",""
"","1143","html-keyboard-response","285","251198","0.0-13.0-2.24","u2F1qKzwCL","605b800261a3587647dc423a","6617fad957f7c6a12ea16e26","6622cfa57f97d0d40de009fa","mask grid","p","","","","","Phylogenetic_Distractor_Nonthreat_target","800","onmask","p","2","Phylogenetic","true","experimental"
"","null","html-keyboard-response","286","251907","0.0-13.0-0.25","u2F1qKzwCL","605b800261a3587647dc423a","6617fad957f7c6a12ea16e26","6622cfa57f97d0d40de009fa","fixation cross","null","","","","","","","","","","","",""
"","null","html-keyboard-response","287","252713","0.0-13.0-1.25","u2F1qKzwCL","605b800261a3587647dc423a","6617fad957f7c6a12ea16e26","6622cfa57f97d0d40de009fa","
        <div id=""grid-container"">
        <!-- Grid items will be dynamically added here -->
    </div>    ","null","","","","","","","","","","","",""
"","1029","html-keyboard-response","288","252943","0.0-13.0-2.25","u2F1qKzwCL","605b800261a3587647dc423a","6617fad957f7c6a12ea16e26","6622cfa57f97d0d40de009fa","mask grid","p","","","","","Phylogenetic_Distractor_Nonthreat_target","800","onmask","p","7","Phylogenetic","true","experimental"
"","null","html-keyboard-response","289","253661","0.0-13.0-0.26","u2F1qKzwCL","605b800261a3587647dc423a","6617fad957f7c6a12ea16e26","6622cfa57f97d0d40de009fa","fixation cross","null","","","","","","","","","","","",""
"","665","html-keyboard-response","290","254327","0.0-13.0-1.26","u2F1qKzwCL","605b800261a3587647dc423a","6617fad957f7c6a12ea16e26","6622cfa57f97d0d40de009fa","image grid","q","","","","","Phylogenetic_Distractor_Threat_target","800","ongrid","q","4","Phylogenetic","true","experimental"
"","null","html-keyboard-response","291","254487","0.0-13.0-2.26","u2F1qKzwCL","605b800261a3587647dc423a","6617fad957f7c6a12ea16e26","6622cfa57f97d0d40de009fa","
    <div id=""grid-container"">
        <!-- Grid items will be dynamically added here -->
    </div>    ","null","","","","","","","","","","","",""
"","null","html-keyboard-response","292","255202","0.0-13.0-0.27","u2F1qKzwCL","605b800261a3587647dc423a","6617fad957f7c6a12ea16e26","6622cfa57f97d0d40de009fa","fixation cross","null","","","","","","","","","","","",""
"","null","html-keyboard-response","293","256011","0.0-13.0-1.27","u2F1qKzwCL","605b800261a3587647dc423a","6617fad957f7c6a12ea16e26","6622cfa57f97d0d40de009fa","
        <div id=""grid-container"">
        <!-- Grid items will be dynamically added here -->
    </div>    ","null","","","","","","","","","","","",""
"","845","html-keyboard-response","294","256057","0.0-13.0-2.27","u2F1qKzwCL","605b800261a3587647dc423a","6617fad957f7c6a12ea16e26","6622cfa57f97d0d40de009fa","mask grid","q","","","","","Phylogenetic_Distractor_Nonthreat_target","800","onmask","p","2","Phylogenetic","false","experimental"
"","null","html-keyboard-response","295","256770","0.0-13.0-0.28","u2F1qKzwCL","605b800261a3587647dc423a","6617fad957f7c6a12ea16e26","6622cfa57f97d0d40de009fa","fixation cross","null","","","","","","","","","","","",""
"","null","html-keyboard-response","296","257577","0.0-13.0-1.28","u2F1qKzwCL","605b800261a3587647dc423a","6617fad957f7c6a12ea16e26","6622cfa57f97d0d40de009fa","
        <div id=""grid-container"">
        <!-- Grid items will be dynamically added here -->
    </div>    ","null","","","","","","","","","","","",""
"","1055","html-keyboard-response","297","257833","0.0-13.0-2.28","u2F1qKzwCL","605b800261a3587647dc423a","6617fad957f7c6a12ea16e26","6622cfa57f97d0d40de009fa","mask grid","q","","","","","Phylogenetic_Distractor_Nonthreat_target","800","onmask","p","8","Phylogenetic","false","experimental"
"","null","html-keyboard-response","298","258556","0.0-13.0-0.29","u2F1qKzwCL","605b800261a3587647dc423a","6617fad957f7c6a12ea16e26","6622cfa57f97d0d40de009fa","fixation cross","null","","","","","","","","","","","",""
"","null","html-keyboard-response","299","259362","0.0-13.0-1.29","u2F1qKzwCL","605b800261a3587647dc423a","6617fad957f7c6a12ea16e26","6622cfa57f97d0d40de009fa","
        <div id=""grid-container"">
        <!-- Grid items will be dynamically added here -->
    </div>    ","null","","","","","","","","","","","",""
"","1042","html-keyboard-response","300","259605","0.0-13.0-2.29","u2F1qKzwCL","605b800261a3587647dc423a","6617fad957f7c6a12ea16e26","6622cfa57f97d0d40de009fa","mask grid"," ","","","","","Phylogenetic_Distractor_notarget","800","onmask"," ","9","Phylogenetic","true","experimental"
"","null","html-keyboard-response","301","260324","0.0-13.0-0.30","u2F1qKzwCL","605b800261a3587647dc423a","6617fad957f7c6a12ea16e26","6622cfa57f97d0d40de009fa","fixation cross","null","","","","","","","","","","","",""
"","null","html-keyboard-response","302","261126","0.0-13.0-1.30","u2F1qKzwCL","605b800261a3587647dc423a","6617fad957f7c6a12ea16e26","6622cfa57f97d0d40de009fa","
        <div id=""grid-container"">
        <!-- Grid items will be dynamically added here -->
    </div>    ","null","","","","","","","","","","","",""
"","875","html-keyboard-response","303","261202","0.0-13.0-2.30","u2F1qKzwCL","605b800261a3587647dc423a","6617fad957f7c6a12ea16e26","6622cfa57f97d0d40de009fa","mask grid","p","","","","","Phylogenetic_Distractor_Nonthreat_target","800","onmask","p","7","Phylogenetic","true","experimental"
"","null","html-keyboard-response","304","261906","0.0-13.0-0.31","u2F1qKzwCL","605b800261a3587647dc423a","6617fad957f7c6a12ea16e26","6622cfa57f97d0d40de009fa","fixation cross","null","","","","","","","","","","","",""
"","null","html-keyboard-response","305","262711","0.0-13.0-1.31","u2F1qKzwCL","605b800261a3587647dc423a","6617fad957f7c6a12ea16e26","6622cfa57f97d0d40de009fa","
        <div id=""grid-container"">
        <!-- Grid items will be dynamically added here -->
    </div>    ","null","","","","","","","","","","","",""
"","1002","html-keyboard-response","306","262914","0.0-13.0-2.31","u2F1qKzwCL","605b800261a3587647dc423a","6617fad957f7c6a12ea16e26","6622cfa57f97d0d40de009fa","mask grid","q","","","","","Phylogenetic_Distractor_Threat_target","800","onmask","q","2","Phylogenetic","true","experimental"
"","null","html-keyboard-response","307","263644","0.0-13.0-0.32","u2F1qKzwCL","605b800261a3587647dc423a","6617fad957f7c6a12ea16e26","6622cfa57f97d0d40de009fa","fixation cross","null","","","","","","","","","","","",""
"","null","html-keyboard-response","308","264450","0.0-13.0-1.32","u2F1qKzwCL","605b800261a3587647dc423a","6617fad957f7c6a12ea16e26","6622cfa57f97d0d40de009fa","
        <div id=""grid-container"">
        <!-- Grid items will be dynamically added here -->
    </div>    ","null","","","","","","","","","","","",""
"","1131","html-keyboard-response","309","264781","0.0-13.0-2.32","u2F1qKzwCL","605b800261a3587647dc423a","6617fad957f7c6a12ea16e26","6622cfa57f97d0d40de009fa","mask grid","p","","","","","Phylogenetic_Distractor_Nonthreat_target","800","onmask","p","5","Phylogenetic","true","experimental"
"","null","html-keyboard-response","310","265489","0.0-13.0-0.33","u2F1qKzwCL","605b800261a3587647dc423a","6617fad957f7c6a12ea16e26","6622cfa57f97d0d40de009fa","fixation cross","null","","","","","","","","","","","",""
"","689","html-keyboard-response","311","266179","0.0-13.0-1.33","u2F1qKzwCL","605b800261a3587647dc423a","6617fad957f7c6a12ea16e26","6622cfa57f97d0d40de009fa","image grid","q","","","","","Phylogenetic_Distractor_Threat_target","800","ongrid","q","5","Phylogenetic","true","experimental"
"","null","html-keyboard-response","312","266342","0.0-13.0-2.33","u2F1qKzwCL","605b800261a3587647dc423a","6617fad957f7c6a12ea16e26","6622cfa57f97d0d40de009fa","
    <div id=""grid-container"">
        <!-- Grid items will be dynamically added here -->
    </div>    ","null","","","","","","","","","","","",""
"","null","html-keyboard-response","313","267057","0.0-13.0-0.34","u2F1qKzwCL","605b800261a3587647dc423a","6617fad957f7c6a12ea16e26","6622cfa57f97d0d40de009fa","fixation cross","null","","","","","","","","","","","",""
"","null","html-keyboard-response","314","267868","0.0-13.0-1.34","u2F1qKzwCL","605b800261a3587647dc423a","6617fad957f7c6a12ea16e26","6622cfa57f97d0d40de009fa","
        <div id=""grid-container"">
        <!-- Grid items will be dynamically added here -->
    </div>    ","null","","","","","","","","","","","",""
"","1202","html-keyboard-response","315","268272","0.0-13.0-2.34","u2F1qKzwCL","605b800261a3587647dc423a","6617fad957f7c6a12ea16e26","6622cfa57f97d0d40de009fa","mask grid"," ","","","","","Phylogenetic_Distractor_notarget","800","onmask"," ","4","Phylogenetic","true","experimental"
"","null","html-keyboard-response","316","268983","0.0-13.0-0.35","u2F1qKzwCL","605b800261a3587647dc423a","6617fad957f7c6a12ea16e26","6622cfa57f97d0d40de009fa","fixation cross","null","","","","","","","","","","","",""
"","null","html-keyboard-response","317","269789","0.0-13.0-1.35","u2F1qKzwCL","605b800261a3587647dc423a","6617fad957f7c6a12ea16e26","6622cfa57f97d0d40de009fa","
        <div id=""grid-container"">
        <!-- Grid items will be dynamically added here -->
    </div>    ","null","","","","","","","","","","","",""
"","1134","html-keyboard-response","318","270124","0.0-13.0-2.35","u2F1qKzwCL","605b800261a3587647dc423a","6617fad957f7c6a12ea16e26","6622cfa57f97d0d40de009fa","mask grid","p","","","","","Phylogenetic_Distractor_Nonthreat_target","800","onmask","p","2","Phylogenetic","true","experimental"
"","null","html-keyboard-response","319","270828","0.0-13.0-0.36","u2F1qKzwCL","605b800261a3587647dc423a","6617fad957f7c6a12ea16e26","6622cfa57f97d0d40de009fa","fixation cross","null","","","","","","","","","","","",""
"","737","html-keyboard-response","320","271566","0.0-13.0-1.36","u2F1qKzwCL","605b800261a3587647dc423a","6617fad957f7c6a12ea16e26","6622cfa57f97d0d40de009fa","image grid","p","","","","","Phylogenetic_Distractor_Nonthreat_target","800","ongrid","p","8","Phylogenetic","true","experimental"
"","null","html-keyboard-response","321","271719","0.0-13.0-2.36","u2F1qKzwCL","605b800261a3587647dc423a","6617fad957f7c6a12ea16e26","6622cfa57f97d0d40de009fa","
    <div id=""grid-container"">
        <!-- Grid items will be dynamically added here -->
    </div>    ","null","","","","","","","","","","","",""
"","null","html-keyboard-response","322","272444","0.0-13.0-0.37","u2F1qKzwCL","605b800261a3587647dc423a","6617fad957f7c6a12ea16e26","6622cfa57f97d0d40de009fa","fixation cross","null","","","","","","","","","","","",""
"","738","html-keyboard-response","323","273183","0.0-13.0-1.37","u2F1qKzwCL","605b800261a3587647dc423a","6617fad957f7c6a12ea16e26","6622cfa57f97d0d40de009fa","image grid","q","","","","","Phylogenetic_Distractor_Threat_target","800","ongrid","q","9","Phylogenetic","true","experimental"
"","null","html-keyboard-response","324","273346","0.0-13.0-2.37","u2F1qKzwCL","605b800261a3587647dc423a","6617fad957f7c6a12ea16e26","6622cfa57f97d0d40de009fa","
    <div id=""grid-container"">
        <!-- Grid items will be dynamically added here -->
    </div>    ","null","","","","","","","","","","","",""
"","null","html-keyboard-response","325","274058","0.0-13.0-0.38","u2F1qKzwCL","605b800261a3587647dc423a","6617fad957f7c6a12ea16e26","6622cfa57f97d0d40de009fa","fixation cross","null","","","","","","","","","","","",""
"","null","html-keyboard-response","326","274867","0.0-13.0-1.38","u2F1qKzwCL","605b800261a3587647dc423a","6617fad957f7c6a12ea16e26","6622cfa57f97d0d40de009fa","
        <div id=""grid-container"">
        <!-- Grid items will be dynamically added here -->
    </div>    ","null","","","","","","","","","","","",""
"","1027","html-keyboard-response","327","275094","0.0-13.0-2.38","u2F1qKzwCL","605b800261a3587647dc423a","6617fad957f7c6a12ea16e26","6622cfa57f97d0d40de009fa","mask grid"," ","","","","","Phylogenetic_Distractor_Threat_target","800","onmask","q","9","Phylogenetic","false","experimental"
"","null","html-keyboard-response","328","275810","0.0-13.0-0.39","u2F1qKzwCL","605b800261a3587647dc423a","6617fad957f7c6a12ea16e26","6622cfa57f97d0d40de009fa","fixation cross","null","","","","","","","","","","","",""
"","null","html-keyboard-response","329","276616","0.0-13.0-1.39","u2F1qKzwCL","605b800261a3587647dc423a","6617fad957f7c6a12ea16e26","6622cfa57f97d0d40de009fa","
        <div id=""grid-container"">
        <!-- Grid items will be dynamically added here -->
    </div>    ","null","","","","","","","","","","","",""
"","992","html-keyboard-response","330","276809","0.0-13.0-2.39","u2F1qKzwCL","605b800261a3587647dc423a","6617fad957f7c6a12ea16e26","6622cfa57f97d0d40de009fa","mask grid","p","","","","","Phylogenetic_Distractor_Nonthreat_target","800","onmask","p","5","Phylogenetic","true","experimental"
"","7820","html-keyboard-response","331","284842","0.0-14.0","u2F1qKzwCL","605b800261a3587647dc423a","6617fad957f7c6a12ea16e26","6622cfa57f97d0d40de009fa","break screen"," ","","","","","","","","","","","",""
"","null","html-keyboard-response","332","287362","0.0-15.0-0.0","u2F1qKzwCL","605b800261a3587647dc423a","6617fad957f7c6a12ea16e26","6622cfa57f97d0d40de009fa","fixation cross","null","","","","","","","","","","","",""
"","1462","html-keyboard-response","333","288825","0.0-15.0-1.0","u2F1qKzwCL","605b800261a3587647dc423a","6617fad957f7c6a12ea16e26","6622cfa57f97d0d40de009fa","image grid","q","","","","","Ontogenetic_Distractor_Threat_target","2500","ongrid","q","9","Ontogenetic","true","experimental"
"","null","html-keyboard-response","334","288989","0.0-15.0-2.0","u2F1qKzwCL","605b800261a3587647dc423a","6617fad957f7c6a12ea16e26","6622cfa57f97d0d40de009fa","
    <div id=""grid-container"">
        <!-- Grid items will be dynamically added here -->
    </div>    ","null","","","","","","","","","","","",""
"","null","html-keyboard-response","335","289704","0.0-15.0-0.1","u2F1qKzwCL","605b800261a3587647dc423a","6617fad957f7c6a12ea16e26","6622cfa57f97d0d40de009fa","fixation cross","null","","","","","","","","","","","",""
"","804","html-keyboard-response","336","290508","0.0-15.0-1.1","u2F1qKzwCL","605b800261a3587647dc423a","6617fad957f7c6a12ea16e26","6622cfa57f97d0d40de009fa","image grid","q","","","","","Ontogenetic_Distractor_Threat_target","2500","ongrid","q","5","Ontogenetic","true","experimental"
"","null","html-keyboard-response","337","290664","0.0-15.0-2.1","u2F1qKzwCL","605b800261a3587647dc423a","6617fad957f7c6a12ea16e26","6622cfa57f97d0d40de009fa","
    <div id=""grid-container"">
        <!-- Grid items will be dynamically added here -->
    </div>    ","null","","","","","","","","","","","",""
"","null","html-keyboard-response","338","291390","0.0-15.0-0.2","u2F1qKzwCL","605b800261a3587647dc423a","6617fad957f7c6a12ea16e26","6622cfa57f97d0d40de009fa","fixation cross","null","","","","","","","","","","","",""
"","991","html-keyboard-response","339","292382","0.0-15.0-1.2","u2F1qKzwCL","605b800261a3587647dc423a","6617fad957f7c6a12ea16e26","6622cfa57f97d0d40de009fa","image grid","p","","","","","Ontogenetic_Distractor_Nonthreat_target","2500","ongrid","p","9","Ontogenetic","true","experimental"
"","null","html-keyboard-response","340","292540","0.0-15.0-2.2","u2F1qKzwCL","605b800261a3587647dc423a","6617fad957f7c6a12ea16e26","6622cfa57f97d0d40de009fa","
    <div id=""grid-container"">
        <!-- Grid items will be dynamically added here -->
    </div>    ","null","","","","","","","","","","","",""
"","null","html-keyboard-response","341","293253","0.0-15.0-0.3","u2F1qKzwCL","605b800261a3587647dc423a","6617fad957f7c6a12ea16e26","6622cfa57f97d0d40de009fa","fixation cross","null","","","","","","","","","","","",""
"","1145","html-keyboard-response","342","294398","0.0-15.0-1.3","u2F1qKzwCL","605b800261a3587647dc423a","6617fad957f7c6a12ea16e26","6622cfa57f97d0d40de009fa","image grid","q","","","","","Ontogenetic_Distractor_Threat_target","2500","ongrid","q","4","Ontogenetic","true","experimental"
"","null","html-keyboard-response","343","294563","0.0-15.0-2.3","u2F1qKzwCL","605b800261a3587647dc423a","6617fad957f7c6a12ea16e26","6622cfa57f97d0d40de009fa","
    <div id=""grid-container"">
        <!-- Grid items will be dynamically added here -->
    </div>    ","null","","","","","","","","","","","",""
"","null","html-keyboard-response","344","295273","0.0-15.0-0.4","u2F1qKzwCL","605b800261a3587647dc423a","6617fad957f7c6a12ea16e26","6622cfa57f97d0d40de009fa","fixation cross","null","","","","","","","","","","","",""
"","1006","html-keyboard-response","345","296280","0.0-15.0-1.4","u2F1qKzwCL","605b800261a3587647dc423a","6617fad957f7c6a12ea16e26","6622cfa57f97d0d40de009fa","image grid"," ","","","","","Ontogenetic_Distractor_Nonthreat_target","2500","ongrid","p","3","Ontogenetic","false","experimental"
"","null","html-keyboard-response","346","296436","0.0-15.0-2.4","u2F1qKzwCL","605b800261a3587647dc423a","6617fad957f7c6a12ea16e26","6622cfa57f97d0d40de009fa","
    <div id=""grid-container"">
        <!-- Grid items will be dynamically added here -->
    </div>    ","null","","","","","","","","","","","",""
"","null","html-keyboard-response","347","297163","0.0-15.0-0.5","u2F1qKzwCL","605b800261a3587647dc423a","6617fad957f7c6a12ea16e26","6622cfa57f97d0d40de009fa","fixation cross","null","","","","","","","","","","","",""
"","1135","html-keyboard-response","348","298299","0.0-15.0-1.5","u2F1qKzwCL","605b800261a3587647dc423a","6617fad957f7c6a12ea16e26","6622cfa57f97d0d40de009fa","image grid","p","","","","","Ontogenetic_Distractor_Nonthreat_target","2500","ongrid","p","4","Ontogenetic","true","experimental"
"","null","html-keyboard-response","349","298466","0.0-15.0-2.5","u2F1qKzwCL","605b800261a3587647dc423a","6617fad957f7c6a12ea16e26","6622cfa57f97d0d40de009fa","
    <div id=""grid-container"">
        <!-- Grid items will be dynamically added here -->
    </div>    ","null","","","","","","","","","","","",""
"","null","html-keyboard-response","350","299178","0.0-15.0-0.6","u2F1qKzwCL","605b800261a3587647dc423a","6617fad957f7c6a12ea16e26","6622cfa57f97d0d40de009fa","fixation cross","null","","","","","","","","","","","",""
"","850","html-keyboard-response","351","300029","0.0-15.0-1.6","u2F1qKzwCL","605b800261a3587647dc423a","6617fad957f7c6a12ea16e26","6622cfa57f97d0d40de009fa","image grid","p","","","","","Ontogenetic_Distractor_Nonthreat_target","2500","ongrid","p","6","Ontogenetic","true","experimental"
"","null","html-keyboard-response","352","300184","0.0-15.0-2.6","u2F1qKzwCL","605b800261a3587647dc423a","6617fad957f7c6a12ea16e26","6622cfa57f97d0d40de009fa","
    <div id=""grid-container"">
        <!-- Grid items will be dynamically added here -->
    </div>    ","null","","","","","","","","","","","",""
"","null","html-keyboard-response","353","300911","0.0-15.0-0.7","u2F1qKzwCL","605b800261a3587647dc423a","6617fad957f7c6a12ea16e26","6622cfa57f97d0d40de009fa","fixation cross","null","","","","","","","","","","","",""
"","1558","html-keyboard-response","354","302470","0.0-15.0-1.7","u2F1qKzwCL","605b800261a3587647dc423a","6617fad957f7c6a12ea16e26","6622cfa57f97d0d40de009fa","image grid"," ","","","","","Ontogenetic_Distractor_notarget","2500","ongrid"," ","7","Ontogenetic","true","experimental"
"","null","html-keyboard-response","355","302631","0.0-15.0-2.7","u2F1qKzwCL","605b800261a3587647dc423a","6617fad957f7c6a12ea16e26","6622cfa57f97d0d40de009fa","
    <div id=""grid-container"">
        <!-- Grid items will be dynamically added here -->
    </div>    ","null","","","","","","","","","","","",""
"","null","html-keyboard-response","356","303340","0.0-15.0-0.8","u2F1qKzwCL","605b800261a3587647dc423a","6617fad957f7c6a12ea16e26","6622cfa57f97d0d40de009fa","fixation cross","null","","","","","","","","","","","",""
"","771","html-keyboard-response","357","304112","0.0-15.0-1.8","u2F1qKzwCL","605b800261a3587647dc423a","6617fad957f7c6a12ea16e26","6622cfa57f97d0d40de009fa","image grid","q","","","","","Ontogenetic_Distractor_Threat_target","2500","ongrid","q","5","Ontogenetic","true","experimental"
"","null","html-keyboard-response","358","304270","0.0-15.0-2.8","u2F1qKzwCL","605b800261a3587647dc423a","6617fad957f7c6a12ea16e26","6622cfa57f97d0d40de009fa","
    <div id=""grid-container"">
        <!-- Grid items will be dynamically added here -->
    </div>    ","null","","","","","","","","","","","",""
"","null","html-keyboard-response","359","304998","0.0-15.0-0.9","u2F1qKzwCL","605b800261a3587647dc423a","6617fad957f7c6a12ea16e26","6622cfa57f97d0d40de009fa","fixation cross","null","","","","","","","","","","","",""
"","1192","html-keyboard-response","360","306190","0.0-15.0-1.9","u2F1qKzwCL","605b800261a3587647dc423a","6617fad957f7c6a12ea16e26","6622cfa57f97d0d40de009fa","image grid","p","","","","","Ontogenetic_Distractor_Nonthreat_target","2500","ongrid","p","2","Ontogenetic","true","experimental"
"","null","html-keyboard-response","361","306350","0.0-15.0-2.9","u2F1qKzwCL","605b800261a3587647dc423a","6617fad957f7c6a12ea16e26","6622cfa57f97d0d40de009fa","
    <div id=""grid-container"">
        <!-- Grid items will be dynamically added here -->
    </div>    ","null","","","","","","","","","","","",""
"","null","html-keyboard-response","362","307075","0.0-15.0-0.10","u2F1qKzwCL","605b800261a3587647dc423a","6617fad957f7c6a12ea16e26","6622cfa57f97d0d40de009fa","fixation cross","null","","","","","","","","","","","",""
"","1258","html-keyboard-response","363","308333","0.0-15.0-1.10","u2F1qKzwCL","605b800261a3587647dc423a","6617fad957f7c6a12ea16e26","6622cfa57f97d0d40de009fa","image grid","q","","","","","Ontogenetic_Distractor_Threat_target","2500","ongrid","q","3","Ontogenetic","true","experimental"
"","null","html-keyboard-response","364","308502","0.0-15.0-2.10","u2F1qKzwCL","605b800261a3587647dc423a","6617fad957f7c6a12ea16e26","6622cfa57f97d0d40de009fa","
    <div id=""grid-container"">
        <!-- Grid items will be dynamically added here -->
    </div>    ","null","","","","","","","","","","","",""
"","null","html-keyboard-response","365","309216","0.0-15.0-0.11","u2F1qKzwCL","605b800261a3587647dc423a","6617fad957f7c6a12ea16e26","6622cfa57f97d0d40de009fa","fixation cross","null","","","","","","","","","","","",""
"","1261","html-keyboard-response","366","310478","0.0-15.0-1.11","u2F1qKzwCL","605b800261a3587647dc423a","6617fad957f7c6a12ea16e26","6622cfa57f97d0d40de009fa","image grid"," ","","","","","Ontogenetic_Distractor_notarget","2500","ongrid"," ","9","Ontogenetic","true","experimental"
"","null","html-keyboard-response","367","310644","0.0-15.0-2.11","u2F1qKzwCL","605b800261a3587647dc423a","6617fad957f7c6a12ea16e26","6622cfa57f97d0d40de009fa","
    <div id=""grid-container"">
        <!-- Grid items will be dynamically added here -->
    </div>    ","null","","","","","","","","","","","",""
"","null","html-keyboard-response","368","311359","0.0-15.0-0.12","u2F1qKzwCL","605b800261a3587647dc423a","6617fad957f7c6a12ea16e26","6622cfa57f97d0d40de009fa","fixation cross","null","","","","","","","","","","","",""
"","715","html-keyboard-response","369","312075","0.0-15.0-1.12","u2F1qKzwCL","605b800261a3587647dc423a","6617fad957f7c6a12ea16e26","6622cfa57f97d0d40de009fa","image grid","q","","","","","Ontogenetic_Distractor_Threat_target","2500","ongrid","q","1","Ontogenetic","true","experimental"
