"success","rt","trial_type","trial_index","time_elapsed","internal_node_id","unique_identifier","subject_id","study_id","session_id","stimulus","response","timeout","failed_images","failed_audio","failed_video","task","respondedwhen","time_manipulation","correctresponse","targetimagelocation","blocktype","correct","roundtype"
"true","3524","fullscreen","0","4533","0.0-0.0","Nm7jV7Ukaj","5fa8b4123a3f0d7a4aab8ef3","6617fad957f7c6a12ea16e26","6622cc9db3478e60a989c164","","","","","","","","","","","","","",""
"","11038","html-keyboard-response","1","15573","0.0-1.0","Nm7jV7Ukaj","5fa8b4123a3f0d7a4aab8ef3","6617fad957f7c6a12ea16e26","6622cc9db3478e60a989c164","instruction screen 0"," ","","","","","","","","","","","",""
"true","","preload","2","35324","0.0-2.0","Nm7jV7Ukaj","5fa8b4123a3f0d7a4aab8ef3","6617fad957f7c6a12ea16e26","6622cc9db3478e60a989c164","","","false","[]","[]","[]","","","","","","","",""
"","13965","html-keyboard-response","3","49291","0.0-3.0","Nm7jV7Ukaj","5fa8b4123a3f0d7a4aab8ef3","6617fad957f7c6a12ea16e26","6622cc9db3478e60a989c164","instruction screen 1"," ","","","","","","","","","","","",""
"","8934","html-keyboard-response","4","58229","0.0-4.0","Nm7jV7Ukaj","5fa8b4123a3f0d7a4aab8ef3","6617fad957f7c6a12ea16e26","6622cc9db3478e60a989c164","instruction screen 2","q","","","","","","","","","","","",""
"","4360","html-keyboard-response","5","62592","0.0-5.0","Nm7jV7Ukaj","5fa8b4123a3f0d7a4aab8ef3","6617fad957f7c6a12ea16e26","6622cc9db3478e60a989c164","instruction screen 3","p","","","","","","","","","","","",""
"","5391","html-keyboard-response","6","68011","0.0-6.0","Nm7jV7Ukaj","5fa8b4123a3f0d7a4aab8ef3","6617fad957f7c6a12ea16e26","6622cc9db3478e60a989c164","instruction screen 4"," ","","","","","","","","","","","",""
"","10439","html-keyboard-response","7","78480","0.0-7.0","Nm7jV7Ukaj","5fa8b4123a3f0d7a4aab8ef3","6617fad957f7c6a12ea16e26","6622cc9db3478e60a989c164","instruction screen 5"," ","","","","","","","","","","","",""
"","null","html-keyboard-response","8","79020","0.0-8.0","Nm7jV7Ukaj","5fa8b4123a3f0d7a4aab8ef3","6617fad957f7c6a12ea16e26","6622cc9db3478e60a989c164","fixation cross","null","","","","","","","","","","","",""
"","null","html-keyboard-response","9","79528","0.0-9.0-0.0","Nm7jV7Ukaj","5fa8b4123a3f0d7a4aab8ef3","6617fad957f7c6a12ea16e26","6622cc9db3478e60a989c164","fixation cross","null","","","","","","","","","","","",""
"","null","html-keyboard-response","10","82539","0.0-9.0-1.0","Nm7jV7Ukaj","5fa8b4123a3f0d7a4aab8ef3","6617fad957f7c6a12ea16e26","6622cc9db3478e60a989c164","
        <div id=""grid-container"">
        <!-- Grid items will be dynamically added here -->
    </div>    ","null","","","","","","","","","","","",""
"","7614","html-keyboard-response","11","87180","0.0-9.0-2.0","Nm7jV7Ukaj","5fa8b4123a3f0d7a4aab8ef3","6617fad957f7c6a12ea16e26","6622cc9db3478e60a989c164","mask grid","q","","","","","Ontogenetic_Distractor_Threat_target","onmask","3000","q","9","Ontogenetic","true","practice"
"","null","html-keyboard-response","12","88423","0.0-9.0-3.0","Nm7jV7Ukaj","5fa8b4123a3f0d7a4aab8ef3","6617fad957f7c6a12ea16e26","6622cc9db3478e60a989c164","feedback screen","null","","","","","","","","","","","",""
"","null","html-keyboard-response","13","88937","0.0-9.0-0.1","Nm7jV7Ukaj","5fa8b4123a3f0d7a4aab8ef3","6617fad957f7c6a12ea16e26","6622cc9db3478e60a989c164","fixation cross","null","","","","","","","","","","","",""
"","1900","html-keyboard-response","14","90838","0.0-9.0-1.1","Nm7jV7Ukaj","5fa8b4123a3f0d7a4aab8ef3","6617fad957f7c6a12ea16e26","6622cc9db3478e60a989c164","image grid","p","","","","","Ontogenetic_Distractor_Nonthreat_target","ongrid","2900","p","6","Ontogenetic","true","practice"
"","null","html-keyboard-response","15","90991","0.0-9.0-2.1","Nm7jV7Ukaj","5fa8b4123a3f0d7a4aab8ef3","6617fad957f7c6a12ea16e26","6622cc9db3478e60a989c164","
    <div id=""grid-container"">
        <!-- Grid items will be dynamically added here -->
    </div>    ","null","","","","","","","","","","","",""
"","null","html-keyboard-response","16","92202","0.0-9.0-3.1","Nm7jV7Ukaj","5fa8b4123a3f0d7a4aab8ef3","6617fad957f7c6a12ea16e26","6622cc9db3478e60a989c164","feedback screen","null","","","","","","","","","","","",""
"","null","html-keyboard-response","17","92719","0.0-9.0-0.2","Nm7jV7Ukaj","5fa8b4123a3f0d7a4aab8ef3","6617fad957f7c6a12ea16e26","6622cc9db3478e60a989c164","fixation cross","null","","","","","","","","","","","",""
"","null","html-keyboard-response","18","95533","0.0-9.0-1.2","Nm7jV7Ukaj","5fa8b4123a3f0d7a4aab8ef3","6617fad957f7c6a12ea16e26","6622cc9db3478e60a989c164","
        <div id=""grid-container"">
        <!-- Grid items will be dynamically added here -->
    </div>    ","null","","","","","","","","","","","",""
"","2949","html-keyboard-response","19","95682","0.0-9.0-2.2","Nm7jV7Ukaj","5fa8b4123a3f0d7a4aab8ef3","6617fad957f7c6a12ea16e26","6622cc9db3478e60a989c164","mask grid"," ","","","","","Ontogenetic_Distractor_notarget","onmask","2800"," ","5","Ontogenetic","true","practice"
"","null","html-keyboard-response","20","96908","0.0-9.0-3.2","Nm7jV7Ukaj","5fa8b4123a3f0d7a4aab8ef3","6617fad957f7c6a12ea16e26","6622cc9db3478e60a989c164","feedback screen","null","","","","","","","","","","","",""
"","null","html-keyboard-response","21","97422","0.0-9.0-0.3","Nm7jV7Ukaj","5fa8b4123a3f0d7a4aab8ef3","6617fad957f7c6a12ea16e26","6622cc9db3478e60a989c164","fixation cross","null","","","","","","","","","","","",""
"","1418","html-keyboard-response","22","98840","0.0-9.0-1.3","Nm7jV7Ukaj","5fa8b4123a3f0d7a4aab8ef3","6617fad957f7c6a12ea16e26","6622cc9db3478e60a989c164","image grid","p","","","","","Ontogenetic_Distractor_Threat_target","ongrid","2700","q","7","Ontogenetic","false","practice"
"","null","html-keyboard-response","23","98999","0.0-9.0-2.3","Nm7jV7Ukaj","5fa8b4123a3f0d7a4aab8ef3","6617fad957f7c6a12ea16e26","6622cc9db3478e60a989c164","
    <div id=""grid-container"">
        <!-- Grid items will be dynamically added here -->
    </div>    ","null","","","","","","","","","","","",""
"","null","html-keyboard-response","24","100204","0.0-9.0-3.3","Nm7jV7Ukaj","5fa8b4123a3f0d7a4aab8ef3","6617fad957f7c6a12ea16e26","6622cc9db3478e60a989c164","feedback screen","null","","","","","","","","","","","",""
"","null","html-keyboard-response","25","100720","0.0-9.0-0.4","Nm7jV7Ukaj","5fa8b4123a3f0d7a4aab8ef3","6617fad957f7c6a12ea16e26","6622cc9db3478e60a989c164","fixation cross","null","","","","","","","","","","","",""
"","1237","html-keyboard-response","26","101957","0.0-9.0-1.4","Nm7jV7Ukaj","5fa8b4123a3f0d7a4aab8ef3","6617fad957f7c6a12ea16e26","6622cc9db3478e60a989c164","image grid","q","","","","","Phylogenetic_Distractor_Threat_target","ongrid","2600","q","7","Ontogenetic","true","practice"
"","null","html-keyboard-response","27","102122","0.0-9.0-2.4","Nm7jV7Ukaj","5fa8b4123a3f0d7a4aab8ef3","6617fad957f7c6a12ea16e26","6622cc9db3478e60a989c164","
    <div id=""grid-container"">
        <!-- Grid items will be dynamically added here -->
    </div>    ","null","","","","","","","","","","","",""
"","null","html-keyboard-response","28","103330","0.0-9.0-3.4","Nm7jV7Ukaj","5fa8b4123a3f0d7a4aab8ef3","6617fad957f7c6a12ea16e26","6622cc9db3478e60a989c164","feedback screen","null","","","","","","","","","","","",""
"","null","html-keyboard-response","29","103845","0.0-9.0-0.5","Nm7jV7Ukaj","5fa8b4123a3f0d7a4aab8ef3","6617fad957f7c6a12ea16e26","6622cc9db3478e60a989c164","fixation cross","null","","","","","","","","","","","",""
"","822","html-keyboard-response","30","104668","0.0-9.0-1.5","Nm7jV7Ukaj","5fa8b4123a3f0d7a4aab8ef3","6617fad957f7c6a12ea16e26","6622cc9db3478e60a989c164","image grid","q","","","","","Phylogenetic_Distractor_Threat_target","ongrid","2500","q","4","Ontogenetic","true","practice"
"","null","html-keyboard-response","31","104831","0.0-9.0-2.5","Nm7jV7Ukaj","5fa8b4123a3f0d7a4aab8ef3","6617fad957f7c6a12ea16e26","6622cc9db3478e60a989c164","
    <div id=""grid-container"">
        <!-- Grid items will be dynamically added here -->
    </div>    ","null","","","","","","","","","","","",""
"","null","html-keyboard-response","32","106047","0.0-9.0-3.5","Nm7jV7Ukaj","5fa8b4123a3f0d7a4aab8ef3","6617fad957f7c6a12ea16e26","6622cc9db3478e60a989c164","feedback screen","null","","","","","","","","","","","",""
"","null","html-keyboard-response","33","106563","0.0-9.0-0.6","Nm7jV7Ukaj","5fa8b4123a3f0d7a4aab8ef3","6617fad957f7c6a12ea16e26","6622cc9db3478e60a989c164","fixation cross","null","","","","","","","","","","","",""
"","1665","html-keyboard-response","34","108228","0.0-9.0-1.6","Nm7jV7Ukaj","5fa8b4123a3f0d7a4aab8ef3","6617fad957f7c6a12ea16e26","6622cc9db3478e60a989c164","image grid"," ","","","","","Ontogenetic_Distractor_notarget","ongrid","2400"," ","8","Ontogenetic","true","practice"
"","null","html-keyboard-response","35","108392","0.0-9.0-2.6","Nm7jV7Ukaj","5fa8b4123a3f0d7a4aab8ef3","6617fad957f7c6a12ea16e26","6622cc9db3478e60a989c164","
    <div id=""grid-container"">
        <!-- Grid items will be dynamically added here -->
    </div>    ","null","","","","","","","","","","","",""
"","null","html-keyboard-response","36","109611","0.0-9.0-3.6","Nm7jV7Ukaj","5fa8b4123a3f0d7a4aab8ef3","6617fad957f7c6a12ea16e26","6622cc9db3478e60a989c164","feedback screen","null","","","","","","","","","","","",""
"","null","html-keyboard-response","37","110126","0.0-9.0-0.7","Nm7jV7Ukaj","5fa8b4123a3f0d7a4aab8ef3","6617fad957f7c6a12ea16e26","6622cc9db3478e60a989c164","fixation cross","null","","","","","","","","","","","",""
"","1036","html-keyboard-response","38","111163","0.0-9.0-1.7","Nm7jV7Ukaj","5fa8b4123a3f0d7a4aab8ef3","6617fad957f7c6a12ea16e26","6622cc9db3478e60a989c164","image grid","p","","","","","Phylogenetic_Distractor_Nonthreat_target","ongrid","2300","p","5","Ontogenetic","true","practice"
"","null","html-keyboard-response","39","111315","0.0-9.0-2.7","Nm7jV7Ukaj","5fa8b4123a3f0d7a4aab8ef3","6617fad957f7c6a12ea16e26","6622cc9db3478e60a989c164","
    <div id=""grid-container"">
        <!-- Grid items will be dynamically added here -->
    </div>    ","null","","","","","","","","","","","",""
"","null","html-keyboard-response","40","112532","0.0-9.0-3.7","Nm7jV7Ukaj","5fa8b4123a3f0d7a4aab8ef3","6617fad957f7c6a12ea16e26","6622cc9db3478e60a989c164","feedback screen","null","","","","","","","","","","","",""
"","null","html-keyboard-response","41","113049","0.0-9.0-0.8","Nm7jV7Ukaj","5fa8b4123a3f0d7a4aab8ef3","6617fad957f7c6a12ea16e26","6622cc9db3478e60a989c164","fixation cross","null","","","","","","","","","","","",""
"","2015","html-keyboard-response","42","115065","0.0-9.0-1.8","Nm7jV7Ukaj","5fa8b4123a3f0d7a4aab8ef3","6617fad957f7c6a12ea16e26","6622cc9db3478e60a989c164","image grid"," ","","","","","Phylogenetic_Distractor_Nonthreat_target","ongrid","2200","p","6","Ontogenetic","false","practice"
"","null","html-keyboard-response","43","115222","0.0-9.0-2.8","Nm7jV7Ukaj","5fa8b4123a3f0d7a4aab8ef3","6617fad957f7c6a12ea16e26","6622cc9db3478e60a989c164","
    <div id=""grid-container"">
        <!-- Grid items will be dynamically added here -->
    </div>    ","null","","","","","","","","","","","",""
"","null","html-keyboard-response","44","116439","0.0-9.0-3.8","Nm7jV7Ukaj","5fa8b4123a3f0d7a4aab8ef3","6617fad957f7c6a12ea16e26","6622cc9db3478e60a989c164","feedback screen","null","","","","","","","","","","","",""
"","null","html-keyboard-response","45","116953","0.0-9.0-0.9","Nm7jV7Ukaj","5fa8b4123a3f0d7a4aab8ef3","6617fad957f7c6a12ea16e26","6622cc9db3478e60a989c164","fixation cross","null","","","","","","","","","","","",""
"","null","html-keyboard-response","46","119064","0.0-9.0-1.9","Nm7jV7Ukaj","5fa8b4123a3f0d7a4aab8ef3","6617fad957f7c6a12ea16e26","6622cc9db3478e60a989c164","
        <div id=""grid-container"">
        <!-- Grid items will be dynamically added here -->
    </div>    ","null","","","","","","","","","","","",""
"","2260","html-keyboard-response","47","119224","0.0-9.0-2.9","Nm7jV7Ukaj","5fa8b4123a3f0d7a4aab8ef3","6617fad957f7c6a12ea16e26","6622cc9db3478e60a989c164","mask grid"," ","","","","","Phylogenetic_Distractor_notarget","onmask","2100"," ","1","Ontogenetic","true","practice"
"","null","html-keyboard-response","48","120455","0.0-9.0-3.9","Nm7jV7Ukaj","5fa8b4123a3f0d7a4aab8ef3","6617fad957f7c6a12ea16e26","6622cc9db3478e60a989c164","feedback screen","null","","","","","","","","","","","",""
"","null","html-keyboard-response","49","120968","0.0-9.0-0.10","Nm7jV7Ukaj","5fa8b4123a3f0d7a4aab8ef3","6617fad957f7c6a12ea16e26","6622cc9db3478e60a989c164","fixation cross","null","","","","","","","","","","","",""
"","1469","html-keyboard-response","50","122437","0.0-9.0-1.10","Nm7jV7Ukaj","5fa8b4123a3f0d7a4aab8ef3","6617fad957f7c6a12ea16e26","6622cc9db3478e60a989c164","image grid","p","","","","","Phylogenetic_Distractor_Nonthreat_target","ongrid","2000","p","7","Ontogenetic","true","practice"
"","null","html-keyboard-response","51","122595","0.0-9.0-2.10","Nm7jV7Ukaj","5fa8b4123a3f0d7a4aab8ef3","6617fad957f7c6a12ea16e26","6622cc9db3478e60a989c164","
    <div id=""grid-container"">
        <!-- Grid items will be dynamically added here -->
    </div>    ","null","","","","","","","","","","","",""
"","null","html-keyboard-response","52","123813","0.0-9.0-3.10","Nm7jV7Ukaj","5fa8b4123a3f0d7a4aab8ef3","6617fad957f7c6a12ea16e26","6622cc9db3478e60a989c164","feedback screen","null","","","","","","","","","","","",""
"","null","html-keyboard-response","53","124328","0.0-9.0-0.11","Nm7jV7Ukaj","5fa8b4123a3f0d7a4aab8ef3","6617fad957f7c6a12ea16e26","6622cc9db3478e60a989c164","fixation cross","null","","","","","","","","","","","",""
"","1206","html-keyboard-response","54","125534","0.0-9.0-1.11","Nm7jV7Ukaj","5fa8b4123a3f0d7a4aab8ef3","6617fad957f7c6a12ea16e26","6622cc9db3478e60a989c164","image grid","p","","","","","Ontogenetic_Distractor_Nonthreat_target","ongrid","1900","p","1","Ontogenetic","true","practice"
"","null","html-keyboard-response","55","125689","0.0-9.0-2.11","Nm7jV7Ukaj","5fa8b4123a3f0d7a4aab8ef3","6617fad957f7c6a12ea16e26","6622cc9db3478e60a989c164","
    <div id=""grid-container"">
        <!-- Grid items will be dynamically added here -->
    </div>    ","null","","","","","","","","","","","",""
"","null","html-keyboard-response","56","126907","0.0-9.0-3.11","Nm7jV7Ukaj","5fa8b4123a3f0d7a4aab8ef3","6617fad957f7c6a12ea16e26","6622cc9db3478e60a989c164","feedback screen","null","","","","","","","","","","","",""
"","null","html-keyboard-response","57","127423","0.0-9.0-0.12","Nm7jV7Ukaj","5fa8b4123a3f0d7a4aab8ef3","6617fad957f7c6a12ea16e26","6622cc9db3478e60a989c164","fixation cross","null","","","","","","","","","","","",""
"","865","html-keyboard-response","58","128289","0.0-9.0-1.12","Nm7jV7Ukaj","5fa8b4123a3f0d7a4aab8ef3","6617fad957f7c6a12ea16e26","6622cc9db3478e60a989c164","image grid","q","","","","","Ontogenetic_Distractor_Threat_target","ongrid","1800","q","1","Ontogenetic","true","practice"
"","null","html-keyboard-response","59","128441","0.0-9.0-2.12","Nm7jV7Ukaj","5fa8b4123a3f0d7a4aab8ef3","6617fad957f7c6a12ea16e26","6622cc9db3478e60a989c164","
    <div id=""grid-container"">
        <!-- Grid items will be dynamically added here -->
    </div>    ","null","","","","","","","","","","","",""
"","null","html-keyboard-response","60","129656","0.0-9.0-3.12","Nm7jV7Ukaj","5fa8b4123a3f0d7a4aab8ef3","6617fad957f7c6a12ea16e26","6622cc9db3478e60a989c164","feedback screen","null","","","","","","","","","","","",""
"","null","html-keyboard-response","61","130173","0.0-9.0-0.13","Nm7jV7Ukaj","5fa8b4123a3f0d7a4aab8ef3","6617fad957f7c6a12ea16e26","6622cc9db3478e60a989c164","fixation cross","null","","","","","","","","","","","",""
"","951","html-keyboard-response","62","131124","0.0-9.0-1.13","Nm7jV7Ukaj","5fa8b4123a3f0d7a4aab8ef3","6617fad957f7c6a12ea16e26","6622cc9db3478e60a989c164","image grid","p","","","","","Ontogenetic_Distractor_Nonthreat_target","ongrid","1700","p","9","Ontogenetic","true","practice"
"","null","html-keyboard-response","63","131281","0.0-9.0-2.13","Nm7jV7Ukaj","5fa8b4123a3f0d7a4aab8ef3","6617fad957f7c6a12ea16e26","6622cc9db3478e60a989c164","
    <div id=""grid-container"">
        <!-- Grid items will be dynamically added here -->
    </div>    ","null","","","","","","","","","","","",""
"","null","html-keyboard-response","64","132502","0.0-9.0-3.13","Nm7jV7Ukaj","5fa8b4123a3f0d7a4aab8ef3","6617fad957f7c6a12ea16e26","6622cc9db3478e60a989c164","feedback screen","null","","","","","","","","","","","",""
"","null","html-keyboard-response","65","133017","0.0-9.0-0.14","Nm7jV7Ukaj","5fa8b4123a3f0d7a4aab8ef3","6617fad957f7c6a12ea16e26","6622cc9db3478e60a989c164","fixation cross","null","","","","","","","","","","","",""
"","935","html-keyboard-response","66","133953","0.0-9.0-1.14","Nm7jV7Ukaj","5fa8b4123a3f0d7a4aab8ef3","6617fad957f7c6a12ea16e26","6622cc9db3478e60a989c164","image grid","q","","","","","Phylogenetic_Distractor_Threat_target","ongrid","1600","q","5","Ontogenetic","true","practice"
"","null","html-keyboard-response","67","134115","0.0-9.0-2.14","Nm7jV7Ukaj","5fa8b4123a3f0d7a4aab8ef3","6617fad957f7c6a12ea16e26","6622cc9db3478e60a989c164","
    <div id=""grid-container"">
        <!-- Grid items will be dynamically added here -->
    </div>    ","null","","","","","","","","","","","",""
"","null","html-keyboard-response","68","135329","0.0-9.0-3.14","Nm7jV7Ukaj","5fa8b4123a3f0d7a4aab8ef3","6617fad957f7c6a12ea16e26","6622cc9db3478e60a989c164","feedback screen","null","","","","","","","","","","","",""
"","null","html-keyboard-response","69","135845","0.0-9.0-0.15","Nm7jV7Ukaj","5fa8b4123a3f0d7a4aab8ef3","6617fad957f7c6a12ea16e26","6622cc9db3478e60a989c164","fixation cross","null","","","","","","","","","","","",""
"","null","html-keyboard-response","70","137360","0.0-9.0-1.15","Nm7jV7Ukaj","5fa8b4123a3f0d7a4aab8ef3","6617fad957f7c6a12ea16e26","6622cc9db3478e60a989c164","
        <div id=""grid-container"">
        <!-- Grid items will be dynamically added here -->
    </div>    ","null","","","","","","","","","","","",""
"","1949","html-keyboard-response","71","137810","0.0-9.0-2.15","Nm7jV7Ukaj","5fa8b4123a3f0d7a4aab8ef3","6617fad957f7c6a12ea16e26","6622cc9db3478e60a989c164","mask grid","p","","","","","Phylogenetic_Distractor_Nonthreat_target","onmask","1500","p","6","Ontogenetic","true","practice"
"","null","html-keyboard-response","72","139032","0.0-9.0-3.15","Nm7jV7Ukaj","5fa8b4123a3f0d7a4aab8ef3","6617fad957f7c6a12ea16e26","6622cc9db3478e60a989c164","feedback screen","null","","","","","","","","","","","",""
"","null","html-keyboard-response","73","139547","0.0-9.0-0.16","Nm7jV7Ukaj","5fa8b4123a3f0d7a4aab8ef3","6617fad957f7c6a12ea16e26","6622cc9db3478e60a989c164","fixation cross","null","","","","","","","","","","","",""
"","null","html-keyboard-response","74","140954","0.0-9.0-1.16","Nm7jV7Ukaj","5fa8b4123a3f0d7a4aab8ef3","6617fad957f7c6a12ea16e26","6622cc9db3478e60a989c164","
        <div id=""grid-container"">
        <!-- Grid items will be dynamically added here -->
    </div>    ","null","","","","","","","","","","","",""
"","1556","html-keyboard-response","75","141110","0.0-9.0-2.16","Nm7jV7Ukaj","5fa8b4123a3f0d7a4aab8ef3","6617fad957f7c6a12ea16e26","6622cc9db3478e60a989c164","mask grid"," ","","","","","Phylogenetic_Distractor_notarget","onmask","1400"," ","9","Ontogenetic","true","practice"
"","null","html-keyboard-response","76","142329","0.0-9.0-3.16","Nm7jV7Ukaj","5fa8b4123a3f0d7a4aab8ef3","6617fad957f7c6a12ea16e26","6622cc9db3478e60a989c164","feedback screen","null","","","","","","","","","","","",""
"","null","html-keyboard-response","77","142845","0.0-9.0-0.17","Nm7jV7Ukaj","5fa8b4123a3f0d7a4aab8ef3","6617fad957f7c6a12ea16e26","6622cc9db3478e60a989c164","fixation cross","null","","","","","","","","","","","",""
"","882","html-keyboard-response","78","143727","0.0-9.0-1.17","Nm7jV7Ukaj","5fa8b4123a3f0d7a4aab8ef3","6617fad957f7c6a12ea16e26","6622cc9db3478e60a989c164","image grid","p","","","","","Ontogenetic_Distractor_Nonthreat_target","ongrid","1300","p","4","Ontogenetic","true","practice"
"","null","html-keyboard-response","79","143891","0.0-9.0-2.17","Nm7jV7Ukaj","5fa8b4123a3f0d7a4aab8ef3","6617fad957f7c6a12ea16e26","6622cc9db3478e60a989c164","
    <div id=""grid-container"">
        <!-- Grid items will be dynamically added here -->
    </div>    ","null","","","","","","","","","","","",""
"","null","html-keyboard-response","80","145110","0.0-9.0-3.17","Nm7jV7Ukaj","5fa8b4123a3f0d7a4aab8ef3","6617fad957f7c6a12ea16e26","6622cc9db3478e60a989c164","feedback screen","null","","","","","","","","","","","",""
"","null","html-keyboard-response","81","145624","0.0-9.0-0.18","Nm7jV7Ukaj","5fa8b4123a3f0d7a4aab8ef3","6617fad957f7c6a12ea16e26","6622cc9db3478e60a989c164","fixation cross","null","","","","","","","","","","","",""
"","813","html-keyboard-response","82","146437","0.0-9.0-1.18","Nm7jV7Ukaj","5fa8b4123a3f0d7a4aab8ef3","6617fad957f7c6a12ea16e26","6622cc9db3478e60a989c164","image grid","q","","","","","Ontogenetic_Distractor_Threat_target","ongrid","1200","q","5","Ontogenetic","true","practice"
"","null","html-keyboard-response","83","146595","0.0-9.0-2.18","Nm7jV7Ukaj","5fa8b4123a3f0d7a4aab8ef3","6617fad957f7c6a12ea16e26","6622cc9db3478e60a989c164","
    <div id=""grid-container"">
        <!-- Grid items will be dynamically added here -->
    </div>    ","null","","","","","","","","","","","",""
"","null","html-keyboard-response","84","147814","0.0-9.0-3.18","Nm7jV7Ukaj","5fa8b4123a3f0d7a4aab8ef3","6617fad957f7c6a12ea16e26","6622cc9db3478e60a989c164","feedback screen","null","","","","","","","","","","","",""
"","null","html-keyboard-response","85","148327","0.0-9.0-0.19","Nm7jV7Ukaj","5fa8b4123a3f0d7a4aab8ef3","6617fad957f7c6a12ea16e26","6622cc9db3478e60a989c164","fixation cross","null","","","","","","","","","","","",""
"","null","html-keyboard-response","86","149440","0.0-9.0-1.19","Nm7jV7Ukaj","5fa8b4123a3f0d7a4aab8ef3","6617fad957f7c6a12ea16e26","6622cc9db3478e60a989c164","
        <div id=""grid-container"">
        <!-- Grid items will be dynamically added here -->
    </div>    ","null","","","","","","","","","","","",""
"","1852","html-keyboard-response","87","150192","0.0-9.0-2.19","Nm7jV7Ukaj","5fa8b4123a3f0d7a4aab8ef3","6617fad957f7c6a12ea16e26","6622cc9db3478e60a989c164","mask grid"," ","","","","","Phylogenetic_Distractor_Threat_target","onmask","1100","q","6","Ontogenetic","false","practice"
"","null","html-keyboard-response","88","151420","0.0-9.0-3.19","Nm7jV7Ukaj","5fa8b4123a3f0d7a4aab8ef3","6617fad957f7c6a12ea16e26","6622cc9db3478e60a989c164","feedback screen","null","","","","","","","","","","","",""
"","3115","html-keyboard-response","89","154566","0.0-10.0","Nm7jV7Ukaj","5fa8b4123a3f0d7a4aab8ef3","6617fad957f7c6a12ea16e26","6622cc9db3478e60a989c164","pre-experimental_briefing"," ","","","","","","","","","","","",""
"","null","html-keyboard-response","90","157094","0.0-11.0-0.0","Nm7jV7Ukaj","5fa8b4123a3f0d7a4aab8ef3","6617fad957f7c6a12ea16e26","6622cc9db3478e60a989c164","fixation cross","null","","","","","","","","","","","",""
"","1318","html-keyboard-response","91","158413","0.0-11.0-1.0","Nm7jV7Ukaj","5fa8b4123a3f0d7a4aab8ef3","6617fad957f7c6a12ea16e26","6622cc9db3478e60a989c164","image grid","q","","","","","Ontogenetic_Distractor_Threat_target","ongrid","2500","q","4","Ontogenetic","true","experimental"
"","null","html-keyboard-response","92","158564","0.0-11.0-2.0","Nm7jV7Ukaj","5fa8b4123a3f0d7a4aab8ef3","6617fad957f7c6a12ea16e26","6622cc9db3478e60a989c164","
    <div id=""grid-container"">
        <!-- Grid items will be dynamically added here -->
    </div>    ","null","","","","","","","","","","","",""
"","null","html-keyboard-response","93","159268","0.0-11.0-0.1","Nm7jV7Ukaj","5fa8b4123a3f0d7a4aab8ef3","6617fad957f7c6a12ea16e26","6622cc9db3478e60a989c164","fixation cross","null","","","","","","","","","","","",""
"","1816","html-keyboard-response","94","161084","0.0-11.0-1.1","Nm7jV7Ukaj","5fa8b4123a3f0d7a4aab8ef3","6617fad957f7c6a12ea16e26","6622cc9db3478e60a989c164","image grid","p","","","","","Ontogenetic_Distractor_Nonthreat_target","ongrid","2500","p","6","Ontogenetic","true","experimental"
"","null","html-keyboard-response","95","161237","0.0-11.0-2.1","Nm7jV7Ukaj","5fa8b4123a3f0d7a4aab8ef3","6617fad957f7c6a12ea16e26","6622cc9db3478e60a989c164","
    <div id=""grid-container"">
        <!-- Grid items will be dynamically added here -->
    </div>    ","null","","","","","","","","","","","",""
"","null","html-keyboard-response","96","161954","0.0-11.0-0.2","Nm7jV7Ukaj","5fa8b4123a3f0d7a4aab8ef3","6617fad957f7c6a12ea16e26","6622cc9db3478e60a989c164","fixation cross","null","","","","","","","","","","","",""
"","2302","html-keyboard-response","97","164257","0.0-11.0-1.2","Nm7jV7Ukaj","5fa8b4123a3f0d7a4aab8ef3","6617fad957f7c6a12ea16e26","6622cc9db3478e60a989c164","image grid","p","","","","","Ontogenetic_Distractor_Nonthreat_target","ongrid","2500","p","7","Ontogenetic","true","experimental"
"","null","html-keyboard-response","98","164408","0.0-11.0-2.2","Nm7jV7Ukaj","5fa8b4123a3f0d7a4aab8ef3","6617fad957f7c6a12ea16e26","6622cc9db3478e60a989c164","
    <div id=""grid-container"">
        <!-- Grid items will be dynamically added here -->
    </div>    ","null","","","","","","","","","","","",""
"","null","html-keyboard-response","99","165126","0.0-11.0-0.3","Nm7jV7Ukaj","5fa8b4123a3f0d7a4aab8ef3","6617fad957f7c6a12ea16e26","6622cc9db3478e60a989c164","fixation cross","null","","","","","","","","","","","",""
"","1964","html-keyboard-response","100","167090","0.0-11.0-1.3","Nm7jV7Ukaj","5fa8b4123a3f0d7a4aab8ef3","6617fad957f7c6a12ea16e26","6622cc9db3478e60a989c164","image grid","p","","","","","Ontogenetic_Distractor_Nonthreat_target","ongrid","2500","p","9","Ontogenetic","true","experimental"
"","null","html-keyboard-response","101","167241","0.0-11.0-2.3","Nm7jV7Ukaj","5fa8b4123a3f0d7a4aab8ef3","6617fad957f7c6a12ea16e26","6622cc9db3478e60a989c164","
    <div id=""grid-container"">
        <!-- Grid items will be dynamically added here -->
    </div>    ","null","","","","","","","","","","","",""
"","null","html-keyboard-response","102","167955","0.0-11.0-0.4","Nm7jV7Ukaj","5fa8b4123a3f0d7a4aab8ef3","6617fad957f7c6a12ea16e26","6622cc9db3478e60a989c164","fixation cross","null","","","","","","","","","","","",""
"","1119","html-keyboard-response","103","169075","0.0-11.0-1.4","Nm7jV7Ukaj","5fa8b4123a3f0d7a4aab8ef3","6617fad957f7c6a12ea16e26","6622cc9db3478e60a989c164","image grid","q","","","","","Ontogenetic_Distractor_Threat_target","ongrid","2500","q","4","Ontogenetic","true","experimental"
"","null","html-keyboard-response","104","169236","0.0-11.0-2.4","Nm7jV7Ukaj","5fa8b4123a3f0d7a4aab8ef3","6617fad957f7c6a12ea16e26","6622cc9db3478e60a989c164","
    <div id=""grid-container"">
        <!-- Grid items will be dynamically added here -->
    </div>    ","null","","","","","","","","","","","",""
"","null","html-keyboard-response","105","169954","0.0-11.0-0.5","Nm7jV7Ukaj","5fa8b4123a3f0d7a4aab8ef3","6617fad957f7c6a12ea16e26","6622cc9db3478e60a989c164","fixation cross","null","","","","","","","","","","","",""
"","1297","html-keyboard-response","106","171251","0.0-11.0-1.5","Nm7jV7Ukaj","5fa8b4123a3f0d7a4aab8ef3","6617fad957f7c6a12ea16e26","6622cc9db3478e60a989c164","image grid","p","","","","","Ontogenetic_Distractor_Nonthreat_target","ongrid","2500","p","3","Ontogenetic","true","experimental"
"","null","html-keyboard-response","107","171408","0.0-11.0-2.5","Nm7jV7Ukaj","5fa8b4123a3f0d7a4aab8ef3","6617fad957f7c6a12ea16e26","6622cc9db3478e60a989c164","
    <div id=""grid-container"">
        <!-- Grid items will be dynamically added here -->
    </div>    ","null","","","","","","","","","","","",""
"","null","html-keyboard-response","108","172126","0.0-11.0-0.6","Nm7jV7Ukaj","5fa8b4123a3f0d7a4aab8ef3","6617fad957f7c6a12ea16e26","6622cc9db3478e60a989c164","fixation cross","null","","","","","","","","","","","",""
"","1079","html-keyboard-response","109","173206","0.0-11.0-1.6","Nm7jV7Ukaj","5fa8b4123a3f0d7a4aab8ef3","6617fad957f7c6a12ea16e26","6622cc9db3478e60a989c164","image grid","p","","","","","Ontogenetic_Distractor_Nonthreat_target","ongrid","2500","p","7","Ontogenetic","true","experimental"
"","null","html-keyboard-response","110","173360","0.0-11.0-2.6","Nm7jV7Ukaj","5fa8b4123a3f0d7a4aab8ef3","6617fad957f7c6a12ea16e26","6622cc9db3478e60a989c164","
    <div id=""grid-container"">
        <!-- Grid items will be dynamically added here -->
    </div>    ","null","","","","","","","","","","","",""
"","null","html-keyboard-response","111","174066","0.0-11.0-0.7","Nm7jV7Ukaj","5fa8b4123a3f0d7a4aab8ef3","6617fad957f7c6a12ea16e26","6622cc9db3478e60a989c164","fixation cross","null","","","","","","","","","","","",""
"","1626","html-keyboard-response","112","175692","0.0-11.0-1.7","Nm7jV7Ukaj","5fa8b4123a3f0d7a4aab8ef3","6617fad957f7c6a12ea16e26","6622cc9db3478e60a989c164","image grid","q","","","","","Ontogenetic_Distractor_Threat_target","ongrid","2500","q","1","Ontogenetic","true","experimental"
"","null","html-keyboard-response","113","175858","0.0-11.0-2.7","Nm7jV7Ukaj","5fa8b4123a3f0d7a4aab8ef3","6617fad957f7c6a12ea16e26","6622cc9db3478e60a989c164","
    <div id=""grid-container"">
        <!-- Grid items will be dynamically added here -->
    </div>    ","null","","","","","","","","","","","",""
"","null","html-keyboard-response","114","176564","0.0-11.0-0.8","Nm7jV7Ukaj","5fa8b4123a3f0d7a4aab8ef3","6617fad957f7c6a12ea16e26","6622cc9db3478e60a989c164","fixation cross","null","","","","","","","","","","","",""
"","1386","html-keyboard-response","115","177951","0.0-11.0-1.8","Nm7jV7Ukaj","5fa8b4123a3f0d7a4aab8ef3","6617fad957f7c6a12ea16e26","6622cc9db3478e60a989c164","image grid","q","","","","","Ontogenetic_Distractor_Threat_target","ongrid","2500","q","6","Ontogenetic","true","experimental"
"","null","html-keyboard-response","116","178111","0.0-11.0-2.8","Nm7jV7Ukaj","5fa8b4123a3f0d7a4aab8ef3","6617fad957f7c6a12ea16e26","6622cc9db3478e60a989c164","
    <div id=""grid-container"">
        <!-- Grid items will be dynamically added here -->
    </div>    ","null","","","","","","","","","","","",""
"","null","html-keyboard-response","117","178829","0.0-11.0-0.9","Nm7jV7Ukaj","5fa8b4123a3f0d7a4aab8ef3","6617fad957f7c6a12ea16e26","6622cc9db3478e60a989c164","fixation cross","null","","","","","","","","","","","",""
"","null","html-keyboard-response","118","181345","0.0-11.0-1.9","Nm7jV7Ukaj","5fa8b4123a3f0d7a4aab8ef3","6617fad957f7c6a12ea16e26","6622cc9db3478e60a989c164","
        <div id=""grid-container"">
        <!-- Grid items will be dynamically added here -->
    </div>    ","null","","","","","","","","","","","",""
"","2795","html-keyboard-response","119","181640","0.0-11.0-2.9","Nm7jV7Ukaj","5fa8b4123a3f0d7a4aab8ef3","6617fad957f7c6a12ea16e26","6622cc9db3478e60a989c164","mask grid","p","","","","","Ontogenetic_Distractor_Nonthreat_target","onmask","2500","p","4","Ontogenetic","true","experimental"
"","null","html-keyboard-response","120","182358","0.0-11.0-0.10","Nm7jV7Ukaj","5fa8b4123a3f0d7a4aab8ef3","6617fad957f7c6a12ea16e26","6622cc9db3478e60a989c164","fixation cross","null","","","","","","","","","","","",""
"","978","html-keyboard-response","121","183336","0.0-11.0-1.10","Nm7jV7Ukaj","5fa8b4123a3f0d7a4aab8ef3","6617fad957f7c6a12ea16e26","6622cc9db3478e60a989c164","image grid","q","","","","","Ontogenetic_Distractor_Threat_target","ongrid","2500","q","2","Ontogenetic","true","experimental"
"","null","html-keyboard-response","122","183494","0.0-11.0-2.10","Nm7jV7Ukaj","5fa8b4123a3f0d7a4aab8ef3","6617fad957f7c6a12ea16e26","6622cc9db3478e60a989c164","
    <div id=""grid-container"">
        <!-- Grid items will be dynamically added here -->
    </div>    ","null","","","","","","","","","","","",""
"","null","html-keyboard-response","123","184219","0.0-11.0-0.11","Nm7jV7Ukaj","5fa8b4123a3f0d7a4aab8ef3","6617fad957f7c6a12ea16e26","6622cc9db3478e60a989c164","fixation cross","null","","","","","","","","","","","",""
"","1241","html-keyboard-response","124","185460","0.0-11.0-1.11","Nm7jV7Ukaj","5fa8b4123a3f0d7a4aab8ef3","6617fad957f7c6a12ea16e26","6622cc9db3478e60a989c164","image grid","q","","","","","Ontogenetic_Distractor_Threat_target","ongrid","2500","q","4","Ontogenetic","true","experimental"
"","null","html-keyboard-response","125","185611","0.0-11.0-2.11","Nm7jV7Ukaj","5fa8b4123a3f0d7a4aab8ef3","6617fad957f7c6a12ea16e26","6622cc9db3478e60a989c164","
    <div id=""grid-container"">
        <!-- Grid items will be dynamically added here -->
    </div>    ","null","","","","","","","","","","","",""
"","null","html-keyboard-response","126","186327","0.0-11.0-0.12","Nm7jV7Ukaj","5fa8b4123a3f0d7a4aab8ef3","6617fad957f7c6a12ea16e26","6622cc9db3478e60a989c164","fixation cross","null","","","","","","","","","","","",""
"","1172","html-keyboard-response","127","187499","0.0-11.0-1.12","Nm7jV7Ukaj","5fa8b4123a3f0d7a4aab8ef3","6617fad957f7c6a12ea16e26","6622cc9db3478e60a989c164","image grid","p","","","","","Ontogenetic_Distractor_Nonthreat_target","ongrid","2500","p","6","Ontogenetic","true","experimental"
"","null","html-keyboard-response","128","187658","0.0-11.0-2.12","Nm7jV7Ukaj","5fa8b4123a3f0d7a4aab8ef3","6617fad957f7c6a12ea16e26","6622cc9db3478e60a989c164","
    <div id=""grid-container"">
        <!-- Grid items will be dynamically added here -->
    </div>    ","null","","","","","","","","","","","",""
"","null","html-keyboard-response","129","188364","0.0-11.0-0.13","Nm7jV7Ukaj","5fa8b4123a3f0d7a4aab8ef3","6617fad957f7c6a12ea16e26","6622cc9db3478e60a989c164","fixation cross","null","","","","","","","","","","","",""
"","1202","html-keyboard-response","130","189567","0.0-11.0-1.13","Nm7jV7Ukaj","5fa8b4123a3f0d7a4aab8ef3","6617fad957f7c6a12ea16e26","6622cc9db3478e60a989c164","image grid","p","","","","","Ontogenetic_Distractor_Nonthreat_target","ongrid","2500","p","1","Ontogenetic","true","experimental"
"","null","html-keyboard-response","131","189720","0.0-11.0-2.13","Nm7jV7Ukaj","5fa8b4123a3f0d7a4aab8ef3","6617fad957f7c6a12ea16e26","6622cc9db3478e60a989c164","
    <div id=""grid-container"">
        <!-- Grid items will be dynamically added here -->
    </div>    ","null","","","","","","","","","","","",""
"","null","html-keyboard-response","132","190438","0.0-11.0-0.14","Nm7jV7Ukaj","5fa8b4123a3f0d7a4aab8ef3","6617fad957f7c6a12ea16e26","6622cc9db3478e60a989c164","fixation cross","null","","","","","","","","","","","",""
"","1693","html-keyboard-response","133","192131","0.0-11.0-1.14","Nm7jV7Ukaj","5fa8b4123a3f0d7a4aab8ef3","6617fad957f7c6a12ea16e26","6622cc9db3478e60a989c164","image grid"," ","","","","","Ontogenetic_Distractor_notarget","ongrid","2500"," ","2","Ontogenetic","true","experimental"
"","null","html-keyboard-response","134","192283","0.0-11.0-2.14","Nm7jV7Ukaj","5fa8b4123a3f0d7a4aab8ef3","6617fad957f7c6a12ea16e26","6622cc9db3478e60a989c164","
    <div id=""grid-container"">
        <!-- Grid items will be dynamically added here -->
    </div>    ","null","","","","","","","","","","","",""
"","null","html-keyboard-response","135","193000","0.0-11.0-0.15","Nm7jV7Ukaj","5fa8b4123a3f0d7a4aab8ef3","6617fad957f7c6a12ea16e26","6622cc9db3478e60a989c164","fixation cross","null","","","","","","","","","","","",""
"","1706","html-keyboard-response","136","194706","0.0-11.0-1.15","Nm7jV7Ukaj","5fa8b4123a3f0d7a4aab8ef3","6617fad957f7c6a12ea16e26","6622cc9db3478e60a989c164","image grid"," ","","","","","Ontogenetic_Distractor_notarget","ongrid","2500"," ","8","Ontogenetic","true","experimental"
"","null","html-keyboard-response","137","194861","0.0-11.0-2.15","Nm7jV7Ukaj","5fa8b4123a3f0d7a4aab8ef3","6617fad957f7c6a12ea16e26","6622cc9db3478e60a989c164","
    <div id=""grid-container"">
        <!-- Grid items will be dynamically added here -->
    </div>    ","null","","","","","","","","","","","",""
"","null","html-keyboard-response","138","195563","0.0-11.0-0.16","Nm7jV7Ukaj","5fa8b4123a3f0d7a4aab8ef3","6617fad957f7c6a12ea16e26","6622cc9db3478e60a989c164","fixation cross","null","","","","","","","","","","","",""
"","968","html-keyboard-response","139","196531","0.0-11.0-1.16","Nm7jV7Ukaj","5fa8b4123a3f0d7a4aab8ef3","6617fad957f7c6a12ea16e26","6622cc9db3478e60a989c164","image grid","q","","","","","Ontogenetic_Distractor_Threat_target","ongrid","2500","q","2","Ontogenetic","true","experimental"
"","null","html-keyboard-response","140","196689","0.0-11.0-2.16","Nm7jV7Ukaj","5fa8b4123a3f0d7a4aab8ef3","6617fad957f7c6a12ea16e26","6622cc9db3478e60a989c164","
    <div id=""grid-container"">
        <!-- Grid items will be dynamically added here -->
    </div>    ","null","","","","","","","","","","","",""
"","null","html-keyboard-response","141","197407","0.0-11.0-0.17","Nm7jV7Ukaj","5fa8b4123a3f0d7a4aab8ef3","6617fad957f7c6a12ea16e26","6622cc9db3478e60a989c164","fixation cross","null","","","","","","","","","","","",""
"","1327","html-keyboard-response","142","198734","0.0-11.0-1.17","Nm7jV7Ukaj","5fa8b4123a3f0d7a4aab8ef3","6617fad957f7c6a12ea16e26","6622cc9db3478e60a989c164","image grid","q","","","","","Ontogenetic_Distractor_Threat_target","ongrid","2500","q","2","Ontogenetic","true","experimental"
"","null","html-keyboard-response","143","198892","0.0-11.0-2.17","Nm7jV7Ukaj","5fa8b4123a3f0d7a4aab8ef3","6617fad957f7c6a12ea16e26","6622cc9db3478e60a989c164","
    <div id=""grid-container"">
        <!-- Grid items will be dynamically added here -->
    </div>    ","null","","","","","","","","","","","",""
"","null","html-keyboard-response","144","199609","0.0-11.0-0.18","Nm7jV7Ukaj","5fa8b4123a3f0d7a4aab8ef3","6617fad957f7c6a12ea16e26","6622cc9db3478e60a989c164","fixation cross","null","","","","","","","","","","","",""
"","1538","html-keyboard-response","145","201148","0.0-11.0-1.18","Nm7jV7Ukaj","5fa8b4123a3f0d7a4aab8ef3","6617fad957f7c6a12ea16e26","6622cc9db3478e60a989c164","image grid","p","","","","","Ontogenetic_Distractor_Nonthreat_target","ongrid","2500","p","8","Ontogenetic","true","experimental"
"","null","html-keyboard-response","146","201299","0.0-11.0-2.18","Nm7jV7Ukaj","5fa8b4123a3f0d7a4aab8ef3","6617fad957f7c6a12ea16e26","6622cc9db3478e60a989c164","
    <div id=""grid-container"">
        <!-- Grid items will be dynamically added here -->
    </div>    ","null","","","","","","","","","","","",""
"","null","html-keyboard-response","147","202001","0.0-11.0-0.19","Nm7jV7Ukaj","5fa8b4123a3f0d7a4aab8ef3","6617fad957f7c6a12ea16e26","6622cc9db3478e60a989c164","fixation cross","null","","","","","","","","","","","",""
"","1205","html-keyboard-response","148","203207","0.0-11.0-1.19","Nm7jV7Ukaj","5fa8b4123a3f0d7a4aab8ef3","6617fad957f7c6a12ea16e26","6622cc9db3478e60a989c164","image grid","q","","","","","Ontogenetic_Distractor_Threat_target","ongrid","2500","q","7","Ontogenetic","true","experimental"
"","null","html-keyboard-response","149","203360","0.0-11.0-2.19","Nm7jV7Ukaj","5fa8b4123a3f0d7a4aab8ef3","6617fad957f7c6a12ea16e26","6622cc9db3478e60a989c164","
    <div id=""grid-container"">
        <!-- Grid items will be dynamically added here -->
    </div>    ","null","","","","","","","","","","","",""
"","null","html-keyboard-response","150","204064","0.0-11.0-0.20","Nm7jV7Ukaj","5fa8b4123a3f0d7a4aab8ef3","6617fad957f7c6a12ea16e26","6622cc9db3478e60a989c164","fixation cross","null","","","","","","","","","","","",""
"","1057","html-keyboard-response","151","205121","0.0-11.0-1.20","Nm7jV7Ukaj","5fa8b4123a3f0d7a4aab8ef3","6617fad957f7c6a12ea16e26","6622cc9db3478e60a989c164","image grid","q","","","","","Ontogenetic_Distractor_Threat_target","ongrid","2500","q","3","Ontogenetic","true","experimental"
"","null","html-keyboard-response","152","205281","0.0-11.0-2.20","Nm7jV7Ukaj","5fa8b4123a3f0d7a4aab8ef3","6617fad957f7c6a12ea16e26","6622cc9db3478e60a989c164","
    <div id=""grid-container"">
        <!-- Grid items will be dynamically added here -->
    </div>    ","null","","","","","","","","","","","",""
"","null","html-keyboard-response","153","205999","0.0-11.0-0.21","Nm7jV7Ukaj","5fa8b4123a3f0d7a4aab8ef3","6617fad957f7c6a12ea16e26","6622cc9db3478e60a989c164","fixation cross","null","","","","","","","","","","","",""
"","1335","html-keyboard-response","154","207335","0.0-11.0-1.21","Nm7jV7Ukaj","5fa8b4123a3f0d7a4aab8ef3","6617fad957f7c6a12ea16e26","6622cc9db3478e60a989c164","image grid","p","","","","","Ontogenetic_Distractor_Nonthreat_target","ongrid","2500","p","1","Ontogenetic","true","experimental"
"","null","html-keyboard-response","155","207502","0.0-11.0-2.21","Nm7jV7Ukaj","5fa8b4123a3f0d7a4aab8ef3","6617fad957f7c6a12ea16e26","6622cc9db3478e60a989c164","
    <div id=""grid-container"">
        <!-- Grid items will be dynamically added here -->
    </div>    ","null","","","","","","","","","","","",""
"","null","html-keyboard-response","156","208219","0.0-11.0-0.22","Nm7jV7Ukaj","5fa8b4123a3f0d7a4aab8ef3","6617fad957f7c6a12ea16e26","6622cc9db3478e60a989c164","fixation cross","null","","","","","","","","","","","",""
"","1813","html-keyboard-response","157","210032","0.0-11.0-1.22","Nm7jV7Ukaj","5fa8b4123a3f0d7a4aab8ef3","6617fad957f7c6a12ea16e26","6622cc9db3478e60a989c164","image grid"," ","","","","","Ontogenetic_Distractor_notarget","ongrid","2500"," ","7","Ontogenetic","true","experimental"
"","null","html-keyboard-response","158","210196","0.0-11.0-2.22","Nm7jV7Ukaj","5fa8b4123a3f0d7a4aab8ef3","6617fad957f7c6a12ea16e26","6622cc9db3478e60a989c164","
    <div id=""grid-container"">
        <!-- Grid items will be dynamically added here -->
    </div>    ","null","","","","","","","","","","","",""
"","null","html-keyboard-response","159","210922","0.0-11.0-0.23","Nm7jV7Ukaj","5fa8b4123a3f0d7a4aab8ef3","6617fad957f7c6a12ea16e26","6622cc9db3478e60a989c164","fixation cross","null","","","","","","","","","","","",""
"","922","html-keyboard-response","160","211845","0.0-11.0-1.23","Nm7jV7Ukaj","5fa8b4123a3f0d7a4aab8ef3","6617fad957f7c6a12ea16e26","6622cc9db3478e60a989c164","image grid","p","","","","","Ontogenetic_Distractor_Nonthreat_target","ongrid","2500","p","1","Ontogenetic","true","experimental"
"","null","html-keyboard-response","161","212002","0.0-11.0-2.23","Nm7jV7Ukaj","5fa8b4123a3f0d7a4aab8ef3","6617fad957f7c6a12ea16e26","6622cc9db3478e60a989c164","
    <div id=""grid-container"">
        <!-- Grid items will be dynamically added here -->
    </div>    ","null","","","","","","","","","","","",""
"","null","html-keyboard-response","162","212705","0.0-11.0-0.24","Nm7jV7Ukaj","5fa8b4123a3f0d7a4aab8ef3","6617fad957f7c6a12ea16e26","6622cc9db3478e60a989c164","fixation cross","null","","","","","","","","","","","",""
"","716","html-keyboard-response","163","213421","0.0-11.0-1.24","Nm7jV7Ukaj","5fa8b4123a3f0d7a4aab8ef3","6617fad957f7c6a12ea16e26","6622cc9db3478e60a989c164","image grid","p","","","","","Ontogenetic_Distractor_Nonthreat_target","ongrid","2500","p","1","Ontogenetic","true","experimental"
"","null","html-keyboard-response","164","213578","0.0-11.0-2.24","Nm7jV7Ukaj","5fa8b4123a3f0d7a4aab8ef3","6617fad957f7c6a12ea16e26","6622cc9db3478e60a989c164","
    <div id=""grid-container"">
        <!-- Grid items will be dynamically added here -->
    </div>    ","null","","","","","","","","","","","",""
"","null","html-keyboard-response","165","214297","0.0-11.0-0.25","Nm7jV7Ukaj","5fa8b4123a3f0d7a4aab8ef3","6617fad957f7c6a12ea16e26","6622cc9db3478e60a989c164","fixation cross","null","","","","","","","","","","","",""
"","708","html-keyboard-response","166","215005","0.0-11.0-1.25","Nm7jV7Ukaj","5fa8b4123a3f0d7a4aab8ef3","6617fad957f7c6a12ea16e26","6622cc9db3478e60a989c164","image grid","q","","","","","Ontogenetic_Distractor_Threat_target","ongrid","2500","q","2","Ontogenetic","true","experimental"
"","null","html-keyboard-response","167","215158","0.0-11.0-2.25","Nm7jV7Ukaj","5fa8b4123a3f0d7a4aab8ef3","6617fad957f7c6a12ea16e26","6622cc9db3478e60a989c164","
    <div id=""grid-container"">
        <!-- Grid items will be dynamically added here -->
    </div>    ","null","","","","","","","","","","","",""
"","null","html-keyboard-response","168","215876","0.0-11.0-0.26","Nm7jV7Ukaj","5fa8b4123a3f0d7a4aab8ef3","6617fad957f7c6a12ea16e26","6622cc9db3478e60a989c164","fixation cross","null","","","","","","","","","","","",""
"","1057","html-keyboard-response","169","216933","0.0-11.0-1.26","Nm7jV7Ukaj","5fa8b4123a3f0d7a4aab8ef3","6617fad957f7c6a12ea16e26","6622cc9db3478e60a989c164","image grid","p","","","","","Ontogenetic_Distractor_Nonthreat_target","ongrid","2500","p","5","Ontogenetic","true","experimental"
"","null","html-keyboard-response","170","217095","0.0-11.0-2.26","Nm7jV7Ukaj","5fa8b4123a3f0d7a4aab8ef3","6617fad957f7c6a12ea16e26","6622cc9db3478e60a989c164","
    <div id=""grid-container"">
        <!-- Grid items will be dynamically added here -->
    </div>    ","null","","","","","","","","","","","",""
"","null","html-keyboard-response","171","217798","0.0-11.0-0.27","Nm7jV7Ukaj","5fa8b4123a3f0d7a4aab8ef3","6617fad957f7c6a12ea16e26","6622cc9db3478e60a989c164","fixation cross","null","","","","","","","","","","","",""
"","1549","html-keyboard-response","172","219348","0.0-11.0-1.27","Nm7jV7Ukaj","5fa8b4123a3f0d7a4aab8ef3","6617fad957f7c6a12ea16e26","6622cc9db3478e60a989c164","image grid","q","","","","","Ontogenetic_Distractor_Threat_target","ongrid","2500","q","7","Ontogenetic","true","experimental"
"","null","html-keyboard-response","173","219500","0.0-11.0-2.27","Nm7jV7Ukaj","5fa8b4123a3f0d7a4aab8ef3","6617fad957f7c6a12ea16e26","6622cc9db3478e60a989c164","
    <div id=""grid-container"">
        <!-- Grid items will be dynamically added here -->
    </div>    ","null","","","","","","","","","","","",""
"","null","html-keyboard-response","174","220219","0.0-11.0-0.28","Nm7jV7Ukaj","5fa8b4123a3f0d7a4aab8ef3","6617fad957f7c6a12ea16e26","6622cc9db3478e60a989c164","fixation cross","null","","","","","","","","","","","",""
"","775","html-keyboard-response","175","220993","0.0-11.0-1.28","Nm7jV7Ukaj","5fa8b4123a3f0d7a4aab8ef3","6617fad957f7c6a12ea16e26","6622cc9db3478e60a989c164","image grid","q","","","","","Ontogenetic_Distractor_Threat_target","ongrid","2500","q","4","Ontogenetic","true","experimental"
"","null","html-keyboard-response","176","221157","0.0-11.0-2.28","Nm7jV7Ukaj","5fa8b4123a3f0d7a4aab8ef3","6617fad957f7c6a12ea16e26","6622cc9db3478e60a989c164","
    <div id=""grid-container"">
        <!-- Grid items will be dynamically added here -->
    </div>    ","null","","","","","","","","","","","",""
"","null","html-keyboard-response","177","221860","0.0-11.0-0.29","Nm7jV7Ukaj","5fa8b4123a3f0d7a4aab8ef3","6617fad957f7c6a12ea16e26","6622cc9db3478e60a989c164","fixation cross","null","","","","","","","","","","","",""
"","763","html-keyboard-response","178","222624","0.0-11.0-1.29","Nm7jV7Ukaj","5fa8b4123a3f0d7a4aab8ef3","6617fad957f7c6a12ea16e26","6622cc9db3478e60a989c164","image grid","q","","","","","Ontogenetic_Distractor_Threat_target","ongrid","2500","q","1","Ontogenetic","true","experimental"
"","null","html-keyboard-response","179","222779","0.0-11.0-2.29","Nm7jV7Ukaj","5fa8b4123a3f0d7a4aab8ef3","6617fad957f7c6a12ea16e26","6622cc9db3478e60a989c164","
    <div id=""grid-container"">
        <!-- Grid items will be dynamically added here -->
    </div>    ","null","","","","","","","","","","","",""
"","null","html-keyboard-response","180","223500","0.0-11.0-0.30","Nm7jV7Ukaj","5fa8b4123a3f0d7a4aab8ef3","6617fad957f7c6a12ea16e26","6622cc9db3478e60a989c164","fixation cross","null","","","","","","","","","","","",""
"","1190","html-keyboard-response","181","224691","0.0-11.0-1.30","Nm7jV7Ukaj","5fa8b4123a3f0d7a4aab8ef3","6617fad957f7c6a12ea16e26","6622cc9db3478e60a989c164","image grid","q","","","","","Ontogenetic_Distractor_Threat_target","ongrid","2500","q","6","Ontogenetic","true","experimental"
"","null","html-keyboard-response","182","224845","0.0-11.0-2.30","Nm7jV7Ukaj","5fa8b4123a3f0d7a4aab8ef3","6617fad957f7c6a12ea16e26","6622cc9db3478e60a989c164","
    <div id=""grid-container"">
        <!-- Grid items will be dynamically added here -->
    </div>    ","null","","","","","","","","","","","",""
"","null","html-keyboard-response","183","225563","0.0-11.0-0.31","Nm7jV7Ukaj","5fa8b4123a3f0d7a4aab8ef3","6617fad957f7c6a12ea16e26","6622cc9db3478e60a989c164","fixation cross","null","","","","","","","","","","","",""
"","965","html-keyboard-response","184","226529","0.0-11.0-1.31","Nm7jV7Ukaj","5fa8b4123a3f0d7a4aab8ef3","6617fad957f7c6a12ea16e26","6622cc9db3478e60a989c164","image grid","p","","","","","Ontogenetic_Distractor_Nonthreat_target","ongrid","2500","p","3","Ontogenetic","true","experimental"
"","null","html-keyboard-response","185","226689","0.0-11.0-2.31","Nm7jV7Ukaj","5fa8b4123a3f0d7a4aab8ef3","6617fad957f7c6a12ea16e26","6622cc9db3478e60a989c164","
    <div id=""grid-container"">
        <!-- Grid items will be dynamically added here -->
    </div>    ","null","","","","","","","","","","","",""
"","null","html-keyboard-response","186","227407","0.0-11.0-0.32","Nm7jV7Ukaj","5fa8b4123a3f0d7a4aab8ef3","6617fad957f7c6a12ea16e26","6622cc9db3478e60a989c164","fixation cross","null","","","","","","","","","","","",""
"","1174","html-keyboard-response","187","228581","0.0-11.0-1.32","Nm7jV7Ukaj","5fa8b4123a3f0d7a4aab8ef3","6617fad957f7c6a12ea16e26","6622cc9db3478e60a989c164","image grid","p","","","","","Ontogenetic_Distractor_Nonthreat_target","ongrid","2500","p","7","Ontogenetic","true","experimental"
"","null","html-keyboard-response","188","228736","0.0-11.0-2.32","Nm7jV7Ukaj","5fa8b4123a3f0d7a4aab8ef3","6617fad957f7c6a12ea16e26","6622cc9db3478e60a989c164","
    <div id=""grid-container"">
        <!-- Grid items will be dynamically added here -->
    </div>    ","null","","","","","","","","","","","",""
"","null","html-keyboard-response","189","229454","0.0-11.0-0.33","Nm7jV7Ukaj","5fa8b4123a3f0d7a4aab8ef3","6617fad957f7c6a12ea16e26","6622cc9db3478e60a989c164","fixation cross","null","","","","","","","","","","","",""
"","705","html-keyboard-response","190","230160","0.0-11.0-1.33","Nm7jV7Ukaj","5fa8b4123a3f0d7a4aab8ef3","6617fad957f7c6a12ea16e26","6622cc9db3478e60a989c164","image grid","q","","","","","Ontogenetic_Distractor_Threat_target","ongrid","2500","q","1","Ontogenetic","true","experimental"
"","null","html-keyboard-response","191","230312","0.0-11.0-2.33","Nm7jV7Ukaj","5fa8b4123a3f0d7a4aab8ef3","6617fad957f7c6a12ea16e26","6622cc9db3478e60a989c164","
    <div id=""grid-container"">
        <!-- Grid items will be dynamically added here -->
    </div>    ","null","","","","","","","","","","","",""
"","null","html-keyboard-response","192","231016","0.0-11.0-0.34","Nm7jV7Ukaj","5fa8b4123a3f0d7a4aab8ef3","6617fad957f7c6a12ea16e26","6622cc9db3478e60a989c164","fixation cross","null","","","","","","","","","","","",""
"","1024","html-keyboard-response","193","232041","0.0-11.0-1.34","Nm7jV7Ukaj","5fa8b4123a3f0d7a4aab8ef3","6617fad957f7c6a12ea16e26","6622cc9db3478e60a989c164","image grid","p","","","","","Ontogenetic_Distractor_Nonthreat_target","ongrid","2500","p","5","Ontogenetic","true","experimental"
"","null","html-keyboard-response","194","232196","0.0-11.0-2.34","Nm7jV7Ukaj","5fa8b4123a3f0d7a4aab8ef3","6617fad957f7c6a12ea16e26","6622cc9db3478e60a989c164","
    <div id=""grid-container"">
        <!-- Grid items will be dynamically added here -->
    </div>    ","null","","","","","","","","","","","",""
"","null","html-keyboard-response","195","232908","0.0-11.0-0.35","Nm7jV7Ukaj","5fa8b4123a3f0d7a4aab8ef3","6617fad957f7c6a12ea16e26","6622cc9db3478e60a989c164","fixation cross","null","","","","","","","","","","","",""
"","1133","html-keyboard-response","196","234041","0.0-11.0-1.35","Nm7jV7Ukaj","5fa8b4123a3f0d7a4aab8ef3","6617fad957f7c6a12ea16e26","6622cc9db3478e60a989c164","image grid","q","","","","","Ontogenetic_Distractor_Threat_target","ongrid","2500","q","5","Ontogenetic","true","experimental"
"","null","html-keyboard-response","197","234200","0.0-11.0-2.35","Nm7jV7Ukaj","5fa8b4123a3f0d7a4aab8ef3","6617fad957f7c6a12ea16e26","6622cc9db3478e60a989c164","
    <div id=""grid-container"">
        <!-- Grid items will be dynamically added here -->
    </div>    ","null","","","","","","","","","","","",""
"","null","html-keyboard-response","198","234908","0.0-11.0-0.36","Nm7jV7Ukaj","5fa8b4123a3f0d7a4aab8ef3","6617fad957f7c6a12ea16e26","6622cc9db3478e60a989c164","fixation cross","null","","","","","","","","","","","",""
"","889","html-keyboard-response","199","235798","0.0-11.0-1.36","Nm7jV7Ukaj","5fa8b4123a3f0d7a4aab8ef3","6617fad957f7c6a12ea16e26","6622cc9db3478e60a989c164","image grid","p","","","","","Ontogenetic_Distractor_Nonthreat_target","ongrid","2500","p","1","Ontogenetic","true","experimental"
"","null","html-keyboard-response","200","235950","0.0-11.0-2.36","Nm7jV7Ukaj","5fa8b4123a3f0d7a4aab8ef3","6617fad957f7c6a12ea16e26","6622cc9db3478e60a989c164","
    <div id=""grid-container"">
        <!-- Grid items will be dynamically added here -->
    </div>    ","null","","","","","","","","","","","",""
"","null","html-keyboard-response","201","236665","0.0-11.0-0.37","Nm7jV7Ukaj","5fa8b4123a3f0d7a4aab8ef3","6617fad957f7c6a12ea16e26","6622cc9db3478e60a989c164","fixation cross","null","","","","","","","","","","","",""
"","2129","html-keyboard-response","202","238795","0.0-11.0-1.37","Nm7jV7Ukaj","5fa8b4123a3f0d7a4aab8ef3","6617fad957f7c6a12ea16e26","6622cc9db3478e60a989c164","image grid"," ","","","","","Ontogenetic_Distractor_notarget","ongrid","2500"," ","5","Ontogenetic","true","experimental"
"","null","html-keyboard-response","203","238947","0.0-11.0-2.37","Nm7jV7Ukaj","5fa8b4123a3f0d7a4aab8ef3","6617fad957f7c6a12ea16e26","6622cc9db3478e60a989c164","
    <div id=""grid-container"">
        <!-- Grid items will be dynamically added here -->
    </div>    ","null","","","","","","","","","","","",""
"","null","html-keyboard-response","204","239656","0.0-11.0-0.38","Nm7jV7Ukaj","5fa8b4123a3f0d7a4aab8ef3","6617fad957f7c6a12ea16e26","6622cc9db3478e60a989c164","fixation cross","null","","","","","","","","","","","",""
"","821","html-keyboard-response","205","240477","0.0-11.0-1.38","Nm7jV7Ukaj","5fa8b4123a3f0d7a4aab8ef3","6617fad957f7c6a12ea16e26","6622cc9db3478e60a989c164","image grid","q","","","","","Ontogenetic_Distractor_Threat_target","ongrid","2500","q","3","Ontogenetic","true","experimental"
"","null","html-keyboard-response","206","240640","0.0-11.0-2.38","Nm7jV7Ukaj","5fa8b4123a3f0d7a4aab8ef3","6617fad957f7c6a12ea16e26","6622cc9db3478e60a989c164","
    <div id=""grid-container"">
        <!-- Grid items will be dynamically added here -->
    </div>    ","null","","","","","","","","","","","",""
"","null","html-keyboard-response","207","241345","0.0-11.0-0.39","Nm7jV7Ukaj","5fa8b4123a3f0d7a4aab8ef3","6617fad957f7c6a12ea16e26","6622cc9db3478e60a989c164","fixation cross","null","","","","","","","","","","","",""
"","678","html-keyboard-response","208","242023","0.0-11.0-1.39","Nm7jV7Ukaj","5fa8b4123a3f0d7a4aab8ef3","6617fad957f7c6a12ea16e26","6622cc9db3478e60a989c164","image grid","p","","","","","Ontogenetic_Distractor_Nonthreat_target","ongrid","2500","p","3","Ontogenetic","true","experimental"
"","null","html-keyboard-response","209","242188","0.0-11.0-2.39","Nm7jV7Ukaj","5fa8b4123a3f0d7a4aab8ef3","6617fad957f7c6a12ea16e26","6622cc9db3478e60a989c164","
    <div id=""grid-container"">
        <!-- Grid items will be dynamically added here -->
    </div>    ","null","","","","","","","","","","","",""
"","2523","html-keyboard-response","210","244944","0.0-12.0","Nm7jV7Ukaj","5fa8b4123a3f0d7a4aab8ef3","6617fad957f7c6a12ea16e26","6622cc9db3478e60a989c164","break screen"," ","","","","","","","","","","","",""
"","null","html-keyboard-response","211","247470","0.0-13.0-0.0","Nm7jV7Ukaj","5fa8b4123a3f0d7a4aab8ef3","6617fad957f7c6a12ea16e26","6622cc9db3478e60a989c164","fixation cross","null","","","","","","","","","","","",""
"","null","html-keyboard-response","212","248284","0.0-13.0-1.0","Nm7jV7Ukaj","5fa8b4123a3f0d7a4aab8ef3","6617fad957f7c6a12ea16e26","6622cc9db3478e60a989c164","
        <div id=""grid-container"">
        <!-- Grid items will be dynamically added here -->
    </div>    ","null","","","","","","","","","","","",""
"","938","html-keyboard-response","213","248423","0.0-13.0-2.0","Nm7jV7Ukaj","5fa8b4123a3f0d7a4aab8ef3","6617fad957f7c6a12ea16e26","6622cc9db3478e60a989c164","mask grid","p","","","","","Ontogenetic_Distractor_Nonthreat_target","onmask","800","p","3","Ontogenetic","true","experimental"
"","null","html-keyboard-response","214","249142","0.0-13.0-0.1","Nm7jV7Ukaj","5fa8b4123a3f0d7a4aab8ef3","6617fad957f7c6a12ea16e26","6622cc9db3478e60a989c164","fixation cross","null","","","","","","","","","","","",""
"","null","html-keyboard-response","215","249955","0.0-13.0-1.1","Nm7jV7Ukaj","5fa8b4123a3f0d7a4aab8ef3","6617fad957f7c6a12ea16e26","6622cc9db3478e60a989c164","
        <div id=""grid-container"">
        <!-- Grid items will be dynamically added here -->
    </div>    ","null","","","","","","","","","","","",""
"","1326","html-keyboard-response","216","250481","0.0-13.0-2.1","Nm7jV7Ukaj","5fa8b4123a3f0d7a4aab8ef3","6617fad957f7c6a12ea16e26","6622cc9db3478e60a989c164","mask grid"," ","","","","","Ontogenetic_Distractor_notarget","onmask","800"," ","4","Ontogenetic","true","experimental"
"","null","html-keyboard-response","217","251204","0.0-13.0-0.2","Nm7jV7Ukaj","5fa8b4123a3f0d7a4aab8ef3","6617fad957f7c6a12ea16e26","6622cc9db3478e60a989c164","fixation cross","null","","","","","","","","","","","",""
"","null","html-keyboard-response","218","252018","0.0-13.0-1.2","Nm7jV7Ukaj","5fa8b4123a3f0d7a4aab8ef3","6617fad957f7c6a12ea16e26","6622cc9db3478e60a989c164","
        <div id=""grid-container"">
        <!-- Grid items will be dynamically added here -->
    </div>    ","null","","","","","","","","","","","",""
"","1155","html-keyboard-response","219","252373","0.0-13.0-2.2","Nm7jV7Ukaj","5fa8b4123a3f0d7a4aab8ef3","6617fad957f7c6a12ea16e26","6622cc9db3478e60a989c164","mask grid","p","","","","","Ontogenetic_Distractor_Nonthreat_target","onmask","800","p","4","Ontogenetic","true","experimental"
"","null","html-keyboard-response","220","253079","0.0-13.0-0.3","Nm7jV7Ukaj","5fa8b4123a3f0d7a4aab8ef3","6617fad957f7c6a12ea16e26","6622cc9db3478e60a989c164","fixation cross","null","","","","","","","","","","","",""
"","null","html-keyboard-response","221","253892","0.0-13.0-1.3","Nm7jV7Ukaj","5fa8b4123a3f0d7a4aab8ef3","6617fad957f7c6a12ea16e26","6622cc9db3478e60a989c164","
        <div id=""grid-container"">
        <!-- Grid items will be dynamically added here -->
    </div>    ","null","","","","","","","","","","","",""
"","844","html-keyboard-response","222","253936","0.0-13.0-2.3","Nm7jV7Ukaj","5fa8b4123a3f0d7a4aab8ef3","6617fad957f7c6a12ea16e26","6622cc9db3478e60a989c164","mask grid","q","","","","","Ontogenetic_Distractor_Threat_target","onmask","800","q","4","Ontogenetic","true","experimental"
"","null","html-keyboard-response","223","254656","0.0-13.0-0.4","Nm7jV7Ukaj","5fa8b4123a3f0d7a4aab8ef3","6617fad957f7c6a12ea16e26","6622cc9db3478e60a989c164","fixation cross","null","","","","","","","","","","","",""
"","758","html-keyboard-response","224","255415","0.0-13.0-1.4","Nm7jV7Ukaj","5fa8b4123a3f0d7a4aab8ef3","6617fad957f7c6a12ea16e26","6622cc9db3478e60a989c164","image grid","q","","","","","Ontogenetic_Distractor_Threat_target","ongrid","800","q","7","Ontogenetic","true","experimental"
"","null","html-keyboard-response","225","255578","0.0-13.0-2.4","Nm7jV7Ukaj","5fa8b4123a3f0d7a4aab8ef3","6617fad957f7c6a12ea16e26","6622cc9db3478e60a989c164","
    <div id=""grid-container"">
        <!-- Grid items will be dynamically added here -->
    </div>    ","null","","","","","","","","","","","",""
"","null","html-keyboard-response","226","256297","0.0-13.0-0.5","Nm7jV7Ukaj","5fa8b4123a3f0d7a4aab8ef3","6617fad957f7c6a12ea16e26","6622cc9db3478e60a989c164","fixation cross","null","","","","","","","","","","","",""
"","628","html-keyboard-response","227","256926","0.0-13.0-1.5","Nm7jV7Ukaj","5fa8b4123a3f0d7a4aab8ef3","6617fad957f7c6a12ea16e26","6622cc9db3478e60a989c164","image grid","q","","","","","Ontogenetic_Distractor_Threat_target","ongrid","800","q","7","Ontogenetic","true","experimental"
"","null","html-keyboard-response","228","257079","0.0-13.0-2.5","Nm7jV7Ukaj","5fa8b4123a3f0d7a4aab8ef3","6617fad957f7c6a12ea16e26","6622cc9db3478e60a989c164","
    <div id=""grid-container"">
        <!-- Grid items will be dynamically added here -->
    </div>    ","null","","","","","","","","","","","",""
"","null","html-keyboard-response","229","257796","0.0-13.0-0.6","Nm7jV7Ukaj","5fa8b4123a3f0d7a4aab8ef3","6617fad957f7c6a12ea16e26","6622cc9db3478e60a989c164","fixation cross","null","","","","","","","","","","","",""
"","null","html-keyboard-response","230","258610","0.0-13.0-1.6","Nm7jV7Ukaj","5fa8b4123a3f0d7a4aab8ef3","6617fad957f7c6a12ea16e26","6622cc9db3478e60a989c164","
        <div id=""grid-container"">
        <!-- Grid items will be dynamically added here -->
    </div>    ","null","","","","","","","","","","","",""
"","1249","html-keyboard-response","231","259060","0.0-13.0-2.6","Nm7jV7Ukaj","5fa8b4123a3f0d7a4aab8ef3","6617fad957f7c6a12ea16e26","6622cc9db3478e60a989c164","mask grid","q","","","","","Ontogenetic_Distractor_Threat_target","onmask","800","q","6","Ontogenetic","true","experimental"
"","null","html-keyboard-response","232","259782","0.0-13.0-0.7","Nm7jV7Ukaj","5fa8b4123a3f0d7a4aab8ef3","6617fad957f7c6a12ea16e26","6622cc9db3478e60a989c164","fixation cross","null","","","","","","","","","","","",""
"","null","html-keyboard-response","233","260594","0.0-13.0-1.7","Nm7jV7Ukaj","5fa8b4123a3f0d7a4aab8ef3","6617fad957f7c6a12ea16e26","6622cc9db3478e60a989c164","
        <div id=""grid-container"">
        <!-- Grid items will be dynamically added here -->
    </div>    ","null","","","","","","","","","","","",""
"","1100","html-keyboard-response","234","260895","0.0-13.0-2.7","Nm7jV7Ukaj","5fa8b4123a3f0d7a4aab8ef3","6617fad957f7c6a12ea16e26","6622cc9db3478e60a989c164","mask grid","q","","","","","Ontogenetic_Distractor_Threat_target","onmask","800","q","2","Ontogenetic","true","experimental"
"","null","html-keyboard-response","235","261611","0.0-13.0-0.8","Nm7jV7Ukaj","5fa8b4123a3f0d7a4aab8ef3","6617fad957f7c6a12ea16e26","6622cc9db3478e60a989c164","fixation cross","null","","","","","","","","","","","",""
"","null","html-keyboard-response","236","262424","0.0-13.0-1.8","Nm7jV7Ukaj","5fa8b4123a3f0d7a4aab8ef3","6617fad957f7c6a12ea16e26","6622cc9db3478e60a989c164","
        <div id=""grid-container"">
        <!-- Grid items will be dynamically added here -->
    </div>    ","null","","","","","","","","","","","",""
"","1191","html-keyboard-response","237","262815","0.0-13.0-2.8","Nm7jV7Ukaj","5fa8b4123a3f0d7a4aab8ef3","6617fad957f7c6a12ea16e26","6622cc9db3478e60a989c164","mask grid"," ","","","","","Ontogenetic_Distractor_notarget","onmask","800"," ","7","Ontogenetic","true","experimental"
"","null","html-keyboard-response","238","263533","0.0-13.0-0.9","Nm7jV7Ukaj","5fa8b4123a3f0d7a4aab8ef3","6617fad957f7c6a12ea16e26","6622cc9db3478e60a989c164","fixation cross","null","","","","","","","","","","","",""
"","null","html-keyboard-response","239","264345","0.0-13.0-1.9","Nm7jV7Ukaj","5fa8b4123a3f0d7a4aab8ef3","6617fad957f7c6a12ea16e26","6622cc9db3478e60a989c164","
        <div id=""grid-container"">
        <!-- Grid items will be dynamically added here -->
    </div>    ","null","","","","","","","","","","","",""
"","1246","html-keyboard-response","240","264792","0.0-13.0-2.9","Nm7jV7Ukaj","5fa8b4123a3f0d7a4aab8ef3","6617fad957f7c6a12ea16e26","6622cc9db3478e60a989c164","mask grid","q","","","","","Ontogenetic_Distractor_Threat_target","onmask","800","q","5","Ontogenetic","true","experimental"
"","null","html-keyboard-response","241","265501","0.0-13.0-0.10","Nm7jV7Ukaj","5fa8b4123a3f0d7a4aab8ef3","6617fad957f7c6a12ea16e26","6622cc9db3478e60a989c164","fixation cross","null","","","","","","","","","","","",""
"","null","html-keyboard-response","242","266313","0.0-13.0-1.10","Nm7jV7Ukaj","5fa8b4123a3f0d7a4aab8ef3","6617fad957f7c6a12ea16e26","6622cc9db3478e60a989c164","
        <div id=""grid-container"">
        <!-- Grid items will be dynamically added here -->
    </div>    ","null","","","","","","","","","","","",""
"","829","html-keyboard-response","243","266342","0.0-13.0-2.10","Nm7jV7Ukaj","5fa8b4123a3f0d7a4aab8ef3","6617fad957f7c6a12ea16e26","6622cc9db3478e60a989c164","mask grid","q","","","","","Ontogenetic_Distractor_Threat_target","onmask","800","q","6","Ontogenetic","true","experimental"
"","null","html-keyboard-response","244","267063","0.0-13.0-0.11","Nm7jV7Ukaj","5fa8b4123a3f0d7a4aab8ef3","6617fad957f7c6a12ea16e26","6622cc9db3478e60a989c164","fixation cross","null","","","","","","","","","","","",""
"","null","html-keyboard-response","245","267877","0.0-13.0-1.11","Nm7jV7Ukaj","5fa8b4123a3f0d7a4aab8ef3","6617fad957f7c6a12ea16e26","6622cc9db3478e60a989c164","
        <div id=""grid-container"">
        <!-- Grid items will be dynamically added here -->
    </div>    ","null","","","","","","","","","","","",""
"","1063","html-keyboard-response","246","268140","0.0-13.0-2.11","Nm7jV7Ukaj","5fa8b4123a3f0d7a4aab8ef3","6617fad957f7c6a12ea16e26","6622cc9db3478e60a989c164","mask grid","q","","","","","Ontogenetic_Distractor_Threat_target","onmask","800","q","7","Ontogenetic","true","experimental"
"","null","html-keyboard-response","247","268845","0.0-13.0-0.12","Nm7jV7Ukaj","5fa8b4123a3f0d7a4aab8ef3","6617fad957f7c6a12ea16e26","6622cc9db3478e60a989c164","fixation cross","null","","","","","","","","","","","",""
"","null","html-keyboard-response","248","269657","0.0-13.0-1.12","Nm7jV7Ukaj","5fa8b4123a3f0d7a4aab8ef3","6617fad957f7c6a12ea16e26","6622cc9db3478e60a989c164","
        <div id=""grid-container"">
        <!-- Grid items will be dynamically added here -->
    </div>    ","null","","","","","","","","","","","",""
"","1173","html-keyboard-response","249","270031","0.0-13.0-2.12","Nm7jV7Ukaj","5fa8b4123a3f0d7a4aab8ef3","6617fad957f7c6a12ea16e26","6622cc9db3478e60a989c164","mask grid"," ","","","","","Ontogenetic_Distractor_notarget","onmask","800"," ","9","Ontogenetic","true","experimental"
"","null","html-keyboard-response","250","270740","0.0-13.0-0.13","Nm7jV7Ukaj","5fa8b4123a3f0d7a4aab8ef3","6617fad957f7c6a12ea16e26","6622cc9db3478e60a989c164","fixation cross","null","","","","","","","","","","","",""
"","null","html-keyboard-response","251","271547","0.0-13.0-1.13","Nm7jV7Ukaj","5fa8b4123a3f0d7a4aab8ef3","6617fad957f7c6a12ea16e26","6622cc9db3478e60a989c164","
        <div id=""grid-container"">
        <!-- Grid items will be dynamically added here -->
    </div>    ","null","","","","","","","","","","","",""
"","943","html-keyboard-response","252","271691","0.0-13.0-2.13","Nm7jV7Ukaj","5fa8b4123a3f0d7a4aab8ef3","6617fad957f7c6a12ea16e26","6622cc9db3478e60a989c164","mask grid","p","","","","","Ontogenetic_Distractor_Nonthreat_target","onmask","800","p","7","Ontogenetic","true","experimental"
"","null","html-keyboard-response","253","272405","0.0-13.0-0.14","Nm7jV7Ukaj","5fa8b4123a3f0d7a4aab8ef3","6617fad957f7c6a12ea16e26","6622cc9db3478e60a989c164","fixation cross","null","","","","","","","","","","","",""
"","null","html-keyboard-response","254","273221","0.0-13.0-1.14","Nm7jV7Ukaj","5fa8b4123a3f0d7a4aab8ef3","6617fad957f7c6a12ea16e26","6622cc9db3478e60a989c164","
        <div id=""grid-container"">
        <!-- Grid items will be dynamically added here -->
    </div>    ","null","","","","","","","","","","","",""
"","808","html-keyboard-response","255","273230","0.0-13.0-2.14","Nm7jV7Ukaj","5fa8b4123a3f0d7a4aab8ef3","6617fad957f7c6a12ea16e26","6622cc9db3478e60a989c164","mask grid","q","","","","","Ontogenetic_Distractor_Threat_target","onmask","800","q","3","Ontogenetic","true","experimental"
"","null","html-keyboard-response","256","273953","0.0-13.0-0.15","Nm7jV7Ukaj","5fa8b4123a3f0d7a4aab8ef3","6617fad957f7c6a12ea16e26","6622cc9db3478e60a989c164","fixation cross","null","","","","","","","","","","","",""
"","613","html-keyboard-response","257","274566","0.0-13.0-1.15","Nm7jV7Ukaj","5fa8b4123a3f0d7a4aab8ef3","6617fad957f7c6a12ea16e26","6622cc9db3478e60a989c164","image grid","q","","","","","Ontogenetic_Distractor_Threat_target","ongrid","800","q","4","Ontogenetic","true","experimental"
"","null","html-keyboard-response","258","274722","0.0-13.0-2.15","Nm7jV7Ukaj","5fa8b4123a3f0d7a4aab8ef3","6617fad957f7c6a12ea16e26","6622cc9db3478e60a989c164","
    <div id=""grid-container"">
        <!-- Grid items will be dynamically added here -->
    </div>    ","null","","","","","","","","","","","",""
"","null","html-keyboard-response","259","275437","0.0-13.0-0.16","Nm7jV7Ukaj","5fa8b4123a3f0d7a4aab8ef3","6617fad957f7c6a12ea16e26","6622cc9db3478e60a989c164","fixation cross","null","","","","","","","","","","","",""
"","647","html-keyboard-response","260","276084","0.0-13.0-1.16","Nm7jV7Ukaj","5fa8b4123a3f0d7a4aab8ef3","6617fad957f7c6a12ea16e26","6622cc9db3478e60a989c164","image grid","q","","","","","Ontogenetic_Distractor_Threat_target","ongrid","800","q","5","Ontogenetic","true","experimental"
"","null","html-keyboard-response","261","276236","0.0-13.0-2.16","Nm7jV7Ukaj","5fa8b4123a3f0d7a4aab8ef3","6617fad957f7c6a12ea16e26","6622cc9db3478e60a989c164","
    <div id=""grid-container"">
        <!-- Grid items will be dynamically added here -->
    </div>    ","null","","","","","","","","","","","",""
"","null","html-keyboard-response","262","276955","0.0-13.0-0.17","Nm7jV7Ukaj","5fa8b4123a3f0d7a4aab8ef3","6617fad957f7c6a12ea16e26","6622cc9db3478e60a989c164","fixation cross","null","","","","","","","","","","","",""
"","null","html-keyboard-response","263","277767","0.0-13.0-1.17","Nm7jV7Ukaj","5fa8b4123a3f0d7a4aab8ef3","6617fad957f7c6a12ea16e26","6622cc9db3478e60a989c164","
        <div id=""grid-container"">
        <!-- Grid items will be dynamically added here -->
    </div>    ","null","","","","","","","","","","","",""
"","1435","html-keyboard-response","264","278403","0.0-13.0-2.17","Nm7jV7Ukaj","5fa8b4123a3f0d7a4aab8ef3","6617fad957f7c6a12ea16e26","6622cc9db3478e60a989c164","mask grid","p","","","","","Ontogenetic_Distractor_Nonthreat_target","onmask","800","p","3","Ontogenetic","true","experimental"
"","null","html-keyboard-response","265","279124","0.0-13.0-0.18","Nm7jV7Ukaj","5fa8b4123a3f0d7a4aab8ef3","6617fad957f7c6a12ea16e26","6622cc9db3478e60a989c164","fixation cross","null","","","","","","","","","","","",""
"","null","html-keyboard-response","266","279939","0.0-13.0-1.18","Nm7jV7Ukaj","5fa8b4123a3f0d7a4aab8ef3","6617fad957f7c6a12ea16e26","6622cc9db3478e60a989c164","
        <div id=""grid-container"">
        <!-- Grid items will be dynamically added here -->
    </div>    ","null","","","","","","","","","","","",""
"","874","html-keyboard-response","267","280014","0.0-13.0-2.18","Nm7jV7Ukaj","5fa8b4123a3f0d7a4aab8ef3","6617fad957f7c6a12ea16e26","6622cc9db3478e60a989c164","mask grid","q","","","","","Ontogenetic_Distractor_Threat_target","onmask","800","q","1","Ontogenetic","true","experimental"
"","null","html-keyboard-response","268","280718","0.0-13.0-0.19","Nm7jV7Ukaj","5fa8b4123a3f0d7a4aab8ef3","6617fad957f7c6a12ea16e26","6622cc9db3478e60a989c164","fixation cross","null","","","","","","","","","","","",""
"","788","html-keyboard-response","269","281507","0.0-13.0-1.19","Nm7jV7Ukaj","5fa8b4123a3f0d7a4aab8ef3","6617fad957f7c6a12ea16e26","6622cc9db3478e60a989c164","image grid","p","","","","","Ontogenetic_Distractor_Nonthreat_target","ongrid","800","p","1","Ontogenetic","true","experimental"
"","null","html-keyboard-response","270","281658","0.0-13.0-2.19","Nm7jV7Ukaj","5fa8b4123a3f0d7a4aab8ef3","6617fad957f7c6a12ea16e26","6622cc9db3478e60a989c164","
    <div id=""grid-container"">
        <!-- Grid items will be dynamically added here -->
    </div>    ","null","","","","","","","","","","","",""
"","null","html-keyboard-response","271","282376","0.0-13.0-0.20","Nm7jV7Ukaj","5fa8b4123a3f0d7a4aab8ef3","6617fad957f7c6a12ea16e26","6622cc9db3478e60a989c164","fixation cross","null","","","","","","","","","","","",""
"","null","html-keyboard-response","272","283189","0.0-13.0-1.20","Nm7jV7Ukaj","5fa8b4123a3f0d7a4aab8ef3","6617fad957f7c6a12ea16e26","6622cc9db3478e60a989c164","
        <div id=""grid-container"">
        <!-- Grid items will be dynamically added here -->
    </div>    ","null","","","","","","","","","","","",""
"","1606","html-keyboard-response","273","283995","0.0-13.0-2.20","Nm7jV7Ukaj","5fa8b4123a3f0d7a4aab8ef3","6617fad957f7c6a12ea16e26","6622cc9db3478e60a989c164","mask grid","p","","","","","Ontogenetic_Distractor_Nonthreat_target","onmask","800","p","8","Ontogenetic","true","experimental"
"","null","html-keyboard-response","274","284718","0.0-13.0-0.21","Nm7jV7Ukaj","5fa8b4123a3f0d7a4aab8ef3","6617fad957f7c6a12ea16e26","6622cc9db3478e60a989c164","fixation cross","null","","","","","","","","","","","",""
"","null","html-keyboard-response","275","285532","0.0-13.0-1.21","Nm7jV7Ukaj","5fa8b4123a3f0d7a4aab8ef3","6617fad957f7c6a12ea16e26","6622cc9db3478e60a989c164","
        <div id=""grid-container"">
        <!-- Grid items will be dynamically added here -->
    </div>    ","null","","","","","","","","","","","",""
"","849","html-keyboard-response","276","285582","0.0-13.0-2.21","Nm7jV7Ukaj","5fa8b4123a3f0d7a4aab8ef3","6617fad957f7c6a12ea16e26","6622cc9db3478e60a989c164","mask grid","q","","","","","Ontogenetic_Distractor_Threat_target","onmask","800","q","4","Ontogenetic","true","experimental"
"","null","html-keyboard-response","277","286298","0.0-13.0-0.22","Nm7jV7Ukaj","5fa8b4123a3f0d7a4aab8ef3","6617fad957f7c6a12ea16e26","6622cc9db3478e60a989c164","fixation cross","null","","","","","","","","","","","",""
"","null","html-keyboard-response","278","287111","0.0-13.0-1.22","Nm7jV7Ukaj","5fa8b4123a3f0d7a4aab8ef3","6617fad957f7c6a12ea16e26","6622cc9db3478e60a989c164","
        <div id=""grid-container"">
        <!-- Grid items will be dynamically added here -->
    </div>    ","null","","","","","","","","","","","",""
"","896","html-keyboard-response","279","287207","0.0-13.0-2.22","Nm7jV7Ukaj","5fa8b4123a3f0d7a4aab8ef3","6617fad957f7c6a12ea16e26","6622cc9db3478e60a989c164","mask grid","p","","","","","Ontogenetic_Distractor_Nonthreat_target","onmask","800","p","2","Ontogenetic","true","experimental"
"","null","html-keyboard-response","280","287939","0.0-13.0-0.23","Nm7jV7Ukaj","5fa8b4123a3f0d7a4aab8ef3","6617fad957f7c6a12ea16e26","6622cc9db3478e60a989c164","fixation cross","null","","","","","","","","","","","",""
"","null","html-keyboard-response","281","288752","0.0-13.0-1.23","Nm7jV7Ukaj","5fa8b4123a3f0d7a4aab8ef3","6617fad957f7c6a12ea16e26","6622cc9db3478e60a989c164","
        <div id=""grid-container"">
        <!-- Grid items will be dynamically added here -->
    </div>    ","null","","","","","","","","","","","",""
"","973","html-keyboard-response","282","288925","0.0-13.0-2.23","Nm7jV7Ukaj","5fa8b4123a3f0d7a4aab8ef3","6617fad957f7c6a12ea16e26","6622cc9db3478e60a989c164","mask grid","p","","","","","Ontogenetic_Distractor_Nonthreat_target","onmask","800","p","4","Ontogenetic","true","experimental"
"","null","html-keyboard-response","283","289642","0.0-13.0-0.24","Nm7jV7Ukaj","5fa8b4123a3f0d7a4aab8ef3","6617fad957f7c6a12ea16e26","6622cc9db3478e60a989c164","fixation cross","null","","","","","","","","","","","",""
"","null","html-keyboard-response","284","290452","0.0-13.0-1.24","Nm7jV7Ukaj","5fa8b4123a3f0d7a4aab8ef3","6617fad957f7c6a12ea16e26","6622cc9db3478e60a989c164","
        <div id=""grid-container"">
        <!-- Grid items will be dynamically added here -->
    </div>    ","null","","","","","","","","","","","",""
"","1787","html-keyboard-response","285","291439","0.0-13.0-2.24","Nm7jV7Ukaj","5fa8b4123a3f0d7a4aab8ef3","6617fad957f7c6a12ea16e26","6622cc9db3478e60a989c164","mask grid","p","","","","","Ontogenetic_Distractor_Nonthreat_target","onmask","800","p","9","Ontogenetic","true","experimental"
"","null","html-keyboard-response","286","292142","0.0-13.0-0.25","Nm7jV7Ukaj","5fa8b4123a3f0d7a4aab8ef3","6617fad957f7c6a12ea16e26","6622cc9db3478e60a989c164","fixation cross","null","","","","","","","","","","","",""
"","null","html-keyboard-response","287","292953","0.0-13.0-1.25","Nm7jV7Ukaj","5fa8b4123a3f0d7a4aab8ef3","6617fad957f7c6a12ea16e26","6622cc9db3478e60a989c164","
        <div id=""grid-container"">
        <!-- Grid items will be dynamically added here -->
    </div>    ","null","","","","","","","","","","","",""
"","1897","html-keyboard-response","288","294051","0.0-13.0-2.25","Nm7jV7Ukaj","5fa8b4123a3f0d7a4aab8ef3","6617fad957f7c6a12ea16e26","6622cc9db3478e60a989c164","mask grid"," ","","","","","Ontogenetic_Distractor_Nonthreat_target","onmask","800","p","4","Ontogenetic","false","experimental"
"","null","html-keyboard-response","289","294783","0.0-13.0-0.26","Nm7jV7Ukaj","5fa8b4123a3f0d7a4aab8ef3","6617fad957f7c6a12ea16e26","6622cc9db3478e60a989c164","fixation cross","null","","","","","","","","","","","",""
"","null","html-keyboard-response","290","295596","0.0-13.0-1.26","Nm7jV7Ukaj","5fa8b4123a3f0d7a4aab8ef3","6617fad957f7c6a12ea16e26","6622cc9db3478e60a989c164","
        <div id=""grid-container"">
        <!-- Grid items will be dynamically added here -->
    </div>    ","null","","","","","","","","","","","",""
"","1178","html-keyboard-response","291","295973","0.0-13.0-2.26","Nm7jV7Ukaj","5fa8b4123a3f0d7a4aab8ef3","6617fad957f7c6a12ea16e26","6622cc9db3478e60a989c164","mask grid"," ","","","","","Ontogenetic_Distractor_notarget","onmask","800"," ","3","Ontogenetic","true","experimental"
"","null","html-keyboard-response","292","296689","0.0-13.0-0.27","Nm7jV7Ukaj","5fa8b4123a3f0d7a4aab8ef3","6617fad957f7c6a12ea16e26","6622cc9db3478e60a989c164","fixation cross","null","","","","","","","","","","","",""
"","667","html-keyboard-response","293","297356","0.0-13.0-1.27","Nm7jV7Ukaj","5fa8b4123a3f0d7a4aab8ef3","6617fad957f7c6a12ea16e26","6622cc9db3478e60a989c164","image grid","p","","","","","Ontogenetic_Distractor_Nonthreat_target","ongrid","800","p","4","Ontogenetic","true","experimental"
"","null","html-keyboard-response","294","297517","0.0-13.0-2.27","Nm7jV7Ukaj","5fa8b4123a3f0d7a4aab8ef3","6617fad957f7c6a12ea16e26","6622cc9db3478e60a989c164","
    <div id=""grid-container"">
        <!-- Grid items will be dynamically added here -->
    </div>    ","null","","","","","","","","","","","",""
"","null","html-keyboard-response","295","298234","0.0-13.0-0.28","Nm7jV7Ukaj","5fa8b4123a3f0d7a4aab8ef3","6617fad957f7c6a12ea16e26","6622cc9db3478e60a989c164","fixation cross","null","","","","","","","","","","","",""
"","null","html-keyboard-response","296","299049","0.0-13.0-1.28","Nm7jV7Ukaj","5fa8b4123a3f0d7a4aab8ef3","6617fad957f7c6a12ea16e26","6622cc9db3478e60a989c164","
        <div id=""grid-container"">
        <!-- Grid items will be dynamically added here -->
    </div>    ","null","","","","","","","","","","","",""
"","880","html-keyboard-response","297","299130","0.0-13.0-2.28","Nm7jV7Ukaj","5fa8b4123a3f0d7a4aab8ef3","6617fad957f7c6a12ea16e26","6622cc9db3478e60a989c164","mask grid","p","","","","","Ontogenetic_Distractor_Nonthreat_target","onmask","800","p","9","Ontogenetic","true","experimental"
"","null","html-keyboard-response","298","299843","0.0-13.0-0.29","Nm7jV7Ukaj","5fa8b4123a3f0d7a4aab8ef3","6617fad957f7c6a12ea16e26","6622cc9db3478e60a989c164","fixation cross","null","","","","","","","","","","","",""
"","686","html-keyboard-response","299","300529","0.0-13.0-1.29","Nm7jV7Ukaj","5fa8b4123a3f0d7a4aab8ef3","6617fad957f7c6a12ea16e26","6622cc9db3478e60a989c164","image grid","p","","","","","Ontogenetic_Distractor_Nonthreat_target","ongrid","800","p","2","Ontogenetic","true","experimental"
"","null","html-keyboard-response","300","300686","0.0-13.0-2.29","Nm7jV7Ukaj","5fa8b4123a3f0d7a4aab8ef3","6617fad957f7c6a12ea16e26","6622cc9db3478e60a989c164","
    <div id=""grid-container"">
        <!-- Grid items will be dynamically added here -->
    </div>    ","null","","","","","","","","","","","",""
"","null","html-keyboard-response","301","301405","0.0-13.0-0.30","Nm7jV7Ukaj","5fa8b4123a3f0d7a4aab8ef3","6617fad957f7c6a12ea16e26","6622cc9db3478e60a989c164","fixation cross","null","","","","","","","","","","","",""
"","null","html-keyboard-response","302","302220","0.0-13.0-1.30","Nm7jV7Ukaj","5fa8b4123a3f0d7a4aab8ef3","6617fad957f7c6a12ea16e26","6622cc9db3478e60a989c164","
        <div id=""grid-container"">
        <!-- Grid items will be dynamically added here -->
    </div>    ","null","","","","","","","","","","","",""
"","974","html-keyboard-response","303","302395","0.0-13.0-2.30","Nm7jV7Ukaj","5fa8b4123a3f0d7a4aab8ef3","6617fad957f7c6a12ea16e26","6622cc9db3478e60a989c164","mask grid","q","","","","","Ontogenetic_Distractor_Threat_target","onmask","800","q","7","Ontogenetic","true","experimental"
"","null","html-keyboard-response","304","303109","0.0-13.0-0.31","Nm7jV7Ukaj","5fa8b4123a3f0d7a4aab8ef3","6617fad957f7c6a12ea16e26","6622cc9db3478e60a989c164","fixation cross","null","","","","","","","","","","","",""
"","null","html-keyboard-response","305","303923","0.0-13.0-1.31","Nm7jV7Ukaj","5fa8b4123a3f0d7a4aab8ef3","6617fad957f7c6a12ea16e26","6622cc9db3478e60a989c164","
        <div id=""grid-container"">
        <!-- Grid items will be dynamically added here -->
    </div>    ","null","","","","","","","","","","","",""
"","947","html-keyboard-response","306","304070","0.0-13.0-2.31","Nm7jV7Ukaj","5fa8b4123a3f0d7a4aab8ef3","6617fad957f7c6a12ea16e26","6622cc9db3478e60a989c164","mask grid","p","","","","","Ontogenetic_Distractor_Nonthreat_target","onmask","800","p","2","Ontogenetic","true","experimental"
"","null","html-keyboard-response","307","304783","0.0-13.0-0.32","Nm7jV7Ukaj","5fa8b4123a3f0d7a4aab8ef3","6617fad957f7c6a12ea16e26","6622cc9db3478e60a989c164","fixation cross","null","","","","","","","","","","","",""
"","null","html-keyboard-response","308","305595","0.0-13.0-1.32","Nm7jV7Ukaj","5fa8b4123a3f0d7a4aab8ef3","6617fad957f7c6a12ea16e26","6622cc9db3478e60a989c164","
        <div id=""grid-container"">
        <!-- Grid items will be dynamically added here -->
    </div>    ","null","","","","","","","","","","","",""
"","827","html-keyboard-response","309","305623","0.0-13.0-2.32","Nm7jV7Ukaj","5fa8b4123a3f0d7a4aab8ef3","6617fad957f7c6a12ea16e26","6622cc9db3478e60a989c164","mask grid","q","","","","","Ontogenetic_Distractor_Threat_target","onmask","800","q","2","Ontogenetic","true","experimental"
"","null","html-keyboard-response","310","306330","0.0-13.0-0.33","Nm7jV7Ukaj","5fa8b4123a3f0d7a4aab8ef3","6617fad957f7c6a12ea16e26","6622cc9db3478e60a989c164","fixation cross","null","","","","","","","","","","","",""
"","664","html-keyboard-response","311","306994","0.0-13.0-1.33","Nm7jV7Ukaj","5fa8b4123a3f0d7a4aab8ef3","6617fad957f7c6a12ea16e26","6622cc9db3478e60a989c164","image grid","p","","","","","Ontogenetic_Distractor_Nonthreat_target","ongrid","800","p","2","Ontogenetic","true","experimental"
"","null","html-keyboard-response","312","307158","0.0-13.0-2.33","Nm7jV7Ukaj","5fa8b4123a3f0d7a4aab8ef3","6617fad957f7c6a12ea16e26","6622cc9db3478e60a989c164","
    <div id=""grid-container"">
        <!-- Grid items will be dynamically added here -->
    </div>    ","null","","","","","","","","","","","",""
"","null","html-keyboard-response","313","307861","0.0-13.0-0.34","Nm7jV7Ukaj","5fa8b4123a3f0d7a4aab8ef3","6617fad957f7c6a12ea16e26","6622cc9db3478e60a989c164","fixation cross","null","","","","","","","","","","","",""
"","754","html-keyboard-response","314","308616","0.0-13.0-1.34","Nm7jV7Ukaj","5fa8b4123a3f0d7a4aab8ef3","6617fad957f7c6a12ea16e26","6622cc9db3478e60a989c164","image grid","p","","","","","Ontogenetic_Distractor_Nonthreat_target","ongrid","800","p","4","Ontogenetic","true","experimental"
"","null","html-keyboard-response","315","308782","0.0-13.0-2.34","Nm7jV7Ukaj","5fa8b4123a3f0d7a4aab8ef3","6617fad957f7c6a12ea16e26","6622cc9db3478e60a989c164","
    <div id=""grid-container"">
        <!-- Grid items will be dynamically added here -->
    </div>    ","null","","","","","","","","","","","",""
"","null","html-keyboard-response","316","309491","0.0-13.0-0.35","Nm7jV7Ukaj","5fa8b4123a3f0d7a4aab8ef3","6617fad957f7c6a12ea16e26","6622cc9db3478e60a989c164","fixation cross","null","","","","","","","","","","","",""
"","null","html-keyboard-response","317","310297","0.0-13.0-1.35","Nm7jV7Ukaj","5fa8b4123a3f0d7a4aab8ef3","6617fad957f7c6a12ea16e26","6622cc9db3478e60a989c164","
        <div id=""grid-container"">
        <!-- Grid items will be dynamically added here -->
    </div>    ","null","","","","","","","","","","","",""
"","964","html-keyboard-response","318","310462","0.0-13.0-2.35","Nm7jV7Ukaj","5fa8b4123a3f0d7a4aab8ef3","6617fad957f7c6a12ea16e26","6622cc9db3478e60a989c164","mask grid","p","","","","","Ontogenetic_Distractor_Nonthreat_target","onmask","800","p","2","Ontogenetic","true","experimental"
"","null","html-keyboard-response","319","311188","0.0-13.0-0.36","Nm7jV7Ukaj","5fa8b4123a3f0d7a4aab8ef3","6617fad957f7c6a12ea16e26","6622cc9db3478e60a989c164","fixation cross","null","","","","","","","","","","","",""
"","null","html-keyboard-response","320","312001","0.0-13.0-1.36","Nm7jV7Ukaj","5fa8b4123a3f0d7a4aab8ef3","6617fad957f7c6a12ea16e26","6622cc9db3478e60a989c164","
        <div id=""grid-container"">
        <!-- Grid items will be dynamically added here -->
    </div>    ","null","","","","","","","","","","","",""
"","1026","html-keyboard-response","321","312227","0.0-13.0-2.36","Nm7jV7Ukaj","5fa8b4123a3f0d7a4aab8ef3","6617fad957f7c6a12ea16e26","6622cc9db3478e60a989c164","mask grid","p","","","","","Ontogenetic_Distractor_Nonthreat_target","onmask","800","p","5","Ontogenetic","true","experimental"
"","null","html-keyboard-response","322","312939","0.0-13.0-0.37","Nm7jV7Ukaj","5fa8b4123a3f0d7a4aab8ef3","6617fad957f7c6a12ea16e26","6622cc9db3478e60a989c164","fixation cross","null","","","","","","","","","","","",""
"","null","html-keyboard-response","323","313752","0.0-13.0-1.37","Nm7jV7Ukaj","5fa8b4123a3f0d7a4aab8ef3","6617fad957f7c6a12ea16e26","6622cc9db3478e60a989c164","
        <div id=""grid-container"">
        <!-- Grid items will be dynamically added here -->
    </div>    ","null","","","","","","","","","","","",""
"","1191","html-keyboard-response","324","314143","0.0-13.0-2.37","Nm7jV7Ukaj","5fa8b4123a3f0d7a4aab8ef3","6617fad957f7c6a12ea16e26","6622cc9db3478e60a989c164","mask grid","q","","","","","Ontogenetic_Distractor_Threat_target","onmask","800","q","1","Ontogenetic","true","experimental"
"","null","html-keyboard-response","325","314859","0.0-13.0-0.38","Nm7jV7Ukaj","5fa8b4123a3f0d7a4aab8ef3","6617fad957f7c6a12ea16e26","6622cc9db3478e60a989c164","fixation cross","null","","","","","","","","","","","",""
"","null","html-keyboard-response","326","315672","0.0-13.0-1.38","Nm7jV7Ukaj","5fa8b4123a3f0d7a4aab8ef3","6617fad957f7c6a12ea16e26","6622cc9db3478e60a989c164","
        <div id=""grid-container"">
        <!-- Grid items will be dynamically added here -->
    </div>    ","null","","","","","","","","","","","",""
"","1059","html-keyboard-response","327","315931","0.0-13.0-2.38","Nm7jV7Ukaj","5fa8b4123a3f0d7a4aab8ef3","6617fad957f7c6a12ea16e26","6622cc9db3478e60a989c164","mask grid","q","","","","","Ontogenetic_Distractor_Threat_target","onmask","800","q","2","Ontogenetic","true","experimental"
"","null","html-keyboard-response","328","316657","0.0-13.0-0.39","Nm7jV7Ukaj","5fa8b4123a3f0d7a4aab8ef3","6617fad957f7c6a12ea16e26","6622cc9db3478e60a989c164","fixation cross","null","","","","","","","","","","","",""
"","705","html-keyboard-response","329","317362","0.0-13.0-1.39","Nm7jV7Ukaj","5fa8b4123a3f0d7a4aab8ef3","6617fad957f7c6a12ea16e26","6622cc9db3478e60a989c164","image grid","q","","","","","Ontogenetic_Distractor_Threat_target","ongrid","800","q","6","Ontogenetic","true","experimental"
"","null","html-keyboard-response","330","317517","0.0-13.0-2.39","Nm7jV7Ukaj","5fa8b4123a3f0d7a4aab8ef3","6617fad957f7c6a12ea16e26","6622cc9db3478e60a989c164","
    <div id=""grid-container"">
        <!-- Grid items will be dynamically added here -->
    </div>    ","null","","","","","","","","","","","",""
"","2041","html-keyboard-response","331","319761","0.0-14.0","Nm7jV7Ukaj","5fa8b4123a3f0d7a4aab8ef3","6617fad957f7c6a12ea16e26","6622cc9db3478e60a989c164","break screen"," ","","","","","","","","","","","",""
"","null","html-keyboard-response","332","322282","0.0-15.0-0.0","Nm7jV7Ukaj","5fa8b4123a3f0d7a4aab8ef3","6617fad957f7c6a12ea16e26","6622cc9db3478e60a989c164","fixation cross","null","","","","","","","","","","","",""
"","null","html-keyboard-response","333","324798","0.0-15.0-1.0","Nm7jV7Ukaj","5fa8b4123a3f0d7a4aab8ef3","6617fad957f7c6a12ea16e26","6622cc9db3478e60a989c164","
        <div id=""grid-container"">
        <!-- Grid items will be dynamically added here -->
    </div>    ","null","","","","","","","","","","","",""
"","4905","html-keyboard-response","334","327203","0.0-15.0-2.0","Nm7jV7Ukaj","5fa8b4123a3f0d7a4aab8ef3","6617fad957f7c6a12ea16e26","6622cc9db3478e60a989c164","mask grid","q","","","","","Phylogenetic_Distractor_Threat_target","onmask","2500","q","7","Phylogenetic","true","experimental"
"","null","html-keyboard-response","335","327922","0.0-15.0-0.1","Nm7jV7Ukaj","5fa8b4123a3f0d7a4aab8ef3","6617fad957f7c6a12ea16e26","6622cc9db3478e60a989c164","fixation cross","null","","","","","","","","","","","",""
"","1637","html-keyboard-response","336","329560","0.0-15.0-1.1","Nm7jV7Ukaj","5fa8b4123a3f0d7a4aab8ef3","6617fad957f7c6a12ea16e26","6622cc9db3478e60a989c164","image grid","p","","","","","Phylogenetic_Distractor_Nonthreat_target","ongrid","2500","p","4","Phylogenetic","true","experimental"
"","null","html-keyboard-response","337","329718","0.0-15.0-2.1","Nm7jV7Ukaj","5fa8b4123a3f0d7a4aab8ef3","6617fad957f7c6a12ea16e26","6622cc9db3478e60a989c164","
    <div id=""grid-container"">
        <!-- Grid items will be dynamically added here -->
    </div>    ","null","","","","","","","","","","","",""
"","null","html-keyboard-response","338","330434","0.0-15.0-0.2","Nm7jV7Ukaj","5fa8b4123a3f0d7a4aab8ef3","6617fad957f7c6a12ea16e26","6622cc9db3478e60a989c164","fixation cross","null","","","","","","","","","","","",""
"","1309","html-keyboard-response","339","331744","0.0-15.0-1.2","Nm7jV7Ukaj","5fa8b4123a3f0d7a4aab8ef3","6617fad957f7c6a12ea16e26","6622cc9db3478e60a989c164","image grid","q","","","","","Phylogenetic_Distractor_Threat_target","ongrid","2500","q","3","Phylogenetic","true","experimental"
"","null","html-keyboard-response","340","331909","0.0-15.0-2.2","Nm7jV7Ukaj","5fa8b4123a3f0d7a4aab8ef3","6617fad957f7c6a12ea16e26","6622cc9db3478e60a989c164","
    <div id=""grid-container"">
        <!-- Grid items will be dynamically added here -->
    </div>    ","null","","","","","","","","","","","",""
"","null","html-keyboard-response","341","332626","0.0-15.0-0.3","Nm7jV7Ukaj","5fa8b4123a3f0d7a4aab8ef3","6617fad957f7c6a12ea16e26","6622cc9db3478e60a989c164","fixation cross","null","","","","","","","","","","","",""
"","803","html-keyboard-response","342","333430","0.0-15.0-1.3","Nm7jV7Ukaj","5fa8b4123a3f0d7a4aab8ef3","6617fad957f7c6a12ea16e26","6622cc9db3478e60a989c164","image grid","q","","","","","Phylogenetic_Distractor_Threat_target","ongrid","2500","q","5","Phylogenetic","true","experimental"
"","null","html-keyboard-response","343","333585","0.0-15.0-2.3","Nm7jV7Ukaj","5fa8b4123a3f0d7a4aab8ef3","6617fad957f7c6a12ea16e26","6622cc9db3478e60a989c164","
    <div id=""grid-container"">
        <!-- Grid items will be dynamically added here -->
    </div>    ","null","","","","","","","","","","","",""
"","null","html-keyboard-response","344","334298","0.0-15.0-0.4","Nm7jV7Ukaj","5fa8b4123a3f0d7a4aab8ef3","6617fad957f7c6a12ea16e26","6622cc9db3478e60a989c164","fixation cross","null","","","","","","","","","","","",""
"","null","html-keyboard-response","345","336813","0.0-15.0-1.4","Nm7jV7Ukaj","5fa8b4123a3f0d7a4aab8ef3","6617fad957f7c6a12ea16e26","6622cc9db3478e60a989c164","
        <div id=""grid-container"">
        <!-- Grid items will be dynamically added here -->
    </div>    ","null","","","","","","","","","","","",""
"","2813","html-keyboard-response","346","337127","0.0-15.0-2.4","Nm7jV7Ukaj","5fa8b4123a3f0d7a4aab8ef3","6617fad957f7c6a12ea16e26","6622cc9db3478e60a989c164","mask grid"," ","","","","","Phylogenetic_Distractor_notarget","onmask","2500"," ","9","Phylogenetic","true","experimental"
"","null","html-keyboard-response","347","337830","0.0-15.0-0.5","Nm7jV7Ukaj","5fa8b4123a3f0d7a4aab8ef3","6617fad957f7c6a12ea16e26","6622cc9db3478e60a989c164","fixation cross","null","","","","","","","","","","","",""
"","1148","html-keyboard-response","348","338978","0.0-15.0-1.5","Nm7jV7Ukaj","5fa8b4123a3f0d7a4aab8ef3","6617fad957f7c6a12ea16e26","6622cc9db3478e60a989c164","image grid","q","","","","","Phylogenetic_Distractor_Threat_target","ongrid","2500","q","2","Phylogenetic","true","experimental"
"","null","html-keyboard-response","349","339143","0.0-15.0-2.5","Nm7jV7Ukaj","5fa8b4123a3f0d7a4aab8ef3","6617fad957f7c6a12ea16e26","6622cc9db3478e60a989c164","
    <div id=""grid-container"">
        <!-- Grid items will be dynamically added here -->
    </div>    ","null","","","","","","","","","","","",""
"","null","html-keyboard-response","350","339845","0.0-15.0-0.6","Nm7jV7Ukaj","5fa8b4123a3f0d7a4aab8ef3","6617fad957f7c6a12ea16e26","6622cc9db3478e60a989c164","fixation cross","null","","","","","","","","","","","",""
"","1800","html-keyboard-response","351","341645","0.0-15.0-1.6","Nm7jV7Ukaj","5fa8b4123a3f0d7a4aab8ef3","6617fad957f7c6a12ea16e26","6622cc9db3478e60a989c164","image grid","p","","","","","Phylogenetic_Distractor_Nonthreat_target","ongrid","2500","p","3","Phylogenetic","true","experimental"
"","null","html-keyboard-response","352","341797","0.0-15.0-2.6","Nm7jV7Ukaj","5fa8b4123a3f0d7a4aab8ef3","6617fad957f7c6a12ea16e26","6622cc9db3478e60a989c164","
    <div id=""grid-container"">
        <!-- Grid items will be dynamically added here -->
    </div>    ","null","","","","","","","","","","","",""
"","null","html-keyboard-response","353","342517","0.0-15.0-0.7","Nm7jV7Ukaj","5fa8b4123a3f0d7a4aab8ef3","6617fad957f7c6a12ea16e26","6622cc9db3478e60a989c164","fixation cross","null","","","","","","","","","","","",""
"","2009","html-keyboard-response","354","344526","0.0-15.0-1.7","Nm7jV7Ukaj","5fa8b4123a3f0d7a4aab8ef3","6617fad957f7c6a12ea16e26","6622cc9db3478e60a989c164","image grid","p","","","","","Phylogenetic_Distractor_Nonthreat_target","ongrid","2500","p","9","Phylogenetic","true","experimental"
"","null","html-keyboard-response","355","344689","0.0-15.0-2.7","Nm7jV7Ukaj","5fa8b4123a3f0d7a4aab8ef3","6617fad957f7c6a12ea16e26","6622cc9db3478e60a989c164","
    <div id=""grid-container"">
        <!-- Grid items will be dynamically added here -->
    </div>    ","null","","","","","","","","","","","",""
"","null","html-keyboard-response","356","345406","0.0-15.0-0.8","Nm7jV7Ukaj","5fa8b4123a3f0d7a4aab8ef3","6617fad957f7c6a12ea16e26","6622cc9db3478e60a989c164","fixation cross","null","","","","","","","","","","","",""
"","1506","html-keyboard-response","357","346912","0.0-15.0-1.8","Nm7jV7Ukaj","5fa8b4123a3f0d7a4aab8ef3","6617fad957f7c6a12ea16e26","6622cc9db3478e60a989c164","image grid","p","","","","","Phylogenetic_Distractor_Nonthreat_target","ongrid","2500","p","2","Phylogenetic","true","experimental"
"","null","html-keyboard-response","358","347078","0.0-15.0-2.8","Nm7jV7Ukaj","5fa8b4123a3f0d7a4aab8ef3","6617fad957f7c6a12ea16e26","6622cc9db3478e60a989c164","
    <div id=""grid-container"">
        <!-- Grid items will be dynamically added here -->
    </div>    ","null","","","","","","","","","","","",""
"","null","html-keyboard-response","359","347782","0.0-15.0-0.9","Nm7jV7Ukaj","5fa8b4123a3f0d7a4aab8ef3","6617fad957f7c6a12ea16e26","6622cc9db3478e60a989c164","fixation cross","null","","","","","","","","","","","",""
"","2092","html-keyboard-response","360","349874","0.0-15.0-1.9","Nm7jV7Ukaj","5fa8b4123a3f0d7a4aab8ef3","6617fad957f7c6a12ea16e26","6622cc9db3478e60a989c164","image grid","p","","","","","Phylogenetic_Distractor_Nonthreat_target","ongrid","2500","p","8","Phylogenetic","true","experimental"
"","null","html-keyboard-response","361","350033","0.0-15.0-2.9","Nm7jV7Ukaj","5fa8b4123a3f0d7a4aab8ef3","6617fad957f7c6a12ea16e26","6622cc9db3478e60a989c164","
    <div id=""grid-container"">
        <!-- Grid items will be dynamically added here -->
    </div>    ","null","","","","","","","","","","","",""
"","null","html-keyboard-response","362","350736","0.0-15.0-0.10","Nm7jV7Ukaj","5fa8b4123a3f0d7a4aab8ef3","6617fad957f7c6a12ea16e26","6622cc9db3478e60a989c164","fixation cross","null","","","","","","","","","","","",""
"","2240","html-keyboard-response","363","352976","0.0-15.0-1.10","Nm7jV7Ukaj","5fa8b4123a3f0d7a4aab8ef3","6617fad957f7c6a12ea16e26","6622cc9db3478e60a989c164","image grid"," ","","","","","Phylogenetic_Distractor_notarget","ongrid","2500"," ","3","Phylogenetic","true","experimental"
"","null","html-keyboard-response","364","353143","0.0-15.0-2.10","Nm7jV7Ukaj","5fa8b4123a3f0d7a4aab8ef3","6617fad957f7c6a12ea16e26","6622cc9db3478e60a989c164","
    <div id=""grid-container"">
        <!-- Grid items will be dynamically added here -->
    </div>    ","null","","","","","","","","","","","",""
"","null","html-keyboard-response","365","353845","0.0-15.0-0.11","Nm7jV7Ukaj","5fa8b4123a3f0d7a4aab8ef3","6617fad957f7c6a12ea16e26","6622cc9db3478e60a989c164","fixation cross","null","","","","","","","","","","","",""
"","1501","html-keyboard-response","366","355347","0.0-15.0-1.11","Nm7jV7Ukaj","5fa8b4123a3f0d7a4aab8ef3","6617fad957f7c6a12ea16e26","6622cc9db3478e60a989c164","image grid","p","","","","","Phylogenetic_Distractor_Nonthreat_target","ongrid","2500","p","8","Phylogenetic","true","experimental"
"","null","html-keyboard-response","367","355502","0.0-15.0-2.11","Nm7jV7Ukaj","5fa8b4123a3f0d7a4aab8ef3","6617fad957f7c6a12ea16e26","6622cc9db3478e60a989c164","
    <div id=""grid-container"">
        <!-- Grid items will be dynamically added here -->
    </div>    ","null","","","","","","","","","","","",""
"","null","html-keyboard-response","368","356220","0.0-15.0-0.12","Nm7jV7Ukaj","5fa8b4123a3f0d7a4aab8ef3","6617fad957f7c6a12ea16e26","6622cc9db3478e60a989c164","fixation cross","null","","","","","","","","","","","",""
"","1162","html-keyboard-response","369","357383","0.0-15.0-1.12","Nm7jV7Ukaj","5fa8b4123a3f0d7a4aab8ef3","6617fad957f7c6a12ea16e26","6622cc9db3478e60a989c164","image grid","p","","","","","Phylogenetic_Distractor_Nonthreat_target","ongrid","2500","p","2","Phylogenetic","true","experimental"
"","null","html-keyboard-response","370","357548","0.0-15.0-2.12","Nm7jV7Ukaj","5fa8b4123a3f0d7a4aab8ef3","6617fad957f7c6a12ea16e26","6622cc9db3478e60a989c164","
    <div id=""grid-container"">
        <!-- Grid items will be dynamically added here -->
