"success","rt","trial_type","trial_index","time_elapsed","internal_node_id","unique_identifier","subject_id","study_id","session_id","stimulus","response","timeout","failed_images","failed_audio","failed_video","task","time_manipulation","respondedwhen","correctresponse","targetimagelocation","blocktype","correct","roundtype"
"true","2232","fullscreen","0","3241","0.0-0.0","yNlCgLAo2X","6618650ff8e368f495675c9f","6617fad957f7c6a12ea16e26","6622cc8951ece09e1349732e","","","","","","","","","","","","","",""
"","9987","html-keyboard-response","1","13229","0.0-1.0","yNlCgLAo2X","6618650ff8e368f495675c9f","6617fad957f7c6a12ea16e26","6622cc8951ece09e1349732e","instruction screen 0","arrowright","","","","","","","","","","","",""
"true","","preload","2","15436","0.0-2.0","yNlCgLAo2X","6618650ff8e368f495675c9f","6617fad957f7c6a12ea16e26","6622cc8951ece09e1349732e","","","false","[]","[]","[]","","","","","","","",""
"","11963","html-keyboard-response","3","27400","0.0-3.0","yNlCgLAo2X","6618650ff8e368f495675c9f","6617fad957f7c6a12ea16e26","6622cc8951ece09e1349732e","instruction screen 1","arrowright","","","","","","","","","","","",""
"","7162","html-keyboard-response","4","34563","0.0-4.0","yNlCgLAo2X","6618650ff8e368f495675c9f","6617fad957f7c6a12ea16e26","6622cc8951ece09e1349732e","instruction screen 2","q","","","","","","","","","","","",""
"","7314","html-keyboard-response","5","41880","0.0-5.0","yNlCgLAo2X","6618650ff8e368f495675c9f","6617fad957f7c6a12ea16e26","6622cc8951ece09e1349732e","instruction screen 3","p","","","","","","","","","","","",""
"","4649","html-keyboard-response","6","46530","0.0-6.0","yNlCgLAo2X","6618650ff8e368f495675c9f","6617fad957f7c6a12ea16e26","6622cc8951ece09e1349732e","instruction screen 4"," ","","","","","","","","","","","",""
"","9602","html-keyboard-response","7","56135","0.0-7.0","yNlCgLAo2X","6618650ff8e368f495675c9f","6617fad957f7c6a12ea16e26","6622cc8951ece09e1349732e","instruction screen 5"," ","","","","","","","","","","","",""
"","null","html-keyboard-response","8","56638","0.0-8.0","yNlCgLAo2X","6618650ff8e368f495675c9f","6617fad957f7c6a12ea16e26","6622cc8951ece09e1349732e","fixation cross","null","","","","","","","","","","","",""
"","null","html-keyboard-response","9","57153","0.0-9.0-0.0","yNlCgLAo2X","6618650ff8e368f495675c9f","6617fad957f7c6a12ea16e26","6622cc8951ece09e1349732e","fixation cross","null","","","","","","","","","","","",""
"","1541","html-keyboard-response","10","58694","0.0-9.0-1.0","yNlCgLAo2X","6618650ff8e368f495675c9f","6617fad957f7c6a12ea16e26","6622cc8951ece09e1349732e","image grid","q","","","","","Phylogenetic_Distractor_Threat_target","3000","ongrid","q","8","Phylogenetic","true","practice"
"","null","html-keyboard-response","11","58853","0.0-9.0-2.0","yNlCgLAo2X","6618650ff8e368f495675c9f","6617fad957f7c6a12ea16e26","6622cc8951ece09e1349732e","
    <div id=""grid-container"">
        <!-- Grid items will be dynamically added here -->
    </div>    ","null","","","","","","","","","","","",""
"","null","html-keyboard-response","12","60069","0.0-9.0-3.0","yNlCgLAo2X","6618650ff8e368f495675c9f","6617fad957f7c6a12ea16e26","6622cc8951ece09e1349732e","feedback screen","null","","","","","","","","","","","",""
"","null","html-keyboard-response","13","60573","0.0-9.0-0.1","yNlCgLAo2X","6618650ff8e368f495675c9f","6617fad957f7c6a12ea16e26","6622cc8951ece09e1349732e","fixation cross","null","","","","","","","","","","","",""
"","2285","html-keyboard-response","14","62858","0.0-9.0-1.1","yNlCgLAo2X","6618650ff8e368f495675c9f","6617fad957f7c6a12ea16e26","6622cc8951ece09e1349732e","image grid","p","","","","","Phylogenetic_Distractor_Nonthreat_target","2900","ongrid","p","1","Phylogenetic","true","practice"
"","null","html-keyboard-response","15","63018","0.0-9.0-2.1","yNlCgLAo2X","6618650ff8e368f495675c9f","6617fad957f7c6a12ea16e26","6622cc8951ece09e1349732e","
    <div id=""grid-container"">
        <!-- Grid items will be dynamically added here -->
    </div>    ","null","","","","","","","","","","","",""
"","null","html-keyboard-response","16","64236","0.0-9.0-3.1","yNlCgLAo2X","6618650ff8e368f495675c9f","6617fad957f7c6a12ea16e26","6622cc8951ece09e1349732e","feedback screen","null","","","","","","","","","","","",""
"","null","html-keyboard-response","17","64751","0.0-9.0-0.2","yNlCgLAo2X","6618650ff8e368f495675c9f","6617fad957f7c6a12ea16e26","6622cc8951ece09e1349732e","fixation cross","null","","","","","","","","","","","",""
"","1358","html-keyboard-response","18","66109","0.0-9.0-1.2","yNlCgLAo2X","6618650ff8e368f495675c9f","6617fad957f7c6a12ea16e26","6622cc8951ece09e1349732e","image grid","p","","","","","Ontogenetic_Distractor_Nonthreat_target","2800","ongrid","p","3","Phylogenetic","true","practice"
"","null","html-keyboard-response","19","66270","0.0-9.0-2.2","yNlCgLAo2X","6618650ff8e368f495675c9f","6617fad957f7c6a12ea16e26","6622cc8951ece09e1349732e","
    <div id=""grid-container"">
        <!-- Grid items will be dynamically added here -->
    </div>    ","null","","","","","","","","","","","",""
"","null","html-keyboard-response","20","67485","0.0-9.0-3.2","yNlCgLAo2X","6618650ff8e368f495675c9f","6617fad957f7c6a12ea16e26","6622cc8951ece09e1349732e","feedback screen","null","","","","","","","","","","","",""
"","null","html-keyboard-response","21","68001","0.0-9.0-0.3","yNlCgLAo2X","6618650ff8e368f495675c9f","6617fad957f7c6a12ea16e26","6622cc8951ece09e1349732e","fixation cross","null","","","","","","","","","","","",""
"","1925","html-keyboard-response","22","69926","0.0-9.0-1.3","yNlCgLAo2X","6618650ff8e368f495675c9f","6617fad957f7c6a12ea16e26","6622cc8951ece09e1349732e","image grid","p","","","","","Phylogenetic_Distractor_Nonthreat_target","2700","ongrid","p","9","Phylogenetic","true","practice"
"","null","html-keyboard-response","23","70086","0.0-9.0-2.3","yNlCgLAo2X","6618650ff8e368f495675c9f","6617fad957f7c6a12ea16e26","6622cc8951ece09e1349732e","
    <div id=""grid-container"">
        <!-- Grid items will be dynamically added here -->
    </div>    ","null","","","","","","","","","","","",""
"","null","html-keyboard-response","24","71305","0.0-9.0-3.3","yNlCgLAo2X","6618650ff8e368f495675c9f","6617fad957f7c6a12ea16e26","6622cc8951ece09e1349732e","feedback screen","null","","","","","","","","","","","",""
"","null","html-keyboard-response","25","71820","0.0-9.0-0.4","yNlCgLAo2X","6618650ff8e368f495675c9f","6617fad957f7c6a12ea16e26","6622cc8951ece09e1349732e","fixation cross","null","","","","","","","","","","","",""
"","1953","html-keyboard-response","26","73773","0.0-9.0-1.4","yNlCgLAo2X","6618650ff8e368f495675c9f","6617fad957f7c6a12ea16e26","6622cc8951ece09e1349732e","image grid","p","","","","","Phylogenetic_Distractor_notarget","2600","ongrid"," ","2","Phylogenetic","false","practice"
"","null","html-keyboard-response","27","73926","0.0-9.0-2.4","yNlCgLAo2X","6618650ff8e368f495675c9f","6617fad957f7c6a12ea16e26","6622cc8951ece09e1349732e","
    <div id=""grid-container"">
        <!-- Grid items will be dynamically added here -->
    </div>    ","null","","","","","","","","","","","",""
"","null","html-keyboard-response","28","75133","0.0-9.0-3.4","yNlCgLAo2X","6618650ff8e368f495675c9f","6617fad957f7c6a12ea16e26","6622cc8951ece09e1349732e","feedback screen","null","","","","","","","","","","","",""
"","null","html-keyboard-response","29","75650","0.0-9.0-0.5","yNlCgLAo2X","6618650ff8e368f495675c9f","6617fad957f7c6a12ea16e26","6622cc8951ece09e1349732e","fixation cross","null","","","","","","","","","","","",""
"","1107","html-keyboard-response","30","76757","0.0-9.0-1.5","yNlCgLAo2X","6618650ff8e368f495675c9f","6617fad957f7c6a12ea16e26","6622cc8951ece09e1349732e","image grid","q","","","","","Ontogenetic_Distractor_Threat_target","2500","ongrid","q","4","Phylogenetic","true","practice"
"","null","html-keyboard-response","31","76910","0.0-9.0-2.5","yNlCgLAo2X","6618650ff8e368f495675c9f","6617fad957f7c6a12ea16e26","6622cc8951ece09e1349732e","
    <div id=""grid-container"">
        <!-- Grid items will be dynamically added here -->
    </div>    ","null","","","","","","","","","","","",""
"","null","html-keyboard-response","32","78124","0.0-9.0-3.5","yNlCgLAo2X","6618650ff8e368f495675c9f","6617fad957f7c6a12ea16e26","6622cc8951ece09e1349732e","feedback screen","null","","","","","","","","","","","",""
"","null","html-keyboard-response","33","78634","0.0-9.0-0.6","yNlCgLAo2X","6618650ff8e368f495675c9f","6617fad957f7c6a12ea16e26","6622cc8951ece09e1349732e","fixation cross","null","","","","","","","","","","","",""
"","null","html-keyboard-response","34","81048","0.0-9.0-1.6","yNlCgLAo2X","6618650ff8e368f495675c9f","6617fad957f7c6a12ea16e26","6622cc8951ece09e1349732e","
        <div id=""grid-container"">
        <!-- Grid items will be dynamically added here -->
    </div>    ","null","","","","","","","","","","","",""
"","2949","html-keyboard-response","35","81597","0.0-9.0-2.6","yNlCgLAo2X","6618650ff8e368f495675c9f","6617fad957f7c6a12ea16e26","6622cc8951ece09e1349732e","mask grid","q","","","","","Ontogenetic_Distractor_Threat_target","2400","onmask","q","8","Phylogenetic","true","practice"
"","null","html-keyboard-response","36","82823","0.0-9.0-3.6","yNlCgLAo2X","6618650ff8e368f495675c9f","6617fad957f7c6a12ea16e26","6622cc8951ece09e1349732e","feedback screen","null","","","","","","","","","","","",""
"","null","html-keyboard-response","37","83337","0.0-9.0-0.7","yNlCgLAo2X","6618650ff8e368f495675c9f","6617fad957f7c6a12ea16e26","6622cc8951ece09e1349732e","fixation cross","null","","","","","","","","","","","",""
"","null","html-keyboard-response","38","85640","0.0-9.0-1.7","yNlCgLAo2X","6618650ff8e368f495675c9f","6617fad957f7c6a12ea16e26","6622cc8951ece09e1349732e","
        <div id=""grid-container"">
        <!-- Grid items will be dynamically added here -->
    </div>    ","null","","","","","","","","","","","",""
"","3112","html-keyboard-response","39","86452","0.0-9.0-2.7","yNlCgLAo2X","6618650ff8e368f495675c9f","6617fad957f7c6a12ea16e26","6622cc8951ece09e1349732e","mask grid","p","","","","","Phylogenetic_Distractor_Nonthreat_target","2300","onmask","p","3","Phylogenetic","true","practice"
"","null","html-keyboard-response","40","87676","0.0-9.0-3.7","yNlCgLAo2X","6618650ff8e368f495675c9f","6617fad957f7c6a12ea16e26","6622cc8951ece09e1349732e","feedback screen","null","","","","","","","","","","","",""
"","null","html-keyboard-response","41","88189","0.0-9.0-0.8","yNlCgLAo2X","6618650ff8e368f495675c9f","6617fad957f7c6a12ea16e26","6622cc8951ece09e1349732e","fixation cross","null","","","","","","","","","","","",""
"","1155","html-keyboard-response","42","89344","0.0-9.0-1.8","yNlCgLAo2X","6618650ff8e368f495675c9f","6617fad957f7c6a12ea16e26","6622cc8951ece09e1349732e","image grid","q","","","","","Phylogenetic_Distractor_Threat_target","2200","ongrid","q","2","Phylogenetic","true","practice"
"","null","html-keyboard-response","43","89497","0.0-9.0-2.8","yNlCgLAo2X","6618650ff8e368f495675c9f","6617fad957f7c6a12ea16e26","6622cc8951ece09e1349732e","
    <div id=""grid-container"">
        <!-- Grid items will be dynamically added here -->
    </div>    ","null","","","","","","","","","","","",""
"","null","html-keyboard-response","44","90715","0.0-9.0-3.8","yNlCgLAo2X","6618650ff8e368f495675c9f","6617fad957f7c6a12ea16e26","6622cc8951ece09e1349732e","feedback screen","null","","","","","","","","","","","",""
"","null","html-keyboard-response","45","91228","0.0-9.0-0.9","yNlCgLAo2X","6618650ff8e368f495675c9f","6617fad957f7c6a12ea16e26","6622cc8951ece09e1349732e","fixation cross","null","","","","","","","","","","","",""
"","1792","html-keyboard-response","46","93020","0.0-9.0-1.9","yNlCgLAo2X","6618650ff8e368f495675c9f","6617fad957f7c6a12ea16e26","6622cc8951ece09e1349732e","image grid","q","","","","","Phylogenetic_Distractor_Threat_target","2100","ongrid","q","5","Phylogenetic","true","practice"
"","null","html-keyboard-response","47","93176","0.0-9.0-2.9","yNlCgLAo2X","6618650ff8e368f495675c9f","6617fad957f7c6a12ea16e26","6622cc8951ece09e1349732e","
    <div id=""grid-container"">
        <!-- Grid items will be dynamically added here -->
    </div>    ","null","","","","","","","","","","","",""
"","null","html-keyboard-response","48","94390","0.0-9.0-3.9","yNlCgLAo2X","6618650ff8e368f495675c9f","6617fad957f7c6a12ea16e26","6622cc8951ece09e1349732e","feedback screen","null","","","","","","","","","","","",""
"","null","html-keyboard-response","49","94903","0.0-9.0-0.10","yNlCgLAo2X","6618650ff8e368f495675c9f","6617fad957f7c6a12ea16e26","6622cc8951ece09e1349732e","fixation cross","null","","","","","","","","","","","",""
"","753","html-keyboard-response","50","95656","0.0-9.0-1.10","yNlCgLAo2X","6618650ff8e368f495675c9f","6617fad957f7c6a12ea16e26","6622cc8951ece09e1349732e","image grid","q","","","","","Ontogenetic_Distractor_Threat_target","2000","ongrid","q","4","Phylogenetic","true","practice"
"","null","html-keyboard-response","51","95809","0.0-9.0-2.10","yNlCgLAo2X","6618650ff8e368f495675c9f","6617fad957f7c6a12ea16e26","6622cc8951ece09e1349732e","
    <div id=""grid-container"">
        <!-- Grid items will be dynamically added here -->
    </div>    ","null","","","","","","","","","","","",""
"","null","html-keyboard-response","52","97028","0.0-9.0-3.10","yNlCgLAo2X","6618650ff8e368f495675c9f","6617fad957f7c6a12ea16e26","6622cc8951ece09e1349732e","feedback screen","null","","","","","","","","","","","",""
"","null","html-keyboard-response","53","97530","0.0-9.0-0.11","yNlCgLAo2X","6618650ff8e368f495675c9f","6617fad957f7c6a12ea16e26","6622cc8951ece09e1349732e","fixation cross","null","","","","","","","","","","","",""
"","1726","html-keyboard-response","54","99256","0.0-9.0-1.11","yNlCgLAo2X","6618650ff8e368f495675c9f","6617fad957f7c6a12ea16e26","6622cc8951ece09e1349732e","image grid"," ","","","","","Ontogenetic_Distractor_notarget","1900","ongrid"," ","8","Phylogenetic","true","practice"
"","null","html-keyboard-response","55","99416","0.0-9.0-2.11","yNlCgLAo2X","6618650ff8e368f495675c9f","6617fad957f7c6a12ea16e26","6622cc8951ece09e1349732e","
    <div id=""grid-container"">
        <!-- Grid items will be dynamically added here -->
    </div>    ","null","","","","","","","","","","","",""
"","null","html-keyboard-response","56","100631","0.0-9.0-3.11","yNlCgLAo2X","6618650ff8e368f495675c9f","6617fad957f7c6a12ea16e26","6622cc8951ece09e1349732e","feedback screen","null","","","","","","","","","","","",""
"","null","html-keyboard-response","57","101145","0.0-9.0-0.12","yNlCgLAo2X","6618650ff8e368f495675c9f","6617fad957f7c6a12ea16e26","6622cc8951ece09e1349732e","fixation cross","null","","","","","","","","","","","",""
"","891","html-keyboard-response","58","102036","0.0-9.0-1.12","yNlCgLAo2X","6618650ff8e368f495675c9f","6617fad957f7c6a12ea16e26","6622cc8951ece09e1349732e","image grid","p","","","","","Ontogenetic_Distractor_Nonthreat_target","1800","ongrid","p","3","Phylogenetic","true","practice"
"","null","html-keyboard-response","59","102188","0.0-9.0-2.12","yNlCgLAo2X","6618650ff8e368f495675c9f","6617fad957f7c6a12ea16e26","6622cc8951ece09e1349732e","
    <div id=""grid-container"">
        <!-- Grid items will be dynamically added here -->
    </div>    ","null","","","","","","","","","","","",""
"","null","html-keyboard-response","60","103390","0.0-9.0-3.12","yNlCgLAo2X","6618650ff8e368f495675c9f","6617fad957f7c6a12ea16e26","6622cc8951ece09e1349732e","feedback screen","null","","","","","","","","","","","",""
"","null","html-keyboard-response","61","103901","0.0-9.0-0.13","yNlCgLAo2X","6618650ff8e368f495675c9f","6617fad957f7c6a12ea16e26","6622cc8951ece09e1349732e","fixation cross","null","","","","","","","","","","","",""
"","940","html-keyboard-response","62","104841","0.0-9.0-1.13","yNlCgLAo2X","6618650ff8e368f495675c9f","6617fad957f7c6a12ea16e26","6622cc8951ece09e1349732e","image grid"," ","","","","","Ontogenetic_Distractor_notarget","1700","ongrid"," ","9","Phylogenetic","true","practice"
"","null","html-keyboard-response","63","104994","0.0-9.0-2.13","yNlCgLAo2X","6618650ff8e368f495675c9f","6617fad957f7c6a12ea16e26","6622cc8951ece09e1349732e","
    <div id=""grid-container"">
        <!-- Grid items will be dynamically added here -->
    </div>    ","null","","","","","","","","","","","",""
"","null","html-keyboard-response","64","106224","0.0-9.0-3.13","yNlCgLAo2X","6618650ff8e368f495675c9f","6617fad957f7c6a12ea16e26","6622cc8951ece09e1349732e","feedback screen","null","","","","","","","","","","","",""
"","null","html-keyboard-response","65","106737","0.0-9.0-0.14","yNlCgLAo2X","6618650ff8e368f495675c9f","6617fad957f7c6a12ea16e26","6622cc8951ece09e1349732e","fixation cross","null","","","","","","","","","","","",""
"","null","html-keyboard-response","66","108350","0.0-9.0-1.14","yNlCgLAo2X","6618650ff8e368f495675c9f","6617fad957f7c6a12ea16e26","6622cc8951ece09e1349732e","
        <div id=""grid-container"">
        <!-- Grid items will be dynamically added here -->
    </div>    ","null","","","","","","","","","","","",""
"","2097","html-keyboard-response","67","108847","0.0-9.0-2.14","yNlCgLAo2X","6618650ff8e368f495675c9f","6617fad957f7c6a12ea16e26","6622cc8951ece09e1349732e","mask grid"," ","","","","","Phylogenetic_Distractor_notarget","1600","onmask"," ","6","Phylogenetic","true","practice"
"","null","html-keyboard-response","68","110060","0.0-9.0-3.14","yNlCgLAo2X","6618650ff8e368f495675c9f","6617fad957f7c6a12ea16e26","6622cc8951ece09e1349732e","feedback screen","null","","","","","","","","","","","",""
"","null","html-keyboard-response","69","110573","0.0-9.0-0.15","yNlCgLAo2X","6618650ff8e368f495675c9f","6617fad957f7c6a12ea16e26","6622cc8951ece09e1349732e","fixation cross","null","","","","","","","","","","","",""
"","null","html-keyboard-response","70","112084","0.0-9.0-1.15","yNlCgLAo2X","6618650ff8e368f495675c9f","6617fad957f7c6a12ea16e26","6622cc8951ece09e1349732e","
        <div id=""grid-container"">
        <!-- Grid items will be dynamically added here -->
    </div>    ","null","","","","","","","","","","","",""
"","2139","html-keyboard-response","71","112724","0.0-9.0-2.15","yNlCgLAo2X","6618650ff8e368f495675c9f","6617fad957f7c6a12ea16e26","6622cc8951ece09e1349732e","mask grid"," ","","","","","Phylogenetic_Distractor_Nonthreat_target","1500","onmask","p","7","Phylogenetic","false","practice"
"","null","html-keyboard-response","72","113948","0.0-9.0-3.15","yNlCgLAo2X","6618650ff8e368f495675c9f","6617fad957f7c6a12ea16e26","6622cc8951ece09e1349732e","feedback screen","null","","","","","","","","","","","",""
"","null","html-keyboard-response","73","114462","0.0-9.0-0.16","yNlCgLAo2X","6618650ff8e368f495675c9f","6617fad957f7c6a12ea16e26","6622cc8951ece09e1349732e","fixation cross","null","","","","","","","","","","","",""
"","893","html-keyboard-response","74","115356","0.0-9.0-1.16","yNlCgLAo2X","6618650ff8e368f495675c9f","6617fad957f7c6a12ea16e26","6622cc8951ece09e1349732e","image grid","q","","","","","Phylogenetic_Distractor_Threat_target","1400","ongrid","q","4","Phylogenetic","true","practice"
"","null","html-keyboard-response","75","115507","0.0-9.0-2.16","yNlCgLAo2X","6618650ff8e368f495675c9f","6617fad957f7c6a12ea16e26","6622cc8951ece09e1349732e","
    <div id=""grid-container"">
        <!-- Grid items will be dynamically added here -->
    </div>    ","null","","","","","","","","","","","",""
"","null","html-keyboard-response","76","116738","0.0-9.0-3.16","yNlCgLAo2X","6618650ff8e368f495675c9f","6617fad957f7c6a12ea16e26","6622cc8951ece09e1349732e","feedback screen","null","","","","","","","","","","","",""
"","null","html-keyboard-response","77","117252","0.0-9.0-0.17","yNlCgLAo2X","6618650ff8e368f495675c9f","6617fad957f7c6a12ea16e26","6622cc8951ece09e1349732e","fixation cross","null","","","","","","","","","","","",""
"","647","html-keyboard-response","78","117899","0.0-9.0-1.17","yNlCgLAo2X","6618650ff8e368f495675c9f","6617fad957f7c6a12ea16e26","6622cc8951ece09e1349732e","image grid","p","","","","","Ontogenetic_Distractor_Nonthreat_target","1300","ongrid","p","2","Phylogenetic","true","practice"
"","null","html-keyboard-response","79","118051","0.0-9.0-2.17","yNlCgLAo2X","6618650ff8e368f495675c9f","6617fad957f7c6a12ea16e26","6622cc8951ece09e1349732e","
    <div id=""grid-container"">
        <!-- Grid items will be dynamically added here -->
    </div>    ","null","","","","","","","","","","","",""
"","null","html-keyboard-response","80","119262","0.0-9.0-3.17","yNlCgLAo2X","6618650ff8e368f495675c9f","6617fad957f7c6a12ea16e26","6622cc8951ece09e1349732e","feedback screen","null","","","","","","","","","","","",""
"","null","html-keyboard-response","81","119775","0.0-9.0-0.18","yNlCgLAo2X","6618650ff8e368f495675c9f","6617fad957f7c6a12ea16e26","6622cc8951ece09e1349732e","fixation cross","null","","","","","","","","","","","",""
"","569","html-keyboard-response","82","120344","0.0-9.0-1.18","yNlCgLAo2X","6618650ff8e368f495675c9f","6617fad957f7c6a12ea16e26","6622cc8951ece09e1349732e","image grid","p","","","","","Ontogenetic_Distractor_Nonthreat_target","1200","ongrid","p","4","Phylogenetic","true","practice"
"","null","html-keyboard-response","83","120506","0.0-9.0-2.18","yNlCgLAo2X","6618650ff8e368f495675c9f","6617fad957f7c6a12ea16e26","6622cc8951ece09e1349732e","
    <div id=""grid-container"">
        <!-- Grid items will be dynamically added here -->
    </div>    ","null","","","","","","","","","","","",""
"","null","html-keyboard-response","84","121721","0.0-9.0-3.18","yNlCgLAo2X","6618650ff8e368f495675c9f","6617fad957f7c6a12ea16e26","6622cc8951ece09e1349732e","feedback screen","null","","","","","","","","","","","",""
"","null","html-keyboard-response","85","122234","0.0-9.0-0.19","yNlCgLAo2X","6618650ff8e368f495675c9f","6617fad957f7c6a12ea16e26","6622cc8951ece09e1349732e","fixation cross","null","","","","","","","","","","","",""
"","845","html-keyboard-response","86","123080","0.0-9.0-1.19","yNlCgLAo2X","6618650ff8e368f495675c9f","6617fad957f7c6a12ea16e26","6622cc8951ece09e1349732e","image grid","q","","","","","Ontogenetic_Distractor_Threat_target","1100","ongrid","q","1","Phylogenetic","true","practice"
"","null","html-keyboard-response","87","123244","0.0-9.0-2.19","yNlCgLAo2X","6618650ff8e368f495675c9f","6617fad957f7c6a12ea16e26","6622cc8951ece09e1349732e","
    <div id=""grid-container"">
        <!-- Grid items will be dynamically added here -->
    </div>    ","null","","","","","","","","","","","",""
"","null","html-keyboard-response","88","124460","0.0-9.0-3.19","yNlCgLAo2X","6618650ff8e368f495675c9f","6617fad957f7c6a12ea16e26","6622cc8951ece09e1349732e","feedback screen","null","","","","","","","","","","","",""
"","7947","html-keyboard-response","89","132431","0.0-10.0","yNlCgLAo2X","6618650ff8e368f495675c9f","6617fad957f7c6a12ea16e26","6622cc8951ece09e1349732e","pre-experimental_briefing"," ","","","","","","","","","","","",""
"","null","html-keyboard-response","90","134967","0.0-11.0-0.0","yNlCgLAo2X","6618650ff8e368f495675c9f","6617fad957f7c6a12ea16e26","6622cc8951ece09e1349732e","fixation cross","null","","","","","","","","","","","",""
"","null","html-keyboard-response","91","137476","0.0-11.0-1.0","yNlCgLAo2X","6618650ff8e368f495675c9f","6617fad957f7c6a12ea16e26","6622cc8951ece09e1349732e","
        <div id=""grid-container"">
        <!-- Grid items will be dynamically added here -->
    </div>    ","null","","","","","","","","","","","",""
"","2667","html-keyboard-response","92","137643","0.0-11.0-2.0","yNlCgLAo2X","6618650ff8e368f495675c9f","6617fad957f7c6a12ea16e26","6622cc8951ece09e1349732e","mask grid"," ","","","","","Phylogenetic_Distractor_notarget","2500","onmask"," ","6","Phylogenetic","true","experimental"
"","null","html-keyboard-response","93","138362","0.0-11.0-0.1","yNlCgLAo2X","6618650ff8e368f495675c9f","6617fad957f7c6a12ea16e26","6622cc8951ece09e1349732e","fixation cross","null","","","","","","","","","","","",""
"","2160","html-keyboard-response","94","140523","0.0-11.0-1.1","yNlCgLAo2X","6618650ff8e368f495675c9f","6617fad957f7c6a12ea16e26","6622cc8951ece09e1349732e","image grid","q","","","","","Phylogenetic_Distractor_Threat_target","2500","ongrid","q","8","Phylogenetic","true","experimental"
"","null","html-keyboard-response","95","140676","0.0-11.0-2.1","yNlCgLAo2X","6618650ff8e368f495675c9f","6617fad957f7c6a12ea16e26","6622cc8951ece09e1349732e","
    <div id=""grid-container"">
        <!-- Grid items will be dynamically added here -->
    </div>    ","null","","","","","","","","","","","",""
"","null","html-keyboard-response","96","141391","0.0-11.0-0.2","yNlCgLAo2X","6618650ff8e368f495675c9f","6617fad957f7c6a12ea16e26","6622cc8951ece09e1349732e","fixation cross","null","","","","","","","","","","","",""
"","748","html-keyboard-response","97","142139","0.0-11.0-1.2","yNlCgLAo2X","6618650ff8e368f495675c9f","6617fad957f7c6a12ea16e26","6622cc8951ece09e1349732e","image grid","q","","","","","Phylogenetic_Distractor_Threat_target","2500","ongrid","q","9","Phylogenetic","true","experimental"
"","null","html-keyboard-response","98","142300","0.0-11.0-2.2","yNlCgLAo2X","6618650ff8e368f495675c9f","6617fad957f7c6a12ea16e26","6622cc8951ece09e1349732e","
    <div id=""grid-container"">
        <!-- Grid items will be dynamically added here -->
    </div>    ","null","","","","","","","","","","","",""
"","null","html-keyboard-response","99","143014","0.0-11.0-0.3","yNlCgLAo2X","6618650ff8e368f495675c9f","6617fad957f7c6a12ea16e26","6622cc8951ece09e1349732e","fixation cross","null","","","","","","","","","","","",""
"","1489","html-keyboard-response","100","144503","0.0-11.0-1.3","yNlCgLAo2X","6618650ff8e368f495675c9f","6617fad957f7c6a12ea16e26","6622cc8951ece09e1349732e","image grid","q","","","","","Phylogenetic_Distractor_Threat_target","2500","ongrid","q","4","Phylogenetic","true","experimental"
"","null","html-keyboard-response","101","144659","0.0-11.0-2.3","yNlCgLAo2X","6618650ff8e368f495675c9f","6617fad957f7c6a12ea16e26","6622cc8951ece09e1349732e","
    <div id=""grid-container"">
        <!-- Grid items will be dynamically added here -->
    </div>    ","null","","","","","","","","","","","",""
"","null","html-keyboard-response","102","145376","0.0-11.0-0.4","yNlCgLAo2X","6618650ff8e368f495675c9f","6617fad957f7c6a12ea16e26","6622cc8951ece09e1349732e","fixation cross","null","","","","","","","","","","","",""
"","1459","html-keyboard-response","103","146835","0.0-11.0-1.4","yNlCgLAo2X","6618650ff8e368f495675c9f","6617fad957f7c6a12ea16e26","6622cc8951ece09e1349732e","image grid","q","","","","","Phylogenetic_Distractor_Threat_target","2500","ongrid","q","5","Phylogenetic","true","experimental"
"","null","html-keyboard-response","104","146997","0.0-11.0-2.4","yNlCgLAo2X","6618650ff8e368f495675c9f","6617fad957f7c6a12ea16e26","6622cc8951ece09e1349732e","
    <div id=""grid-container"">
        <!-- Grid items will be dynamically added here -->
    </div>    ","null","","","","","","","","","","","",""
"","null","html-keyboard-response","105","147716","0.0-11.0-0.5","yNlCgLAo2X","6618650ff8e368f495675c9f","6617fad957f7c6a12ea16e26","6622cc8951ece09e1349732e","fixation cross","null","","","","","","","","","","","",""
"","1210","html-keyboard-response","106","148926","0.0-11.0-1.5","yNlCgLAo2X","6618650ff8e368f495675c9f","6617fad957f7c6a12ea16e26","6622cc8951ece09e1349732e","image grid","p","","","","","Phylogenetic_Distractor_Nonthreat_target","2500","ongrid","p","7","Phylogenetic","true","experimental"
"","null","html-keyboard-response","107","149091","0.0-11.0-2.5","yNlCgLAo2X","6618650ff8e368f495675c9f","6617fad957f7c6a12ea16e26","6622cc8951ece09e1349732e","
    <div id=""grid-container"">
        <!-- Grid items will be dynamically added here -->
    </div>    ","null","","","","","","","","","","","",""
"","null","html-keyboard-response","108","149807","0.0-11.0-0.6","yNlCgLAo2X","6618650ff8e368f495675c9f","6617fad957f7c6a12ea16e26","6622cc8951ece09e1349732e","fixation cross","null","","","","","","","","","","","",""
"","1082","html-keyboard-response","109","150890","0.0-11.0-1.6","yNlCgLAo2X","6618650ff8e368f495675c9f","6617fad957f7c6a12ea16e26","6622cc8951ece09e1349732e","image grid","p","","","","","Phylogenetic_Distractor_Nonthreat_target","2500","ongrid","p","7","Phylogenetic","true","experimental"
"","null","html-keyboard-response","110","151055","0.0-11.0-2.6","yNlCgLAo2X","6618650ff8e368f495675c9f","6617fad957f7c6a12ea16e26","6622cc8951ece09e1349732e","
    <div id=""grid-container"">
        <!-- Grid items will be dynamically added here -->
    </div>    ","null","","","","","","","","","","","",""
"","null","html-keyboard-response","111","151772","0.0-11.0-0.7","yNlCgLAo2X","6618650ff8e368f495675c9f","6617fad957f7c6a12ea16e26","6622cc8951ece09e1349732e","fixation cross","null","","","","","","","","","","","",""
"","1114","html-keyboard-response","112","152886","0.0-11.0-1.7","yNlCgLAo2X","6618650ff8e368f495675c9f","6617fad957f7c6a12ea16e26","6622cc8951ece09e1349732e","image grid","q","","","","","Phylogenetic_Distractor_Threat_target","2500","ongrid","q","1","Phylogenetic","true","experimental"
"","null","html-keyboard-response","113","153050","0.0-11.0-2.7","yNlCgLAo2X","6618650ff8e368f495675c9f","6617fad957f7c6a12ea16e26","6622cc8951ece09e1349732e","
    <div id=""grid-container"">
        <!-- Grid items will be dynamically added here -->
    </div>    ","null","","","","","","","","","","","",""
"","null","html-keyboard-response","114","153766","0.0-11.0-0.8","yNlCgLAo2X","6618650ff8e368f495675c9f","6617fad957f7c6a12ea16e26","6622cc8951ece09e1349732e","fixation cross","null","","","","","","","","","","","",""
"","644","html-keyboard-response","115","154410","0.0-11.0-1.8","yNlCgLAo2X","6618650ff8e368f495675c9f","6617fad957f7c6a12ea16e26","6622cc8951ece09e1349732e","image grid","q","","","","","Phylogenetic_Distractor_Threat_target","2500","ongrid","q","1","Phylogenetic","true","experimental"
"","null","html-keyboard-response","116","154565","0.0-11.0-2.8","yNlCgLAo2X","6618650ff8e368f495675c9f","6617fad957f7c6a12ea16e26","6622cc8951ece09e1349732e","
    <div id=""grid-container"">
        <!-- Grid items will be dynamically added here -->
    </div>    ","null","","","","","","","","","","","",""
"","null","html-keyboard-response","117","155280","0.0-11.0-0.9","yNlCgLAo2X","6618650ff8e368f495675c9f","6617fad957f7c6a12ea16e26","6622cc8951ece09e1349732e","fixation cross","null","","","","","","","","","","","",""
"","818","html-keyboard-response","118","156098","0.0-11.0-1.9","yNlCgLAo2X","6618650ff8e368f495675c9f","6617fad957f7c6a12ea16e26","6622cc8951ece09e1349732e","image grid","q","","","","","Phylogenetic_Distractor_Threat_target","2500","ongrid","q","7","Phylogenetic","true","experimental"
"","null","html-keyboard-response","119","156260","0.0-11.0-2.9","yNlCgLAo2X","6618650ff8e368f495675c9f","6617fad957f7c6a12ea16e26","6622cc8951ece09e1349732e","
    <div id=""grid-container"">
        <!-- Grid items will be dynamically added here -->
    </div>    ","null","","","","","","","","","","","",""
"","null","html-keyboard-response","120","156974","0.0-11.0-0.10","yNlCgLAo2X","6618650ff8e368f495675c9f","6617fad957f7c6a12ea16e26","6622cc8951ece09e1349732e","fixation cross","null","","","","","","","","","","","",""
"","1811","html-keyboard-response","121","158786","0.0-11.0-1.10","yNlCgLAo2X","6618650ff8e368f495675c9f","6617fad957f7c6a12ea16e26","6622cc8951ece09e1349732e","image grid","p","","","","","Phylogenetic_Distractor_Nonthreat_target","2500","ongrid","p","6","Phylogenetic","true","experimental"
"","null","html-keyboard-response","122","158943","0.0-11.0-2.10","yNlCgLAo2X","6618650ff8e368f495675c9f","6617fad957f7c6a12ea16e26","6622cc8951ece09e1349732e","
    <div id=""grid-container"">
        <!-- Grid items will be dynamically added here -->
    </div>    ","null","","","","","","","","","","","",""
"","null","html-keyboard-response","123","159648","0.0-11.0-0.11","yNlCgLAo2X","6618650ff8e368f495675c9f","6617fad957f7c6a12ea16e26","6622cc8951ece09e1349732e","fixation cross","null","","","","","","","","","","","",""
"","1626","html-keyboard-response","124","161274","0.0-11.0-1.11","yNlCgLAo2X","6618650ff8e368f495675c9f","6617fad957f7c6a12ea16e26","6622cc8951ece09e1349732e","image grid","p","","","","","Phylogenetic_Distractor_Nonthreat_target","2500","ongrid","p","9","Phylogenetic","true","experimental"
"","null","html-keyboard-response","125","161429","0.0-11.0-2.11","yNlCgLAo2X","6618650ff8e368f495675c9f","6617fad957f7c6a12ea16e26","6622cc8951ece09e1349732e","
    <div id=""grid-container"">
        <!-- Grid items will be dynamically added here -->
    </div>    ","null","","","","","","","","","","","",""
"","null","html-keyboard-response","126","162140","0.0-11.0-0.12","yNlCgLAo2X","6618650ff8e368f495675c9f","6617fad957f7c6a12ea16e26","6622cc8951ece09e1349732e","fixation cross","null","","","","","","","","","","","",""
"","1850","html-keyboard-response","127","163990","0.0-11.0-1.12","yNlCgLAo2X","6618650ff8e368f495675c9f","6617fad957f7c6a12ea16e26","6622cc8951ece09e1349732e","image grid"," ","","","","","Phylogenetic_Distractor_notarget","2500","ongrid"," ","7","Phylogenetic","true","experimental"
"","null","html-keyboard-response","128","164150","0.0-11.0-2.12","yNlCgLAo2X","6618650ff8e368f495675c9f","6617fad957f7c6a12ea16e26","6622cc8951ece09e1349732e","
    <div id=""grid-container"">
        <!-- Grid items will be dynamically added here -->
    </div>    ","null","","","","","","","","","","","",""
"","null","html-keyboard-response","129","164865","0.0-11.0-0.13","yNlCgLAo2X","6618650ff8e368f495675c9f","6617fad957f7c6a12ea16e26","6622cc8951ece09e1349732e","fixation cross","null","","","","","","","","","","","",""
"","917","html-keyboard-response","130","165782","0.0-11.0-1.13","yNlCgLAo2X","6618650ff8e368f495675c9f","6617fad957f7c6a12ea16e26","6622cc8951ece09e1349732e","image grid","q","","","","","Phylogenetic_Distractor_Threat_target","2500","ongrid","q","6","Phylogenetic","true","experimental"
"","null","html-keyboard-response","131","165940","0.0-11.0-2.13","yNlCgLAo2X","6618650ff8e368f495675c9f","6617fad957f7c6a12ea16e26","6622cc8951ece09e1349732e","
    <div id=""grid-container"">
        <!-- Grid items will be dynamically added here -->
    </div>    ","null","","","","","","","","","","","",""
"","null","html-keyboard-response","132","166657","0.0-11.0-0.14","yNlCgLAo2X","6618650ff8e368f495675c9f","6617fad957f7c6a12ea16e26","6622cc8951ece09e1349732e","fixation cross","null","","","","","","","","","","","",""
"","1477","html-keyboard-response","133","168134","0.0-11.0-1.14","yNlCgLAo2X","6618650ff8e368f495675c9f","6617fad957f7c6a12ea16e26","6622cc8951ece09e1349732e","image grid","p","","","","","Phylogenetic_Distractor_Nonthreat_target","2500","ongrid","p","7","Phylogenetic","true","experimental"
"","null","html-keyboard-response","134","168295","0.0-11.0-2.14","yNlCgLAo2X","6618650ff8e368f495675c9f","6617fad957f7c6a12ea16e26","6622cc8951ece09e1349732e","
    <div id=""grid-container"">
        <!-- Grid items will be dynamically added here -->
    </div>    ","null","","","","","","","","","","","",""
"","null","html-keyboard-response","135","169010","0.0-11.0-0.15","yNlCgLAo2X","6618650ff8e368f495675c9f","6617fad957f7c6a12ea16e26","6622cc8951ece09e1349732e","fixation cross","null","","","","","","","","","","","",""
"","1186","html-keyboard-response","136","170197","0.0-11.0-1.15","yNlCgLAo2X","6618650ff8e368f495675c9f","6617fad957f7c6a12ea16e26","6622cc8951ece09e1349732e","image grid","p","","","","","Phylogenetic_Distractor_Nonthreat_target","2500","ongrid","p","1","Phylogenetic","true","experimental"
"","null","html-keyboard-response","137","170363","0.0-11.0-2.15","yNlCgLAo2X","6618650ff8e368f495675c9f","6617fad957f7c6a12ea16e26","6622cc8951ece09e1349732e","
    <div id=""grid-container"">
        <!-- Grid items will be dynamically added here -->
    </div>    ","null","","","","","","","","","","","",""
"","null","html-keyboard-response","138","171079","0.0-11.0-0.16","yNlCgLAo2X","6618650ff8e368f495675c9f","6617fad957f7c6a12ea16e26","6622cc8951ece09e1349732e","fixation cross","null","","","","","","","","","","","",""
"","962","html-keyboard-response","139","172041","0.0-11.0-1.16","yNlCgLAo2X","6618650ff8e368f495675c9f","6617fad957f7c6a12ea16e26","6622cc8951ece09e1349732e","image grid","q","","","","","Phylogenetic_Distractor_Threat_target","2500","ongrid","q","3","Phylogenetic","true","experimental"
"","null","html-keyboard-response","140","172203","0.0-11.0-2.16","yNlCgLAo2X","6618650ff8e368f495675c9f","6617fad957f7c6a12ea16e26","6622cc8951ece09e1349732e","
    <div id=""grid-container"">
        <!-- Grid items will be dynamically added here -->
    </div>    ","null","","","","","","","","","","","",""
"","null","html-keyboard-response","141","172918","0.0-11.0-0.17","yNlCgLAo2X","6618650ff8e368f495675c9f","6617fad957f7c6a12ea16e26","6622cc8951ece09e1349732e","fixation cross","null","","","","","","","","","","","",""
"","747","html-keyboard-response","142","173665","0.0-11.0-1.17","yNlCgLAo2X","6618650ff8e368f495675c9f","6617fad957f7c6a12ea16e26","6622cc8951ece09e1349732e","image grid","q","","","","","Phylogenetic_Distractor_Threat_target","2500","ongrid","q","5","Phylogenetic","true","experimental"
"","null","html-keyboard-response","143","173828","0.0-11.0-2.17","yNlCgLAo2X","6618650ff8e368f495675c9f","6617fad957f7c6a12ea16e26","6622cc8951ece09e1349732e","
    <div id=""grid-container"">
        <!-- Grid items will be dynamically added here -->
    </div>    ","null","","","","","","","","","","","",""
"","null","html-keyboard-response","144","174542","0.0-11.0-0.18","yNlCgLAo2X","6618650ff8e368f495675c9f","6617fad957f7c6a12ea16e26","6622cc8951ece09e1349732e","fixation cross","null","","","","","","","","","","","",""
"","814","html-keyboard-response","145","175357","0.0-11.0-1.18","yNlCgLAo2X","6618650ff8e368f495675c9f","6617fad957f7c6a12ea16e26","6622cc8951ece09e1349732e","image grid","q","","","","","Phylogenetic_Distractor_Threat_target","2500","ongrid","q","7","Phylogenetic","true","experimental"
"","null","html-keyboard-response","146","175522","0.0-11.0-2.18","yNlCgLAo2X","6618650ff8e368f495675c9f","6617fad957f7c6a12ea16e26","6622cc8951ece09e1349732e","
    <div id=""grid-container"">
        <!-- Grid items will be dynamically added here -->
    </div>    ","null","","","","","","","","","","","",""
"","null","html-keyboard-response","147","176242","0.0-11.0-0.19","yNlCgLAo2X","6618650ff8e368f495675c9f","6617fad957f7c6a12ea16e26","6622cc8951ece09e1349732e","fixation cross","null","","","","","","","","","","","",""
"","1634","html-keyboard-response","148","177877","0.0-11.0-1.19","yNlCgLAo2X","6618650ff8e368f495675c9f","6617fad957f7c6a12ea16e26","6622cc8951ece09e1349732e","image grid"," ","","","","","Phylogenetic_Distractor_notarget","2500","ongrid"," ","4","Phylogenetic","true","experimental"
"","null","html-keyboard-response","149","178042","0.0-11.0-2.19","yNlCgLAo2X","6618650ff8e368f495675c9f","6617fad957f7c6a12ea16e26","6622cc8951ece09e1349732e","
    <div id=""grid-container"">
        <!-- Grid items will be dynamically added here -->
    </div>    ","null","","","","","","","","","","","",""
"","null","html-keyboard-response","150","178746","0.0-11.0-0.20","yNlCgLAo2X","6618650ff8e368f495675c9f","6617fad957f7c6a12ea16e26","6622cc8951ece09e1349732e","fixation cross","null","","","","","","","","","","","",""
"","2063","html-keyboard-response","151","180809","0.0-11.0-1.20","yNlCgLAo2X","6618650ff8e368f495675c9f","6617fad957f7c6a12ea16e26","6622cc8951ece09e1349732e","image grid"," ","","","","","Phylogenetic_Distractor_notarget","2500","ongrid"," ","7","Phylogenetic","true","experimental"
"","null","html-keyboard-response","152","180975","0.0-11.0-2.20","yNlCgLAo2X","6618650ff8e368f495675c9f","6617fad957f7c6a12ea16e26","6622cc8951ece09e1349732e","
    <div id=""grid-container"">
        <!-- Grid items will be dynamically added here -->
    </div>    ","null","","","","","","","","","","","",""
"","null","html-keyboard-response","153","181680","0.0-11.0-0.21","yNlCgLAo2X","6618650ff8e368f495675c9f","6617fad957f7c6a12ea16e26","6622cc8951ece09e1349732e","fixation cross","null","","","","","","","","","","","",""
"","821","html-keyboard-response","154","182500","0.0-11.0-1.21","yNlCgLAo2X","6618650ff8e368f495675c9f","6617fad957f7c6a12ea16e26","6622cc8951ece09e1349732e","image grid","p","","","","","Phylogenetic_Distractor_Nonthreat_target","2500","ongrid","p","9","Phylogenetic","true","experimental"
"","null","html-keyboard-response","155","182657","0.0-11.0-2.21","yNlCgLAo2X","6618650ff8e368f495675c9f","6617fad957f7c6a12ea16e26","6622cc8951ece09e1349732e","
    <div id=""grid-container"">
        <!-- Grid items will be dynamically added here -->
    </div>    ","null","","","","","","","","","","","",""
"","null","html-keyboard-response","156","183375","0.0-11.0-0.22","yNlCgLAo2X","6618650ff8e368f495675c9f","6617fad957f7c6a12ea16e26","6622cc8951ece09e1349732e","fixation cross","null","","","","","","","","","","","",""
"","697","html-keyboard-response","157","184072","0.0-11.0-1.22","yNlCgLAo2X","6618650ff8e368f495675c9f","6617fad957f7c6a12ea16e26","6622cc8951ece09e1349732e","image grid","q","","","","","Phylogenetic_Distractor_Threat_target","2500","ongrid","q","9","Phylogenetic","true","experimental"
"","null","html-keyboard-response","158","184233","0.0-11.0-2.22","yNlCgLAo2X","6618650ff8e368f495675c9f","6617fad957f7c6a12ea16e26","6622cc8951ece09e1349732e","
    <div id=""grid-container"">
        <!-- Grid items will be dynamically added here -->
    </div>    ","null","","","","","","","","","","","",""
"","null","html-keyboard-response","159","184946","0.0-11.0-0.23","yNlCgLAo2X","6618650ff8e368f495675c9f","6617fad957f7c6a12ea16e26","6622cc8951ece09e1349732e","fixation cross","null","","","","","","","","","","","",""
"","1438","html-keyboard-response","160","186384","0.0-11.0-1.23","yNlCgLAo2X","6618650ff8e368f495675c9f","6617fad957f7c6a12ea16e26","6622cc8951ece09e1349732e","image grid","p","","","","","Phylogenetic_Distractor_Nonthreat_target","2500","ongrid","p","3","Phylogenetic","true","experimental"
"","null","html-keyboard-response","161","186538","0.0-11.0-2.23","yNlCgLAo2X","6618650ff8e368f495675c9f","6617fad957f7c6a12ea16e26","6622cc8951ece09e1349732e","
    <div id=""grid-container"">
        <!-- Grid items will be dynamically added here -->
    </div>    ","null","","","","","","","","","","","",""
"","null","html-keyboard-response","162","187251","0.0-11.0-0.24","yNlCgLAo2X","6618650ff8e368f495675c9f","6617fad957f7c6a12ea16e26","6622cc8951ece09e1349732e","fixation cross","null","","","","","","","","","","","",""
"","734","html-keyboard-response","163","187985","0.0-11.0-1.24","yNlCgLAo2X","6618650ff8e368f495675c9f","6617fad957f7c6a12ea16e26","6622cc8951ece09e1349732e","image grid","q","","","","","Phylogenetic_Distractor_Threat_target","2500","ongrid","q","6","Phylogenetic","true","experimental"
"","null","html-keyboard-response","164","188140","0.0-11.0-2.24","yNlCgLAo2X","6618650ff8e368f495675c9f","6617fad957f7c6a12ea16e26","6622cc8951ece09e1349732e","
    <div id=""grid-container"">
        <!-- Grid items will be dynamically added here -->
    </div>    ","null","","","","","","","","","","","",""
"","null","html-keyboard-response","165","188844","0.0-11.0-0.25","yNlCgLAo2X","6618650ff8e368f495675c9f","6617fad957f7c6a12ea16e26","6622cc8951ece09e1349732e","fixation cross","null","","","","","","","","","","","",""
"","1499","html-keyboard-response","166","190343","0.0-11.0-1.25","yNlCgLAo2X","6618650ff8e368f495675c9f","6617fad957f7c6a12ea16e26","6622cc8951ece09e1349732e","image grid","p","","","","","Phylogenetic_Distractor_Nonthreat_target","2500","ongrid","p","7","Phylogenetic","true","experimental"
"","null","html-keyboard-response","167","190502","0.0-11.0-2.25","yNlCgLAo2X","6618650ff8e368f495675c9f","6617fad957f7c6a12ea16e26","6622cc8951ece09e1349732e","
    <div id=""grid-container"">
        <!-- Grid items will be dynamically added here -->
    </div>    ","null","","","","","","","","","","","",""
"","null","html-keyboard-response","168","191220","0.0-11.0-0.26","yNlCgLAo2X","6618650ff8e368f495675c9f","6617fad957f7c6a12ea16e26","6622cc8951ece09e1349732e","fixation cross","null","","","","","","","","","","","",""
"","1211","html-keyboard-response","169","192432","0.0-11.0-1.26","yNlCgLAo2X","6618650ff8e368f495675c9f","6617fad957f7c6a12ea16e26","6622cc8951ece09e1349732e","image grid","p","","","","","Phylogenetic_Distractor_Nonthreat_target","2500","ongrid","p","2","Phylogenetic","true","experimental"
"","null","html-keyboard-response","170","192591","0.0-11.0-2.26","yNlCgLAo2X","6618650ff8e368f495675c9f","6617fad957f7c6a12ea16e26","6622cc8951ece09e1349732e","
    <div id=""grid-container"">
        <!-- Grid items will be dynamically added here -->
    </div>    ","null","","","","","","","","","","","",""
"","null","html-keyboard-response","171","193294","0.0-11.0-0.27","yNlCgLAo2X","6618650ff8e368f495675c9f","6617fad957f7c6a12ea16e26","6622cc8951ece09e1349732e","fixation cross","null","","","","","","","","","","","",""
"","1061","html-keyboard-response","172","194355","0.0-11.0-1.27","yNlCgLAo2X","6618650ff8e368f495675c9f","6617fad957f7c6a12ea16e26","6622cc8951ece09e1349732e","image grid","p","","","","","Phylogenetic_Distractor_Nonthreat_target","2500","ongrid","p","4","Phylogenetic","true","experimental"
"","null","html-keyboard-response","173","194518","0.0-11.0-2.27","yNlCgLAo2X","6618650ff8e368f495675c9f","6617fad957f7c6a12ea16e26","6622cc8951ece09e1349732e","
    <div id=""grid-container"">
        <!-- Grid items will be dynamically added here -->
    </div>    ","null","","","","","","","","","","","",""
"","null","html-keyboard-response","174","195235","0.0-11.0-0.28","yNlCgLAo2X","6618650ff8e368f495675c9f","6617fad957f7c6a12ea16e26","6622cc8951ece09e1349732e","fixation cross","null","","","","","","","","","","","",""
"","688","html-keyboard-response","175","195924","0.0-11.0-1.28","yNlCgLAo2X","6618650ff8e368f495675c9f","6617fad957f7c6a12ea16e26","6622cc8951ece09e1349732e","image grid","q","","","","","Phylogenetic_Distractor_Threat_target","2500","ongrid","q","7","Phylogenetic","true","experimental"
"","null","html-keyboard-response","176","196079","0.0-11.0-2.28","yNlCgLAo2X","6618650ff8e368f495675c9f","6617fad957f7c6a12ea16e26","6622cc8951ece09e1349732e","
    <div id=""grid-container"">
        <!-- Grid items will be dynamically added here -->
    </div>    ","null","","","","","","","","","","","",""
"","null","html-keyboard-response","177","196782","0.0-11.0-0.29","yNlCgLAo2X","6618650ff8e368f495675c9f","6617fad957f7c6a12ea16e26","6622cc8951ece09e1349732e","fixation cross","null","","","","","","","","","","","",""
"","878","html-keyboard-response","178","197659","0.0-11.0-1.29","yNlCgLAo2X","6618650ff8e368f495675c9f","6617fad957f7c6a12ea16e26","6622cc8951ece09e1349732e","image grid","p","","","","","Phylogenetic_Distractor_Nonthreat_target","2500","ongrid","p","2","Phylogenetic","true","experimental"
"","null","html-keyboard-response","179","197818","0.0-11.0-2.29","yNlCgLAo2X","6618650ff8e368f495675c9f","6617fad957f7c6a12ea16e26","6622cc8951ece09e1349732e","
    <div id=""grid-container"">
        <!-- Grid items will be dynamically added here -->
    </div>    ","null","","","","","","","","","","","",""
"","null","html-keyboard-response","180","198534","0.0-11.0-0.30","yNlCgLAo2X","6618650ff8e368f495675c9f","6617fad957f7c6a12ea16e26","6622cc8951ece09e1349732e","fixation cross","null","","","","","","","","","","","",""
"","665","html-keyboard-response","181","199200","0.0-11.0-1.30","yNlCgLAo2X","6618650ff8e368f495675c9f","6617fad957f7c6a12ea16e26","6622cc8951ece09e1349732e","image grid","q","","","","","Phylogenetic_Distractor_Threat_target","2500","ongrid","q","1","Phylogenetic","true","experimental"
"","null","html-keyboard-response","182","199362","0.0-11.0-2.30","yNlCgLAo2X","6618650ff8e368f495675c9f","6617fad957f7c6a12ea16e26","6622cc8951ece09e1349732e","
    <div id=""grid-container"">
        <!-- Grid items will be dynamically added here -->
    </div>    ","null","","","","","","","","","","","",""
"","null","html-keyboard-response","183","200080","0.0-11.0-0.31","yNlCgLAo2X","6618650ff8e368f495675c9f","6617fad957f7c6a12ea16e26","6622cc8951ece09e1349732e","fixation cross","null","","","","","","","","","","","",""
"","784","html-keyboard-response","184","200864","0.0-11.0-1.31","yNlCgLAo2X","6618650ff8e368f495675c9f","6617fad957f7c6a12ea16e26","6622cc8951ece09e1349732e","image grid","q","","","","","Phylogenetic_Distractor_Threat_target","2500","ongrid","q","7","Phylogenetic","true","experimental"
"","null","html-keyboard-response","185","201017","0.0-11.0-2.31","yNlCgLAo2X","6618650ff8e368f495675c9f","6617fad957f7c6a12ea16e26","6622cc8951ece09e1349732e","
    <div id=""grid-container"">
        <!-- Grid items will be dynamically added here -->
    </div>    ","null","","","","","","","","","","","",""
"","null","html-keyboard-response","186","201731","0.0-11.0-0.32","yNlCgLAo2X","6618650ff8e368f495675c9f","6617fad957f7c6a12ea16e26","6622cc8951ece09e1349732e","fixation cross","null","","","","","","","","","","","",""
"","848","html-keyboard-response","187","202580","0.0-11.0-1.32","yNlCgLAo2X","6618650ff8e368f495675c9f","6617fad957f7c6a12ea16e26","6622cc8951ece09e1349732e","image grid","p","","","","","Phylogenetic_Distractor_Nonthreat_target","2500","ongrid","p","5","Phylogenetic","true","experimental"
"","null","html-keyboard-response","188","202744","0.0-11.0-2.32","yNlCgLAo2X","6618650ff8e368f495675c9f","6617fad957f7c6a12ea16e26","6622cc8951ece09e1349732e","
    <div id=""grid-container"">
        <!-- Grid items will be dynamically added here -->
    </div>    ","null","","","","","","","","","","","",""
"","null","html-keyboard-response","189","203459","0.0-11.0-0.33","yNlCgLAo2X","6618650ff8e368f495675c9f","6617fad957f7c6a12ea16e26","6622cc8951ece09e1349732e","fixation cross","null","","","","","","","","","","","",""
"","664","html-keyboard-response","190","204124","0.0-11.0-1.33","yNlCgLAo2X","6618650ff8e368f495675c9f","6617fad957f7c6a12ea16e26","6622cc8951ece09e1349732e","image grid","q","","","","","Phylogenetic_Distractor_Threat_target","2500","ongrid","q","6","Phylogenetic","true","experimental"
"","null","html-keyboard-response","191","204286","0.0-11.0-2.33","yNlCgLAo2X","6618650ff8e368f495675c9f","6617fad957f7c6a12ea16e26","6622cc8951ece09e1349732e","
    <div id=""grid-container"">
        <!-- Grid items will be dynamically added here -->
    </div>    ","null","","","","","","","","","","","",""
"","null","html-keyboard-response","192","205006","0.0-11.0-0.34","yNlCgLAo2X","6618650ff8e368f495675c9f","6617fad957f7c6a12ea16e26","6622cc8951ece09e1349732e","fixation cross","null","","","","","","","","","","","",""
"","629","html-keyboard-response","193","205635","0.0-11.0-1.34","yNlCgLAo2X","6618650ff8e368f495675c9f","6617fad957f7c6a12ea16e26","6622cc8951ece09e1349732e","image grid","p","","","","","Phylogenetic_Distractor_Nonthreat_target","2500","ongrid","p","5","Phylogenetic","true","experimental"
"","null","html-keyboard-response","194","205801","0.0-11.0-2.34","yNlCgLAo2X","6618650ff8e368f495675c9f","6617fad957f7c6a12ea16e26","6622cc8951ece09e1349732e","
    <div id=""grid-container"">
        <!-- Grid items will be dynamically added here -->
    </div>    ","null","","","","","","","","","","","",""
"","null","html-keyboard-response","195","206506","0.0-11.0-0.35","yNlCgLAo2X","6618650ff8e368f495675c9f","6617fad957f7c6a12ea16e26","6622cc8951ece09e1349732e","fixation cross","null","","","","","","","","","","","",""
"","813","html-keyboard-response","196","207319","0.0-11.0-1.35","yNlCgLAo2X","6618650ff8e368f495675c9f","6617fad957f7c6a12ea16e26","6622cc8951ece09e1349732e","image grid","p","","","","","Phylogenetic_Distractor_Nonthreat_target","2500","ongrid","p","8","Phylogenetic","true","experimental"
"","null","html-keyboard-response","197","207471","0.0-11.0-2.35","yNlCgLAo2X","6618650ff8e368f495675c9f","6617fad957f7c6a12ea16e26","6622cc8951ece09e1349732e","
    <div id=""grid-container"">
        <!-- Grid items will be dynamically added here -->
    </div>    ","null","","","","","","","","","","","",""
"","null","html-keyboard-response","198","208188","0.0-11.0-0.36","yNlCgLAo2X","6618650ff8e368f495675c9f","6617fad957f7c6a12ea16e26","6622cc8951ece09e1349732e","fixation cross","null","","","","","","","","","","","",""
"","988","html-keyboard-response","199","209175","0.0-11.0-1.36","yNlCgLAo2X","6618650ff8e368f495675c9f","6617fad957f7c6a12ea16e26","6622cc8951ece09e1349732e","image grid","p","","","","","Phylogenetic_Distractor_Nonthreat_target","2500","ongrid","p","7","Phylogenetic","true","experimental"
"","null","html-keyboard-response","200","209335","0.0-11.0-2.36","yNlCgLAo2X","6618650ff8e368f495675c9f","6617fad957f7c6a12ea16e26","6622cc8951ece09e1349732e","
    <div id=""grid-container"">
        <!-- Grid items will be dynamically added here -->
    </div>    ","null","","","","","","","","","","","",""
"","null","html-keyboard-response","201","210051","0.0-11.0-0.37","yNlCgLAo2X","6618650ff8e368f495675c9f","6617fad957f7c6a12ea16e26","6622cc8951ece09e1349732e","fixation cross","null","","","","","","","","","","","",""
"","736","html-keyboard-response","202","210788","0.0-11.0-1.37","yNlCgLAo2X","6618650ff8e368f495675c9f","6617fad957f7c6a12ea16e26","6622cc8951ece09e1349732e","image grid","q","","","","","Phylogenetic_Distractor_Threat_target","2500","ongrid","q","9","Phylogenetic","true","experimental"
"","null","html-keyboard-response","203","210951","0.0-11.0-2.37","yNlCgLAo2X","6618650ff8e368f495675c9f","6617fad957f7c6a12ea16e26","6622cc8951ece09e1349732e","
    <div id=""grid-container"">
        <!-- Grid items will be dynamically added here -->
    </div>    ","null","","","","","","","","","","","",""
"","null","html-keyboard-response","204","211654","0.0-11.0-0.38","yNlCgLAo2X","6618650ff8e368f495675c9f","6617fad957f7c6a12ea16e26","6622cc8951ece09e1349732e","fixation cross","null","","","","","","","","","","","",""
"","668","html-keyboard-response","205","212322","0.0-11.0-1.38","yNlCgLAo2X","6618650ff8e368f495675c9f","6617fad957f7c6a12ea16e26","6622cc8951ece09e1349732e","image grid","p","","","","","Phylogenetic_Distractor_Nonthreat_target","2500","ongrid","p","2","Phylogenetic","true","experimental"
"","null","html-keyboard-response","206","212480","0.0-11.0-2.38","yNlCgLAo2X","6618650ff8e368f495675c9f","6617fad957f7c6a12ea16e26","6622cc8951ece09e1349732e","
    <div id=""grid-container"">
        <!-- Grid items will be dynamically added here -->
    </div>    ","null","","","","","","","","","","","",""
"","null","html-keyboard-response","207","213197","0.0-11.0-0.39","yNlCgLAo2X","6618650ff8e368f495675c9f","6617fad957f7c6a12ea16e26","6622cc8951ece09e1349732e","fixation cross","null","","","","","","","","","","","",""
"","1053","html-keyboard-response","208","214251","0.0-11.0-1.39","yNlCgLAo2X","6618650ff8e368f495675c9f","6617fad957f7c6a12ea16e26","6622cc8951ece09e1349732e","image grid","p","","","","","Phylogenetic_Distractor_Nonthreat_target","2500","ongrid","p","1","Phylogenetic","true","experimental"
"","null","html-keyboard-response","209","214415","0.0-11.0-2.39","yNlCgLAo2X","6618650ff8e368f495675c9f","6617fad957f7c6a12ea16e26","6622cc8951ece09e1349732e","
    <div id=""grid-container"">
        <!-- Grid items will be dynamically added here -->
    </div>    ","null","","","","","","","","","","","",""
"","8039","html-keyboard-response","210","222679","0.0-12.0","yNlCgLAo2X","6618650ff8e368f495675c9f","6617fad957f7c6a12ea16e26","6622cc8951ece09e1349732e","break screen"," ","","","","","","","","","","","",""
"","null","html-keyboard-response","211","225210","0.0-13.0-0.0","yNlCgLAo2X","6618650ff8e368f495675c9f","6617fad957f7c6a12ea16e26","6622cc8951ece09e1349732e","fixation cross","null","","","","","","","","","","","",""
"","1064","html-keyboard-response","212","226275","0.0-13.0-1.0","yNlCgLAo2X","6618650ff8e368f495675c9f","6617fad957f7c6a12ea16e26","6622cc8951ece09e1349732e","image grid","q","","","","","Ontogenetic_Distractor_Threat_target","2500","ongrid","q","8","Ontogenetic","true","experimental"
"","null","html-keyboard-response","213","226439","0.0-13.0-2.0","yNlCgLAo2X","6618650ff8e368f495675c9f","6617fad957f7c6a12ea16e26","6622cc8951ece09e1349732e","
    <div id=""grid-container"">
        <!-- Grid items will be dynamically added here -->
    </div>    ","null","","","","","","","","","","","",""
"","null","html-keyboard-response","214","227152","0.0-13.0-0.1","yNlCgLAo2X","6618650ff8e368f495675c9f","6617fad957f7c6a12ea16e26","6622cc8951ece09e1349732e","fixation cross","null","","","","","","","","","","","",""
"","887","html-keyboard-response","215","228038","0.0-13.0-1.1","yNlCgLAo2X","6618650ff8e368f495675c9f","6617fad957f7c6a12ea16e26","6622cc8951ece09e1349732e","image grid","q","","","","","Ontogenetic_Distractor_Threat_target","2500","ongrid","q","2","Ontogenetic","true","experimental"
"","null","html-keyboard-response","216","228195","0.0-13.0-2.1","yNlCgLAo2X","6618650ff8e368f495675c9f","6617fad957f7c6a12ea16e26","6622cc8951ece09e1349732e","
    <div id=""grid-container"">
        <!-- Grid items will be dynamically added here -->
    </div>    ","null","","","","","","","","","","","",""
"","null","html-keyboard-response","217","228912","0.0-13.0-0.2","yNlCgLAo2X","6618650ff8e368f495675c9f","6617fad957f7c6a12ea16e26","6622cc8951ece09e1349732e","fixation cross","null","","","","","","","","","","","",""
"","1242","html-keyboard-response","218","230155","0.0-13.0-1.2","yNlCgLAo2X","6618650ff8e368f495675c9f","6617fad957f7c6a12ea16e26","6622cc8951ece09e1349732e","image grid","p","","","","","Ontogenetic_Distractor_Nonthreat_target","2500","ongrid","p","6","Ontogenetic","true","experimental"
"","null","html-keyboard-response","219","230313","0.0-13.0-2.2","yNlCgLAo2X","6618650ff8e368f495675c9f","6617fad957f7c6a12ea16e26","6622cc8951ece09e1349732e","
    <div id=""grid-container"">
        <!-- Grid items will be dynamically added here -->
    </div>    ","null","","","","","","","","","","","",""
"","null","html-keyboard-response","220","231024","0.0-13.0-0.3","yNlCgLAo2X","6618650ff8e368f495675c9f","6617fad957f7c6a12ea16e26","6622cc8951ece09e1349732e","fixation cross","null","","","","","","","","","","","",""
"","1053","html-keyboard-response","221","232078","0.0-13.0-1.3","yNlCgLAo2X","6618650ff8e368f495675c9f","6617fad957f7c6a12ea16e26","6622cc8951ece09e1349732e","image grid","p","","","","","Ontogenetic_Distractor_Nonthreat_target","2500","ongrid","p","1","Ontogenetic","true","experimental"
"","null","html-keyboard-response","222","232238","0.0-13.0-2.3","yNlCgLAo2X","6618650ff8e368f495675c9f","6617fad957f7c6a12ea16e26","6622cc8951ece09e1349732e","
    <div id=""grid-container"">
        <!-- Grid items will be dynamically added here -->
    </div>    ","null","","","","","","","","","","","",""
"","null","html-keyboard-response","223","232950","0.0-13.0-0.4","yNlCgLAo2X","6618650ff8e368f495675c9f","6617fad957f7c6a12ea16e26","6622cc8951ece09e1349732e","fixation cross","null","","","","","","","","","","","",""
"","752","html-keyboard-response","224","233702","0.0-13.0-1.4","yNlCgLAo2X","6618650ff8e368f495675c9f","6617fad957f7c6a12ea16e26","6622cc8951ece09e1349732e","image grid","p","","","","","Ontogenetic_Distractor_Nonthreat_target","2500","ongrid","p","1","Ontogenetic","true","experimental"
"","null","html-keyboard-response","225","233855","0.0-13.0-2.4","yNlCgLAo2X","6618650ff8e368f495675c9f","6617fad957f7c6a12ea16e26","6622cc8951ece09e1349732e","
    <div id=""grid-container"">
        <!-- Grid items will be dynamically added here -->
    </div>    ","null","","","","","","","","","","","",""
"","null","html-keyboard-response","226","234574","0.0-13.0-0.5","yNlCgLAo2X","6618650ff8e368f495675c9f","6617fad957f7c6a12ea16e26","6622cc8951ece09e1349732e","fixation cross","null","","","","","","","","","","","",""
"","696","html-keyboard-response","227","235269","0.0-13.0-1.5","yNlCgLAo2X","6618650ff8e368f495675c9f","6617fad957f7c6a12ea16e26","6622cc8951ece09e1349732e","image grid","q","","","","","Ontogenetic_Distractor_Threat_target","2500","ongrid","q","4","Ontogenetic","true","experimental"
"","null","html-keyboard-response","228","235430","0.0-13.0-2.5","yNlCgLAo2X","6618650ff8e368f495675c9f","6617fad957f7c6a12ea16e26","6622cc8951ece09e1349732e","
    <div id=""grid-container"">
        <!-- Grid items will be dynamically added here -->
    </div>    ","null","","","","","","","","","","","",""
"","null","html-keyboard-response","229","236148","0.0-13.0-0.6","yNlCgLAo2X","6618650ff8e368f495675c9f","6617fad957f7c6a12ea16e26","6622cc8951ece09e1349732e","fixation cross","null","","","","","","","","","","","",""
"","558","html-keyboard-response","230","236706","0.0-13.0-1.6","yNlCgLAo2X","6618650ff8e368f495675c9f","6617fad957f7c6a12ea16e26","6622cc8951ece09e1349732e","image grid","p","","","","","Ontogenetic_Distractor_Nonthreat_target","2500","ongrid","p","5","Ontogenetic","true","experimental"
"","null","html-keyboard-response","231","236865","0.0-13.0-2.6","yNlCgLAo2X","6618650ff8e368f495675c9f","6617fad957f7c6a12ea16e26","6622cc8951ece09e1349732e","
    <div id=""grid-container"">
        <!-- Grid items will be dynamically added here -->
    </div>    ","null","","","","","","","","","","","",""
"","null","html-keyboard-response","232","237582","0.0-13.0-0.7","yNlCgLAo2X","6618650ff8e368f495675c9f","6617fad957f7c6a12ea16e26","6622cc8951ece09e1349732e","fixation cross","null","","","","","","","","","","","",""
"","751","html-keyboard-response","233","238333","0.0-13.0-1.7","yNlCgLAo2X","6618650ff8e368f495675c9f","6617fad957f7c6a12ea16e26","6622cc8951ece09e1349732e","image grid","q","","","","","Ontogenetic_Distractor_Threat_target","2500","ongrid","q","5","Ontogenetic","true","experimental"
"","null","html-keyboard-response","234","238500","0.0-13.0-2.7","yNlCgLAo2X","6618650ff8e368f495675c9f","6617fad957f7c6a12ea16e26","6622cc8951ece09e1349732e","
    <div id=""grid-container"">
        <!-- Grid items will be dynamically added here -->
    </div>    ","null","","","","","","","","","","","",""
"","null","html-keyboard-response","235","239213","0.0-13.0-0.8","yNlCgLAo2X","6618650ff8e368f495675c9f","6617fad957f7c6a12ea16e26","6622cc8951ece09e1349732e","fixation cross","null","","","","","","","","","","","",""
"","856","html-keyboard-response","236","240070","0.0-13.0-1.8","yNlCgLAo2X","6618650ff8e368f495675c9f","6617fad957f7c6a12ea16e26","6622cc8951ece09e1349732e","image grid","q","","","","","Ontogenetic_Distractor_Threat_target","2500","ongrid","q","4","Ontogenetic","true","experimental"
"","null","html-keyboard-response","237","240226","0.0-13.0-2.8","yNlCgLAo2X","6618650ff8e368f495675c9f","6617fad957f7c6a12ea16e26","6622cc8951ece09e1349732e","
    <div id=""grid-container"">
        <!-- Grid items will be dynamically added here -->
    </div>    ","null","","","","","","","","","","","",""
"","null","html-keyboard-response","238","240932","0.0-13.0-0.9","yNlCgLAo2X","6618650ff8e368f495675c9f","6617fad957f7c6a12ea16e26","6622cc8951ece09e1349732e","fixation cross","null","","","","","","","","","","","",""
"","641","html-keyboard-response","239","241574","0.0-13.0-1.9","yNlCgLAo2X","6618650ff8e368f495675c9f","6617fad957f7c6a12ea16e26","6622cc8951ece09e1349732e","image grid","q","","","","","Ontogenetic_Distractor_Threat_target","2500","ongrid","q","4","Ontogenetic","true","experimental"
"","null","html-keyboard-response","240","241728","0.0-13.0-2.9","yNlCgLAo2X","6618650ff8e368f495675c9f","6617fad957f7c6a12ea16e26","6622cc8951ece09e1349732e","
    <div id=""grid-container"">
        <!-- Grid items will be dynamically added here -->
    </div>    ","null","","","","","","","","","","","",""
"","null","html-keyboard-response","241","242445","0.0-13.0-0.10","yNlCgLAo2X","6618650ff8e368f495675c9f","6617fad957f7c6a12ea16e26","6622cc8951ece09e1349732e","fixation cross","null","","","","","","","","","","","",""
"","677","html-keyboard-response","242","243122","0.0-13.0-1.10","yNlCgLAo2X","6618650ff8e368f495675c9f","6617fad957f7c6a12ea16e26","6622cc8951ece09e1349732e","image grid","p","","","","","Ontogenetic_Distractor_Nonthreat_target","2500","ongrid","p","2","Ontogenetic","true","experimental"
"","null","html-keyboard-response","243","243286","0.0-13.0-2.10","yNlCgLAo2X","6618650ff8e368f495675c9f","6617fad957f7c6a12ea16e26","6622cc8951ece09e1349732e","
    <div id=""grid-container"">
        <!-- Grid items will be dynamically added here -->
    </div>    ","null","","","","","","","","","","","",""
"","null","html-keyboard-response","244","243991","0.0-13.0-0.11","yNlCgLAo2X","6618650ff8e368f495675c9f","6617fad957f7c6a12ea16e26","6622cc8951ece09e1349732e","fixation cross","null","","","","","","","","","","","",""
"","1839","html-keyboard-response","245","245830","0.0-13.0-1.11","yNlCgLAo2X","6618650ff8e368f495675c9f","6617fad957f7c6a12ea16e26","6622cc8951ece09e1349732e","image grid"," ","","","","","Ontogenetic_Distractor_notarget","2500","ongrid"," ","5","Ontogenetic","true","experimental"
"","null","html-keyboard-response","246","245990","0.0-13.0-2.11","yNlCgLAo2X","6618650ff8e368f495675c9f","6617fad957f7c6a12ea16e26","6622cc8951ece09e1349732e","
    <div id=""grid-container"">
        <!-- Grid items will be dynamically added here -->
    </div>    ","null","","","","","","","","","","","",""
"","null","html-keyboard-response","247","246705","0.0-13.0-0.12","yNlCgLAo2X","6618650ff8e368f495675c9f","6617fad957f7c6a12ea16e26","6622cc8951ece09e1349732e","fixation cross","null","","","","","","","","","","","",""
"","633","html-keyboard-response","248","247338","0.0-13.0-1.12","yNlCgLAo2X","6618650ff8e368f495675c9f","6617fad957f7c6a12ea16e26","6622cc8951ece09e1349732e","image grid","p","","","","","Ontogenetic_Distractor_Nonthreat_target","2500","ongrid","p","4","Ontogenetic","true","experimental"
"","null","html-keyboard-response","249","247499","0.0-13.0-2.12","yNlCgLAo2X","6618650ff8e368f495675c9f","6617fad957f7c6a12ea16e26","6622cc8951ece09e1349732e","
    <div id=""grid-container"">
        <!-- Grid items will be dynamically added here -->
    </div>    ","null","","","","","","","","","","","",""
"","null","html-keyboard-response","250","248214","0.0-13.0-0.13","yNlCgLAo2X","6618650ff8e368f495675c9f","6617fad957f7c6a12ea16e26","6622cc8951ece09e1349732e","fixation cross","null","","","","","","","","","","","",""
"","1131","html-keyboard-response","251","249346","0.0-13.0-1.13","yNlCgLAo2X","6618650ff8e368f495675c9f","6617fad957f7c6a12ea16e26","6622cc8951ece09e1349732e","image grid","q","","","","","Ontogenetic_Distractor_Threat_target","2500","ongrid","q","9","Ontogenetic","true","experimental"
"","null","html-keyboard-response","252","249509","0.0-13.0-2.13","yNlCgLAo2X","6618650ff8e368f495675c9f","6617fad957f7c6a12ea16e26","6622cc8951ece09e1349732e","
    <div id=""grid-container"">
        <!-- Grid items will be dynamically added here -->
    </div>    ","null","","","","","","","","","","","",""
"","null","html-keyboard-response","253","250227","0.0-13.0-0.14","yNlCgLAo2X","6618650ff8e368f495675c9f","6617fad957f7c6a12ea16e26","6622cc8951ece09e1349732e","fixation cross","null","","","","","","","","","","","",""
"","655","html-keyboard-response","254","250882","0.0-13.0-1.14","yNlCgLAo2X","6618650ff8e368f495675c9f","6617fad957f7c6a12ea16e26","6622cc8951ece09e1349732e","image grid","p","","","","","Ontogenetic_Distractor_Nonthreat_target","2500","ongrid","p","4","Ontogenetic","true","experimental"
"","null","html-keyboard-response","255","251036","0.0-13.0-2.14","yNlCgLAo2X","6618650ff8e368f495675c9f","6617fad957f7c6a12ea16e26","6622cc8951ece09e1349732e","
    <div id=""grid-container"">
        <!-- Grid items will be dynamically added here -->
    </div>    ","null","","","","","","","","","","","",""
"","null","html-keyboard-response","256","251739","0.0-13.0-0.15","yNlCgLAo2X","6618650ff8e368f495675c9f","6617fad957f7c6a12ea16e26","6622cc8951ece09e1349732e","fixation cross","null","","","","","","","","","","","",""
"","871","html-keyboard-response","257","252610","0.0-13.0-1.15","yNlCgLAo2X","6618650ff8e368f495675c9f","6617fad957f7c6a12ea16e26","6622cc8951ece09e1349732e","image grid","p","","","","","Ontogenetic_Distractor_Nonthreat_target","2500","ongrid","p","7","Ontogenetic","true","experimental"
"","null","html-keyboard-response","258","252768","0.0-13.0-2.15","yNlCgLAo2X","6618650ff8e368f495675c9f","6617fad957f7c6a12ea16e26","6622cc8951ece09e1349732e","
    <div id=""grid-container"">
        <!-- Grid items will be dynamically added here -->
    </div>    ","null","","","","","","","","","","","",""
"","null","html-keyboard-response","259","253484","0.0-13.0-0.16","yNlCgLAo2X","6618650ff8e368f495675c9f","6617fad957f7c6a12ea16e26","6622cc8951ece09e1349732e","fixation cross","null","","","","","","","","","","","",""
"","1764","html-keyboard-response","260","255249","0.0-13.0-1.16","yNlCgLAo2X","6618650ff8e368f495675c9f","6617fad957f7c6a12ea16e26","6622cc8951ece09e1349732e","image grid","p","","","","","Ontogenetic_Distractor_Nonthreat_target","2500","ongrid","p","9","Ontogenetic","true","experimental"
"","null","html-keyboard-response","261","255413","0.0-13.0-2.16","yNlCgLAo2X","6618650ff8e368f495675c9f","6617fad957f7c6a12ea16e26","6622cc8951ece09e1349732e","
    <div id=""grid-container"">
        <!-- Grid items will be dynamically added here -->
    </div>    ","null","","","","","","","","","","","",""
"","null","html-keyboard-response","262","256118","0.0-13.0-0.17","yNlCgLAo2X","6618650ff8e368f495675c9f","6617fad957f7c6a12ea16e26","6622cc8951ece09e1349732e","fixation cross","null","","","","","","","","","","","",""
"","723","html-keyboard-response","263","256841","0.0-13.0-1.17","yNlCgLAo2X","6618650ff8e368f495675c9f","6617fad957f7c6a12ea16e26","6622cc8951ece09e1349732e","image grid","p","","","","","Ontogenetic_Distractor_Nonthreat_target","2500","ongrid","p","5","Ontogenetic","true","experimental"
"","null","html-keyboard-response","264","257004","0.0-13.0-2.17","yNlCgLAo2X","6618650ff8e368f495675c9f","6617fad957f7c6a12ea16e26","6622cc8951ece09e1349732e","
    <div id=""grid-container"">
        <!-- Grid items will be dynamically added here -->
    </div>    ","null","","","","","","","","","","","",""
"","null","html-keyboard-response","265","257719","0.0-13.0-0.18","yNlCgLAo2X","6618650ff8e368f495675c9f","6617fad957f7c6a12ea16e26","6622cc8951ece09e1349732e","fixation cross","null","","","","","","","","","","","",""
"","834","html-keyboard-response","266","258553","0.0-13.0-1.18","yNlCgLAo2X","6618650ff8e368f495675c9f","6617fad957f7c6a12ea16e26","6622cc8951ece09e1349732e","image grid","q","","","","","Ontogenetic_Distractor_Threat_target","2500","ongrid","q","1","Ontogenetic","true","experimental"
"","null","html-keyboard-response","267","258714","0.0-13.0-2.18","yNlCgLAo2X","6618650ff8e368f495675c9f","6617fad957f7c6a12ea16e26","6622cc8951ece09e1349732e","
    <div id=""grid-container"">
        <!-- Grid items will be dynamically added here -->
    </div>    ","null","","","","","","","","","","","",""
"","null","html-keyboard-response","268","259435","0.0-13.0-0.19","yNlCgLAo2X","6618650ff8e368f495675c9f","6617fad957f7c6a12ea16e26","6622cc8951ece09e1349732e","fixation cross","null","","","","","","","","","","","",""
"","825","html-keyboard-response","269","260261","0.0-13.0-1.19","yNlCgLAo2X","6618650ff8e368f495675c9f","6617fad957f7c6a12ea16e26","6622cc8951ece09e1349732e","image grid","q","","","","","Ontogenetic_Distractor_Threat_target","2500","ongrid","q","1","Ontogenetic","true","experimental"
"","null","html-keyboard-response","270","260416","0.0-13.0-2.19","yNlCgLAo2X","6618650ff8e368f495675c9f","6617fad957f7c6a12ea16e26","6622cc8951ece09e1349732e","
    <div id=""grid-container"">
        <!-- Grid items will be dynamically added here -->
    </div>    ","null","","","","","","","","","","","",""
"","null","html-keyboard-response","271","261133","0.0-13.0-0.20","yNlCgLAo2X","6618650ff8e368f495675c9f","6617fad957f7c6a12ea16e26","6622cc8951ece09e1349732e","fixation cross","null","","","","","","","","","","","",""
"","784","html-keyboard-response","272","261917","0.0-13.0-1.20","yNlCgLAo2X","6618650ff8e368f495675c9f","6617fad957f7c6a12ea16e26","6622cc8951ece09e1349732e","image grid","q","","","","","Ontogenetic_Distractor_Threat_target","2500","ongrid","q","3","Ontogenetic","true","experimental"
"","null","html-keyboard-response","273","262069","0.0-13.0-2.20","yNlCgLAo2X","6618650ff8e368f495675c9f","6617fad957f7c6a12ea16e26","6622cc8951ece09e1349732e","
    <div id=""grid-container"">
        <!-- Grid items will be dynamically added here -->
    </div>    ","null","","","","","","","","","","","",""
"","null","html-keyboard-response","274","262782","0.0-13.0-0.21","yNlCgLAo2X","6618650ff8e368f495675c9f","6617fad957f7c6a12ea16e26","6622cc8951ece09e1349732e","fixation cross","null","","","","","","","","","","","",""
"","839","html-keyboard-response","275","263621","0.0-13.0-1.21","yNlCgLAo2X","6618650ff8e368f495675c9f","6617fad957f7c6a12ea16e26","6622cc8951ece09e1349732e","image grid","q","","","","","Ontogenetic_Distractor_Threat_target","2500","ongrid","q","3","Ontogenetic","true","experimental"
"","null","html-keyboard-response","276","263780","0.0-13.0-2.21","yNlCgLAo2X","6618650ff8e368f495675c9f","6617fad957f7c6a12ea16e26","6622cc8951ece09e1349732e","
    <div id=""grid-container"">
        <!-- Grid items will be dynamically added here -->
    </div>    ","null","","","","","","","","","","","",""
"","null","html-keyboard-response","277","264509","0.0-13.0-0.22","yNlCgLAo2X","6618650ff8e368f495675c9f","6617fad957f7c6a12ea16e26","6622cc8951ece09e1349732e","fixation cross","null","","","","","","","","","","","",""
"","991","html-keyboard-response","278","265501","0.0-13.0-1.22","yNlCgLAo2X","6618650ff8e368f495675c9f","6617fad957f7c6a12ea16e26","6622cc8951ece09e1349732e","image grid","q","","","","","Ontogenetic_Distractor_Threat_target","2500","ongrid","q","3","Ontogenetic","true","experimental"
"","null","html-keyboard-response","279","265665","0.0-13.0-2.22","yNlCgLAo2X","6618650ff8e368f495675c9f","6617fad957f7c6a12ea16e26","6622cc8951ece09e1349732e","
    <div id=""grid-container"">
        <!-- Grid items will be dynamically added here -->
    </div>    ","null","","","","","","","","","","","",""
"","null","html-keyboard-response","280","266381","0.0-13.0-0.23","yNlCgLAo2X","6618650ff8e368f495675c9f","6617fad957f7c6a12ea16e26","6622cc8951ece09e1349732e","fixation cross","null","","","","","","","","","","","",""
"","688","html-keyboard-response","281","267069","0.0-13.0-1.23","yNlCgLAo2X","6618650ff8e368f495675c9f","6617fad957f7c6a12ea16e26","6622cc8951ece09e1349732e","image grid","p","","","","","Ontogenetic_Distractor_Nonthreat_target","2500","ongrid","p","8","Ontogenetic","true","experimental"
"","null","html-keyboard-response","282","267231","0.0-13.0-2.23","yNlCgLAo2X","6618650ff8e368f495675c9f","6617fad957f7c6a12ea16e26","6622cc8951ece09e1349732e","
    <div id=""grid-container"">
        <!-- Grid items will be dynamically added here -->
    </div>    ","null","","","","","","","","","","","",""
"","null","html-keyboard-response","283","267946","0.0-13.0-0.24","yNlCgLAo2X","6618650ff8e368f495675c9f","6617fad957f7c6a12ea16e26","6622cc8951ece09e1349732e","fixation cross","null","","","","","","","","","","","",""
"","2047","html-keyboard-response","284","269993","0.0-13.0-1.24","yNlCgLAo2X","6618650ff8e368f495675c9f","6617fad957f7c6a12ea16e26","6622cc8951ece09e1349732e","image grid"," ","","","","","Ontogenetic_Distractor_notarget","2500","ongrid"," ","5","Ontogenetic","true","experimental"
"","null","html-keyboard-response","285","270156","0.0-13.0-2.24","yNlCgLAo2X","6618650ff8e368f495675c9f","6617fad957f7c6a12ea16e26","6622cc8951ece09e1349732e","
    <div id=""grid-container"">
        <!-- Grid items will be dynamically added here -->
    </div>    ","null","","","","","","","","","","","",""
"","null","html-keyboard-response","286","270860","0.0-13.0-0.25","yNlCgLAo2X","6618650ff8e368f495675c9f","6617fad957f7c6a12ea16e26","6622cc8951ece09e1349732e","fixation cross","null","","","","","","","","","","","",""
"","641","html-keyboard-response","287","271501","0.0-13.0-1.25","yNlCgLAo2X","6618650ff8e368f495675c9f","6617fad957f7c6a12ea16e26","6622cc8951ece09e1349732e","image grid","p","","","","","Ontogenetic_Distractor_Nonthreat_target","2500","ongrid","p","1","Ontogenetic","true","experimental"
"","null","html-keyboard-response","288","271653","0.0-13.0-2.25","yNlCgLAo2X","6618650ff8e368f495675c9f","6617fad957f7c6a12ea16e26","6622cc8951ece09e1349732e","
    <div id=""grid-container"">
        <!-- Grid items will be dynamically added here -->
    </div>    ","null","","","","","","","","","","","",""
"","null","html-keyboard-response","289","272368","0.0-13.0-0.26","yNlCgLAo2X","6618650ff8e368f495675c9f","6617fad957f7c6a12ea16e26","6622cc8951ece09e1349732e","fixation cross","null","","","","","","","","","","","",""
"","641","html-keyboard-response","290","273009","0.0-13.0-1.26","yNlCgLAo2X","6618650ff8e368f495675c9f","6617fad957f7c6a12ea16e26","6622cc8951ece09e1349732e","image grid","p","","","","","Ontogenetic_Distractor_Nonthreat_target","2500","ongrid","p","1","Ontogenetic","true","experimental"
"","null","html-keyboard-response","291","273176","0.0-13.0-2.26","yNlCgLAo2X","6618650ff8e368f495675c9f","6617fad957f7c6a12ea16e26","6622cc8951ece09e1349732e","
    <div id=""grid-container"">
        <!-- Grid items will be dynamically added here -->
    </div>    ","null","","","","","","","","","","","",""
"","null","html-keyboard-response","292","273879","0.0-13.0-0.27","yNlCgLAo2X","6618650ff8e368f495675c9f","6617fad957f7c6a12ea16e26","6622cc8951ece09e1349732e","fixation cross","null","","","","","","","","","","","",""
"","661","html-keyboard-response","293","274540","0.0-13.0-1.27","yNlCgLAo2X","6618650ff8e368f495675c9f","6617fad957f7c6a12ea16e26","6622cc8951ece09e1349732e","image grid","p","","","","","Ontogenetic_Distractor_Nonthreat_target","2500","ongrid","p","3","Ontogenetic","true","experimental"
"","null","html-keyboard-response","294","274704","0.0-13.0-2.27","yNlCgLAo2X","6618650ff8e368f495675c9f","6617fad957f7c6a12ea16e26","6622cc8951ece09e1349732e","
    <div id=""grid-container"">
        <!-- Grid items will be dynamically added here -->
    </div>    ","null","","","","","","","","","","","",""
"","null","html-keyboard-response","295","275421","0.0-13.0-0.28","yNlCgLAo2X","6618650ff8e368f495675c9f","6617fad957f7c6a12ea16e26","6622cc8951ece09e1349732e","fixation cross","null","","","","","","","","","","","",""
"","1619","html-keyboard-response","296","277040","0.0-13.0-1.28","yNlCgLAo2X","6618650ff8e368f495675c9f","6617fad957f7c6a12ea16e26","6622cc8951ece09e1349732e","image grid","q","","","","","Ontogenetic_Distractor_Threat_target","2500","ongrid","q","1","Ontogenetic","true","experimental"
"","null","html-keyboard-response","297","277199","0.0-13.0-2.28","yNlCgLAo2X","6618650ff8e368f495675c9f","6617fad957f7c6a12ea16e26","6622cc8951ece09e1349732e","
    <div id=""grid-container"">
        <!-- Grid items will be dynamically added here -->
    </div>    ","null","","","","","","","","","","","",""
"","null","html-keyboard-response","298","277926","0.0-13.0-0.29","yNlCgLAo2X","6618650ff8e368f495675c9f","6617fad957f7c6a12ea16e26","6622cc8951ece09e1349732e","fixation cross","null","","","","","","","","","","","",""
"","766","html-keyboard-response","299","278692","0.0-13.0-1.29","yNlCgLAo2X","6618650ff8e368f495675c9f","6617fad957f7c6a12ea16e26","6622cc8951ece09e1349732e","image grid","q","","","","","Ontogenetic_Distractor_Threat_target","2500","ongrid","q","2","Ontogenetic","true","experimental"
"","null","html-keyboard-response","300","278851","0.0-13.0-2.29","yNlCgLAo2X","6618650ff8e368f495675c9f","6617fad957f7c6a12ea16e26","6622cc8951ece09e1349732e","
    <div id=""grid-container"">
        <!-- Grid items will be dynamically added here -->
    </div>    ","null","","","","","","","","","","","",""
"","null","html-keyboard-response","301","279564","0.0-13.0-0.30","yNlCgLAo2X","6618650ff8e368f495675c9f","6617fad957f7c6a12ea16e26","6622cc8951ece09e1349732e","fixation cross","null","","","","","","","","","","","",""
"","1780","html-keyboard-response","302","281344","0.0-13.0-1.30","yNlCgLAo2X","6618650ff8e368f495675c9f","6617fad957f7c6a12ea16e26","6622cc8951ece09e1349732e","image grid","p","","","","","Ontogenetic_Distractor_Nonthreat_target","2500","ongrid","p","4","Ontogenetic","true","experimental"
"","null","html-keyboard-response","303","281504","0.0-13.0-2.30","yNlCgLAo2X","6618650ff8e368f495675c9f","6617fad957f7c6a12ea16e26","6622cc8951ece09e1349732e","
    <div id=""grid-container"">
        <!-- Grid items will be dynamically added here -->
    </div>    ","null","","","","","","","","","","","",""
"","null","html-keyboard-response","304","282221","0.0-13.0-0.31","yNlCgLAo2X","6618650ff8e368f495675c9f","6617fad957f7c6a12ea16e26","6622cc8951ece09e1349732e","fixation cross","null","","","","","","","","","","","",""
"","1543","html-keyboard-response","305","283764","0.0-13.0-1.31","yNlCgLAo2X","6618650ff8e368f495675c9f","6617fad957f7c6a12ea16e26","6622cc8951ece09e1349732e","image grid"," ","","","","","Ontogenetic_Distractor_notarget","2500","ongrid"," ","3","Ontogenetic","true","experimental"
"","null","html-keyboard-response","306","283919","0.0-13.0-2.31","yNlCgLAo2X","6618650ff8e368f495675c9f","6617fad957f7c6a12ea16e26","6622cc8951ece09e1349732e","
    <div id=""grid-container"">
        <!-- Grid items will be dynamically added here -->
    </div>    ","null","","","","","","","","","","","",""
"","null","html-keyboard-response","307","284635","0.0-13.0-0.32","yNlCgLAo2X","6618650ff8e368f495675c9f","6617fad957f7c6a12ea16e26","6622cc8951ece09e1349732e","fixation cross","null","","","","","","","","","","","",""
"","2145","html-keyboard-response","308","286780","0.0-13.0-1.32","yNlCgLAo2X","6618650ff8e368f495675c9f","6617fad957f7c6a12ea16e26","6622cc8951ece09e1349732e","image grid"," ","","","","","Ontogenetic_Distractor_notarget","2500","ongrid"," ","2","Ontogenetic","true","experimental"
"","null","html-keyboard-response","309","286944","0.0-13.0-2.32","yNlCgLAo2X","6618650ff8e368f495675c9f","6617fad957f7c6a12ea16e26","6622cc8951ece09e1349732e","
    <div id=""grid-container"">
        <!-- Grid items will be dynamically added here -->
    </div>    ","null","","","","","","","","","","","",""
"","null","html-keyboard-response","310","287676","0.0-13.0-0.33","yNlCgLAo2X","6618650ff8e368f495675c9f","6617fad957f7c6a12ea16e26","6622cc8951ece09e1349732e","fixation cross","null","","","","","","","","","","","",""
"","840","html-keyboard-response","311","288516","0.0-13.0-1.33","yNlCgLAo2X","6618650ff8e368f495675c9f","6617fad957f7c6a12ea16e26","6622cc8951ece09e1349732e","image grid","p","","","","","Ontogenetic_Distractor_Nonthreat_target","2500","ongrid","p","8","Ontogenetic","true","experimental"
"","null","html-keyboard-response","312","288669","0.0-13.0-2.33","yNlCgLAo2X","6618650ff8e368f495675c9f","6617fad957f7c6a12ea16e26","6622cc8951ece09e1349732e","
    <div id=""grid-container"">
        <!-- Grid items will be dynamically added here -->
    </div>    ","null","","","","","","","","","","","",""
"","null","html-keyboard-response","313","289386","0.0-13.0-0.34","yNlCgLAo2X","6618650ff8e368f495675c9f","6617fad957f7c6a12ea16e26","6622cc8951ece09e1349732e","fixation cross","null","","","","","","","","","","","",""
"","950","html-keyboard-response","314","290336","0.0-13.0-1.34","yNlCgLAo2X","6618650ff8e368f495675c9f","6617fad957f7c6a12ea16e26","6622cc8951ece09e1349732e","image grid","q","","","","","Ontogenetic_Distractor_Threat_target","2500","ongrid","q","7","Ontogenetic","true","experimental"
"","null","html-keyboard-response","315","290492","0.0-13.0-2.34","yNlCgLAo2X","6618650ff8e368f495675c9f","6617fad957f7c6a12ea16e26","6622cc8951ece09e1349732e","
    <div id=""grid-container"">
        <!-- Grid items will be dynamically added here -->
    </div>    ","null","","","","","","","","","","","",""
"","null","html-keyboard-response","316","291210","0.0-13.0-0.35","yNlCgLAo2X","6618650ff8e368f495675c9f","6617fad957f7c6a12ea16e26","6622cc8951ece09e1349732e","fixation cross","null","","","","","","","","","","","",""
"","1262","html-keyboard-response","317","292472","0.0-13.0-1.35","yNlCgLAo2X","6618650ff8e368f495675c9f","6617fad957f7c6a12ea16e26","6622cc8951ece09e1349732e","image grid","p","","","","","Ontogenetic_Distractor_Nonthreat_target","2500","ongrid","p","7","Ontogenetic","true","experimental"
"","null","html-keyboard-response","318","292628","0.0-13.0-2.35","yNlCgLAo2X","6618650ff8e368f495675c9f","6617fad957f7c6a12ea16e26","6622cc8951ece09e1349732e","
    <div id=""grid-container"">
        <!-- Grid items will be dynamically added here -->
    </div>    ","null","","","","","","","","","","","",""
"","null","html-keyboard-response","319","293341","0.0-13.0-0.36","yNlCgLAo2X","6618650ff8e368f495675c9f","6617fad957f7c6a12ea16e26","6622cc8951ece09e1349732e","fixation cross","null","","","","","","","","","","","",""
"","727","html-keyboard-response","320","294068","0.0-13.0-1.36","yNlCgLAo2X","6618650ff8e368f495675c9f","6617fad957f7c6a12ea16e26","6622cc8951ece09e1349732e","image grid","q","","","","","Ontogenetic_Distractor_Threat_target","2500","ongrid","q","2","Ontogenetic","true","experimental"
"","null","html-keyboard-response","321","294229","0.0-13.0-2.36","yNlCgLAo2X","6618650ff8e368f495675c9f","6617fad957f7c6a12ea16e26","6622cc8951ece09e1349732e","
    <div id=""grid-container"">
        <!-- Grid items will be dynamically added here -->
    </div>    ","null","","","","","","","","","","","",""
"","null","html-keyboard-response","322","294946","0.0-13.0-0.37","yNlCgLAo2X","6618650ff8e368f495675c9f","6617fad957f7c6a12ea16e26","6622cc8951ece09e1349732e","fixation cross","null","","","","","","","","","","","",""
"","897","html-keyboard-response","323","295843","0.0-13.0-1.37","yNlCgLAo2X","6618650ff8e368f495675c9f","6617fad957f7c6a12ea16e26","6622cc8951ece09e1349732e","image grid","q","","","","","Ontogenetic_Distractor_Threat_target","2500","ongrid","q","4","Ontogenetic","true","experimental"
"","null","html-keyboard-response","324","296007","0.0-13.0-2.37","yNlCgLAo2X","6618650ff8e368f495675c9f","6617fad957f7c6a12ea16e26","6622cc8951ece09e1349732e","
    <div id=""grid-container"">
        <!-- Grid items will be dynamically added here -->
    </div>    ","null","","","","","","","","","","","",""
"","null","html-keyboard-response","325","296724","0.0-13.0-0.38","yNlCgLAo2X","6618650ff8e368f495675c9f","6617fad957f7c6a12ea16e26","6622cc8951ece09e1349732e","fixation cross","null","","","","","","","","","","","",""
"","891","html-keyboard-response","326","297615","0.0-13.0-1.38","yNlCgLAo2X","6618650ff8e368f495675c9f","6617fad957f7c6a12ea16e26","6622cc8951ece09e1349732e","image grid","q","","","","","Ontogenetic_Distractor_Threat_target","2500","ongrid","q","1","Ontogenetic","true","experimental"
"","null","html-keyboard-response","327","297780","0.0-13.0-2.38","yNlCgLAo2X","6618650ff8e368f495675c9f","6617fad957f7c6a12ea16e26","6622cc8951ece09e1349732e","
    <div id=""grid-container"">
        <!-- Grid items will be dynamically added here -->
    </div>    ","null","","","","","","","","","","","",""
"","null","html-keyboard-response","328","298491","0.0-13.0-0.39","yNlCgLAo2X","6618650ff8e368f495675c9f","6617fad957f7c6a12ea16e26","6622cc8951ece09e1349732e","fixation cross","null","","","","","","","","","","","",""
"","1112","html-keyboard-response","329","299603","0.0-13.0-1.39","yNlCgLAo2X","6618650ff8e368f495675c9f","6617fad957f7c6a12ea16e26","6622cc8951ece09e1349732e","image grid","p","","","","","Ontogenetic_Distractor_Nonthreat_target","2500","ongrid","p","3","Ontogenetic","true","experimental"
"","null","html-keyboard-response","330","299769","0.0-13.0-2.39","yNlCgLAo2X","6618650ff8e368f495675c9f","6617fad957f7c6a12ea16e26","6622cc8951ece09e1349732e","
    <div id=""grid-container"">
        <!-- Grid items will be dynamically added here -->
    </div>    ","null","","","","","","","","","","","",""
"","6977","html-keyboard-response","331","306951","0.0-14.0","yNlCgLAo2X","6618650ff8e368f495675c9f","6617fad957f7c6a12ea16e26","6622cc8951ece09e1349732e","break screen"," ","","","","","","","","","","","",""
"","null","html-keyboard-response","332","309478","0.0-15.0-0.0","yNlCgLAo2X","6618650ff8e368f495675c9f","6617fad957f7c6a12ea16e26","6622cc8951ece09e1349732e","fixation cross","null","","","","","","","","","","","",""
"","null","html-keyboard-response","333","310294","0.0-15.0-1.0","yNlCgLAo2X","6618650ff8e368f495675c9f","6617fad957f7c6a12ea16e26","6622cc8951ece09e1349732e","
        <div id=""grid-container"">
        <!-- Grid items will be dynamically added here -->
    </div>    ","null","","","","","","","","","","","",""
"","1505","html-keyboard-response","334","310999","0.0-15.0-2.0","yNlCgLAo2X","6618650ff8e368f495675c9f","6617fad957f7c6a12ea16e26","6622cc8951ece09e1349732e","mask grid"," ","","","","","Ontogenetic_Distractor_notarget","800","onmask"," ","6","Ontogenetic","true","experimental"
"","null","html-keyboard-response","335","311717","0.0-15.0-0.1","yNlCgLAo2X","6618650ff8e368f495675c9f","6617fad957f7c6a12ea16e26","6622cc8951ece09e1349732e","fixation cross","null","","","","","","","","","","","",""
"","654","html-keyboard-response","336","312371","0.0-15.0-1.1","yNlCgLAo2X","6618650ff8e368f495675c9f","6617fad957f7c6a12ea16e26","6622cc8951ece09e1349732e","image grid","q","","","","","Ontogenetic_Distractor_Threat_target","800","ongrid","q","3","Ontogenetic","true","experimental"
"","null","html-keyboard-response","337","312529","0.0-15.0-2.1","yNlCgLAo2X","6618650ff8e368f495675c9f","6617fad957f7c6a12ea16e26","6622cc8951ece09e1349732e","
    <div id=""grid-container"">
        <!-- Grid items will be dynamically added here -->
    </div>    ","null","","","","","","","","","","","",""
"","null","html-keyboard-response","338","313241","0.0-15.0-0.2","yNlCgLAo2X","6618650ff8e368f495675c9f","6617fad957f7c6a12ea16e26","6622cc8951ece09e1349732e","fixation cross","null","","","","","","","","","","","",""
"","null","html-keyboard-response","339","314053","0.0-15.0-1.2","yNlCgLAo2X","6618650ff8e368f495675c9f","6617fad957f7c6a12ea16e26","6622cc8951ece09e1349732e","
        <div id=""grid-container"">
        <!-- Grid items will be dynamically added here -->
    </div>    ","null","","","","","","","","","","","",""
"","970","html-keyboard-response","340","314223","0.0-15.0-2.2","yNlCgLAo2X","6618650ff8e368f495675c9f","6617fad957f7c6a12ea16e26","6622cc8951ece09e1349732e","mask grid","p","","","","","Ontogenetic_Distractor_Nonthreat_target","800","onmask","p","3","Ontogenetic","true","experimental"
"","null","html-keyboard-response","341","314936","0.0-15.0-0.3","yNlCgLAo2X","6618650ff8e368f495675c9f","6617fad957f7c6a12ea16e26","6622cc8951ece09e1349732e","fixation cross","null","","","","","","","","","","","",""
"","null","html-keyboard-response","342","315743","0.0-15.0-1.3","yNlCgLAo2X","6618650ff8e368f495675c9f","6617fad957f7c6a12ea16e26","6622cc8951ece09e1349732e","
        <div id=""grid-container"">
        <!-- Grid items will be dynamically added here -->
    </div>    ","null","","","","","","","","","","","",""
"","819","html-keyboard-response","343","315763","0.0-15.0-2.3","yNlCgLAo2X","6618650ff8e368f495675c9f","6617fad957f7c6a12ea16e26","6622cc8951ece09e1349732e","mask grid","p","","","","","Ontogenetic_Distractor_Nonthreat_target","800","onmask","p","5","Ontogenetic","true","experimental"
"","null","html-keyboard-response","344","316480","0.0-15.0-0.4","yNlCgLAo2X","6618650ff8e368f495675c9f","6617fad957f7c6a12ea16e26","6622cc8951ece09e1349732e","fixation cross","null","","","","","","","","","","","",""
"","566","html-keyboard-response","345","317047","0.0-15.0-1.4","yNlCgLAo2X","6618650ff8e368f495675c9f","6617fad957f7c6a12ea16e26","6622cc8951ece09e1349732e","image grid","q","","","","","Ontogenetic_Distractor_Threat_target","800","ongrid","q","2","Ontogenetic","true","experimental"
"","null","html-keyboard-response","346","317213","0.0-15.0-2.4","yNlCgLAo2X","6618650ff8e368f495675c9f","6617fad957f7c6a12ea16e26","6622cc8951ece09e1349732e","
    <div id=""grid-container"">
        <!-- Grid items will be dynamically added here -->
    </div>    ","null","","","","","","","","","","","",""
"","null","html-keyboard-response","347","317930","0.0-15.0-0.5","yNlCgLAo2X","6618650ff8e368f495675c9f","6617fad957f7c6a12ea16e26","6622cc8951ece09e1349732e","fixation cross","null","","","","","","","","","","","",""
"","null","html-keyboard-response","348","318740","0.0-15.0-1.5","yNlCgLAo2X","6618650ff8e368f495675c9f","6617fad957f7c6a12ea16e26","6622cc8951ece09e1349732e","
        <div id=""grid-container"">
        <!-- Grid items will be dynamically added here -->
    </div>    ","null","","","","","","","","","","","",""
"","1109","html-keyboard-response","349","319050","0.0-15.0-2.5","yNlCgLAo2X","6618650ff8e368f495675c9f","6617fad957f7c6a12ea16e26","6622cc8951ece09e1349732e","mask grid"," ","","","","","Ontogenetic_Distractor_notarget","800","onmask"," ","5","Ontogenetic","true","experimental"
"","null","html-keyboard-response","350","319769","0.0-15.0-0.6","yNlCgLAo2X","6618650ff8e368f495675c9f","6617fad957f7c6a12ea16e26","6622cc8951ece09e1349732e","fixation cross","null","","","","","","","","","","","",""
"","684","html-keyboard-response","351","320454","0.0-15.0-1.6","yNlCgLAo2X","6618650ff8e368f495675c9f","6617fad957f7c6a12ea16e26","6622cc8951ece09e1349732e","image grid","p","","","","","Ontogenetic_Distractor_Nonthreat_target","800","ongrid","p","9","Ontogenetic","true","experimental"
"","null","html-keyboard-response","352","320613","0.0-15.0-2.6","yNlCgLAo2X","6618650ff8e368f495675c9f","6617fad957f7c6a12ea16e26","6622cc8951ece09e1349732e","
    <div id=""grid-container"">
        <!-- Grid items will be dynamically added here -->
    </div>    ","null","","","","","","","","","","","",""
"","null","html-keyboard-response","353","321342","0.0-15.0-0.7","yNlCgLAo2X","6618650ff8e368f495675c9f","6617fad957f7c6a12ea16e26","6622cc8951ece09e1349732e","fixation cross","null","","","","","","","","","","","",""
"","788","html-keyboard-response","354","322130","0.0-15.0-1.7","yNlCgLAo2X","6618650ff8e368f495675c9f","6617fad957f7c6a12ea16e26","6622cc8951ece09e1349732e","image grid","p","","","","","Ontogenetic_Distractor_Nonthreat_target","800","ongrid","p","1","Ontogenetic","true","experimental"
"","null","html-keyboard-response","355","322296","0.0-15.0-2.7","yNlCgLAo2X","6618650ff8e368f495675c9f","6617fad957f7c6a12ea16e26","6622cc8951ece09e1349732e","
    <div id=""grid-container"">
        <!-- Grid items will be dynamically added here -->
    </div>    ","null","","","","","","","","","","","",""
"","null","html-keyboard-response","356","323007","0.0-15.0-0.8","yNlCgLAo2X","6618650ff8e368f495675c9f","6617fad957f7c6a12ea16e26","6622cc8951ece09e1349732e","fixation cross","null","","","","","","","","","","","",""
"","null","html-keyboard-response","357","323815","0.0-15.0-1.8","yNlCgLAo2X","6618650ff8e368f495675c9f","6617fad957f7c6a12ea16e26","6622cc8951ece09e1349732e","
        <div id=""grid-container"">
        <!-- Grid items will be dynamically added here -->
    </div>    ","null","","","","","","","","","","","",""
"","1035","html-keyboard-response","358","324050","0.0-15.0-2.8","yNlCgLAo2X","6618650ff8e368f495675c9f","6617fad957f7c6a12ea16e26","6622cc8951ece09e1349732e","mask grid","q","","","","","Ontogenetic_Distractor_Threat_target","800","onmask","q","5","Ontogenetic","true","experimental"
"","null","html-keyboard-response","359","324762","0.0-15.0-0.9","yNlCgLAo2X","6618650ff8e368f495675c9f","6617fad957f7c6a12ea16e26","6622cc8951ece09e1349732e","fixation cross","null","","","","","","","","","","","",""
"","648","html-keyboard-response","360","325410","0.0-15.0-1.9","yNlCgLAo2X","6618650ff8e368f495675c9f","6617fad957f7c6a12ea16e26","6622cc8951ece09e1349732e","image grid","q","","","","","Ontogenetic_Distractor_Threat_target","800","ongrid","q","5","Ontogenetic","true","experimental"
"","null","html-keyboard-response","361","325571","0.0-15.0-2.9","yNlCgLAo2X","6618650ff8e368f495675c9f","6617fad957f7c6a12ea16e26","6622cc8951ece09e1349732e","
    <div id=""grid-container"">
        <!-- Grid items will be dynamically added here -->
    </div>    ","null","","","","","","","","","","","",""
"","null","html-keyboard-response","362","326289","0.0-15.0-0.10","yNlCgLAo2X","6618650ff8e368f495675c9f","6617fad957f7c6a12ea16e26","6622cc8951ece09e1349732e","fixation cross","null","","","","","","","","","","","",""
"","669","html-keyboard-response","363","326958","0.0-15.0-1.10","yNlCgLAo2X","6618650ff8e368f495675c9f","6617fad957f7c6a12ea16e26","6622cc8951ece09e1349732e","image grid","p","","","","","Ontogenetic_Distractor_Nonthreat_target","800","ongrid","p","3","Ontogenetic","true","experimental"
"","null","html-keyboard-response","364","327118","0.0-15.0-2.10","yNlCgLAo2X","6618650ff8e368f495675c9f","6617fad957f7c6a12ea16e26","6622cc8951ece09e1349732e","
    <div id=""grid-container"">
        <!-- Grid items will be dynamically added here -->
    </div>    ","null","","","","","","","","","","","",""
"","null","html-keyboard-response","365","327830","0.0-15.0-0.11","yNlCgLAo2X","6618650ff8e368f495675c9f","6617fad957f7c6a12ea16e26","6622cc8951ece09e1349732e","fixation cross","null","","","","","","","","","","","",""
"","720","html-keyboard-response","366","328550","0.0-15.0-1.11","yNlCgLAo2X","6618650ff8e368f495675c9f","6617fad957f7c6a12ea16e26","6622cc8951ece09e1349732e","image grid","q","","","","","Ontogenetic_Distractor_Threat_target","800","ongrid","q","3","Ontogenetic","true","experimental"
"","null","html-keyboard-response","367","328703","0.0-15.0-2.11","yNlCgLAo2X","6618650ff8e368f495675c9f","6617fad957f7c6a12ea16e26","6622cc8951ece09e1349732e","
    <div id=""grid-container"">
        <!-- Grid items will be dynamically added here -->
    </div>    ","null","","","","","","","","","","","",""
"","null","html-keyboard-response","368","329417","0.0-15.0-0.12","yNlCgLAo2X","6618650ff8e368f495675c9f","6617fad957f7c6a12ea16e26","6622cc8951ece09e1349732e","fixation cross","null","","","","","","","","","","","",""
"","493","html-keyboard-response","369","329910","0.0-15.0-1.12","yNlCgLAo2X","6618650ff8e368f495675c9f","6617fad957f7c6a12ea16e26","6622cc8951ece09e1349732e","image grid","q","","","","","Ontogenetic_Distractor_Threat_target","800","ongrid","q","2","Ontogenetic","true","experimental"
"","null","html-keyboard-response","370","330072","0.0-15.0-2.12","yNlCgLAo2X","6618650ff8e368f495675c9f","6617fad957f7c6a12ea16e26","6622cc8951ece09e1349732e","
    <div id=""grid-container"">
        <!-- Grid items will be dynamically added here -->
