"success","rt","trial_type","trial_index","time_elapsed","internal_node_id","unique_identifier","subject_id","study_id","session_id","stimulus","response","timeout","failed_images","failed_audio","failed_video","task","time_manipulation","respondedwhen","correctresponse","targetimagelocation","blocktype","correct","roundtype"
"true","14247","fullscreen","0","15254","0.0-0.0","zKsMJ0W3sI","5decaac46e09cf3792805023","6617fad957f7c6a12ea16e26","6622d0015875c239fcd28bde","","","","","","","","","","","","","",""
"","29613","html-keyboard-response","1","44868","0.0-1.0","zKsMJ0W3sI","5decaac46e09cf3792805023","6617fad957f7c6a12ea16e26","6622d0015875c239fcd28bde","instruction screen 0"," ","","","","","","","","","","","",""
"true","","preload","2","62680","0.0-2.0","zKsMJ0W3sI","5decaac46e09cf3792805023","6617fad957f7c6a12ea16e26","6622d0015875c239fcd28bde","","","false","[]","[]","[]","","","","","","","",""
"","14767","html-keyboard-response","3","77448","0.0-3.0","zKsMJ0W3sI","5decaac46e09cf3792805023","6617fad957f7c6a12ea16e26","6622d0015875c239fcd28bde","instruction screen 1"," ","","","","","","","","","","","",""
"","5793","html-keyboard-response","4","83243","0.0-4.0","zKsMJ0W3sI","5decaac46e09cf3792805023","6617fad957f7c6a12ea16e26","6622d0015875c239fcd28bde","instruction screen 2","q","","","","","","","","","","","",""
"","6734","html-keyboard-response","5","89995","0.0-5.0","zKsMJ0W3sI","5decaac46e09cf3792805023","6617fad957f7c6a12ea16e26","6622d0015875c239fcd28bde","instruction screen 3","p","","","","","","","","","","","",""
"","4181","html-keyboard-response","6","94195","0.0-6.0","zKsMJ0W3sI","5decaac46e09cf3792805023","6617fad957f7c6a12ea16e26","6622d0015875c239fcd28bde","instruction screen 4"," ","","","","","","","","","","","",""
"","13215","html-keyboard-response","7","107428","0.0-7.0","zKsMJ0W3sI","5decaac46e09cf3792805023","6617fad957f7c6a12ea16e26","6622d0015875c239fcd28bde","instruction screen 5"," ","","","","","","","","","","","",""
"","null","html-keyboard-response","8","107959","0.0-8.0","zKsMJ0W3sI","5decaac46e09cf3792805023","6617fad957f7c6a12ea16e26","6622d0015875c239fcd28bde","fixation cross","null","","","","","","","","","","","",""
"","null","html-keyboard-response","9","108469","0.0-9.0-0.0","zKsMJ0W3sI","5decaac46e09cf3792805023","6617fad957f7c6a12ea16e26","6622d0015875c239fcd28bde","fixation cross","null","","","","","","","","","","","",""
"","629","html-keyboard-response","10","109099","0.0-9.0-1.0","zKsMJ0W3sI","5decaac46e09cf3792805023","6617fad957f7c6a12ea16e26","6622d0015875c239fcd28bde","image grid","p","","","","","Phylogenetic_Distractor_notarget","3000","ongrid"," ","6","Phylogenetic","false","practice"
"","null","html-keyboard-response","11","109263","0.0-9.0-2.0","zKsMJ0W3sI","5decaac46e09cf3792805023","6617fad957f7c6a12ea16e26","6622d0015875c239fcd28bde","
    <div id=""grid-container"">
        <!-- Grid items will be dynamically added here -->
    </div>    ","null","","","","","","","","","","","",""
"","null","html-keyboard-response","12","110474","0.0-9.0-3.0","zKsMJ0W3sI","5decaac46e09cf3792805023","6617fad957f7c6a12ea16e26","6622d0015875c239fcd28bde","feedback screen","null","","","","","","","","","","","",""
"","null","html-keyboard-response","13","110989","0.0-9.0-0.1","zKsMJ0W3sI","5decaac46e09cf3792805023","6617fad957f7c6a12ea16e26","6622d0015875c239fcd28bde","fixation cross","null","","","","","","","","","","","",""
"","1254","html-keyboard-response","14","112243","0.0-9.0-1.1","zKsMJ0W3sI","5decaac46e09cf3792805023","6617fad957f7c6a12ea16e26","6622d0015875c239fcd28bde","image grid","p","","","","","Phylogenetic_Distractor_Nonthreat_target","2900","ongrid","p","4","Phylogenetic","true","practice"
"","null","html-keyboard-response","15","112403","0.0-9.0-2.1","zKsMJ0W3sI","5decaac46e09cf3792805023","6617fad957f7c6a12ea16e26","6622d0015875c239fcd28bde","
    <div id=""grid-container"">
        <!-- Grid items will be dynamically added here -->
    </div>    ","null","","","","","","","","","","","",""
"","null","html-keyboard-response","16","113615","0.0-9.0-3.1","zKsMJ0W3sI","5decaac46e09cf3792805023","6617fad957f7c6a12ea16e26","6622d0015875c239fcd28bde","feedback screen","null","","","","","","","","","","","",""
"","null","html-keyboard-response","17","114131","0.0-9.0-0.2","zKsMJ0W3sI","5decaac46e09cf3792805023","6617fad957f7c6a12ea16e26","6622d0015875c239fcd28bde","fixation cross","null","","","","","","","","","","","",""
"","1480","html-keyboard-response","18","115611","0.0-9.0-1.2","zKsMJ0W3sI","5decaac46e09cf3792805023","6617fad957f7c6a12ea16e26","6622d0015875c239fcd28bde","image grid"," ","","","","","Phylogenetic_Distractor_notarget","2800","ongrid"," ","8","Phylogenetic","true","practice"
"","null","html-keyboard-response","19","115767","0.0-9.0-2.2","zKsMJ0W3sI","5decaac46e09cf3792805023","6617fad957f7c6a12ea16e26","6622d0015875c239fcd28bde","
    <div id=""grid-container"">
        <!-- Grid items will be dynamically added here -->
    </div>    ","null","","","","","","","","","","","",""
"","null","html-keyboard-response","20","116982","0.0-9.0-3.2","zKsMJ0W3sI","5decaac46e09cf3792805023","6617fad957f7c6a12ea16e26","6622d0015875c239fcd28bde","feedback screen","null","","","","","","","","","","","",""
"","null","html-keyboard-response","21","117494","0.0-9.0-0.3","zKsMJ0W3sI","5decaac46e09cf3792805023","6617fad957f7c6a12ea16e26","6622d0015875c239fcd28bde","fixation cross","null","","","","","","","","","","","",""
"","1461","html-keyboard-response","22","118956","0.0-9.0-1.3","zKsMJ0W3sI","5decaac46e09cf3792805023","6617fad957f7c6a12ea16e26","6622d0015875c239fcd28bde","image grid","p","","","","","Ontogenetic_Distractor_Nonthreat_target","2700","ongrid","p","4","Phylogenetic","true","practice"
"","null","html-keyboard-response","23","119115","0.0-9.0-2.3","zKsMJ0W3sI","5decaac46e09cf3792805023","6617fad957f7c6a12ea16e26","6622d0015875c239fcd28bde","
    <div id=""grid-container"">
        <!-- Grid items will be dynamically added here -->
    </div>    ","null","","","","","","","","","","","",""
"","null","html-keyboard-response","24","120324","0.0-9.0-3.3","zKsMJ0W3sI","5decaac46e09cf3792805023","6617fad957f7c6a12ea16e26","6622d0015875c239fcd28bde","feedback screen","null","","","","","","","","","","","",""
"","null","html-keyboard-response","25","120840","0.0-9.0-0.4","zKsMJ0W3sI","5decaac46e09cf3792805023","6617fad957f7c6a12ea16e26","6622d0015875c239fcd28bde","fixation cross","null","","","","","","","","","","","",""
"","1340","html-keyboard-response","26","122180","0.0-9.0-1.4","zKsMJ0W3sI","5decaac46e09cf3792805023","6617fad957f7c6a12ea16e26","6622d0015875c239fcd28bde","image grid","q","","","","","Ontogenetic_Distractor_Threat_target","2600","ongrid","q","5","Phylogenetic","true","practice"
"","null","html-keyboard-response","27","122334","0.0-9.0-2.4","zKsMJ0W3sI","5decaac46e09cf3792805023","6617fad957f7c6a12ea16e26","6622d0015875c239fcd28bde","
    <div id=""grid-container"">
        <!-- Grid items will be dynamically added here -->
    </div>    ","null","","","","","","","","","","","",""
"","null","html-keyboard-response","28","123560","0.0-9.0-3.4","zKsMJ0W3sI","5decaac46e09cf3792805023","6617fad957f7c6a12ea16e26","6622d0015875c239fcd28bde","feedback screen","null","","","","","","","","","","","",""
"","null","html-keyboard-response","29","124071","0.0-9.0-0.5","zKsMJ0W3sI","5decaac46e09cf3792805023","6617fad957f7c6a12ea16e26","6622d0015875c239fcd28bde","fixation cross","null","","","","","","","","","","","",""
"","1059","html-keyboard-response","30","125131","0.0-9.0-1.5","zKsMJ0W3sI","5decaac46e09cf3792805023","6617fad957f7c6a12ea16e26","6622d0015875c239fcd28bde","image grid"," ","","","","","Ontogenetic_Distractor_Threat_target","2500","ongrid","q","2","Phylogenetic","false","practice"
"","null","html-keyboard-response","31","125283","0.0-9.0-2.5","zKsMJ0W3sI","5decaac46e09cf3792805023","6617fad957f7c6a12ea16e26","6622d0015875c239fcd28bde","
    <div id=""grid-container"">
        <!-- Grid items will be dynamically added here -->
    </div>    ","null","","","","","","","","","","","",""
"","null","html-keyboard-response","32","126495","0.0-9.0-3.5","zKsMJ0W3sI","5decaac46e09cf3792805023","6617fad957f7c6a12ea16e26","6622d0015875c239fcd28bde","feedback screen","null","","","","","","","","","","","",""
"","null","html-keyboard-response","33","127009","0.0-9.0-0.6","zKsMJ0W3sI","5decaac46e09cf3792805023","6617fad957f7c6a12ea16e26","6622d0015875c239fcd28bde","fixation cross","null","","","","","","","","","","","",""
"","1514","html-keyboard-response","34","128523","0.0-9.0-1.6","zKsMJ0W3sI","5decaac46e09cf3792805023","6617fad957f7c6a12ea16e26","6622d0015875c239fcd28bde","image grid"," ","","","","","Phylogenetic_Distractor_Nonthreat_target","2400","ongrid","p","4","Phylogenetic","false","practice"
"","null","html-keyboard-response","35","128674","0.0-9.0-2.6","zKsMJ0W3sI","5decaac46e09cf3792805023","6617fad957f7c6a12ea16e26","6622d0015875c239fcd28bde","
    <div id=""grid-container"">
        <!-- Grid items will be dynamically added here -->
    </div>    ","null","","","","","","","","","","","",""
"","null","html-keyboard-response","36","129887","0.0-9.0-3.6","zKsMJ0W3sI","5decaac46e09cf3792805023","6617fad957f7c6a12ea16e26","6622d0015875c239fcd28bde","feedback screen","null","","","","","","","","","","","",""
"","null","html-keyboard-response","37","130397","0.0-9.0-0.7","zKsMJ0W3sI","5decaac46e09cf3792805023","6617fad957f7c6a12ea16e26","6622d0015875c239fcd28bde","fixation cross","null","","","","","","","","","","","",""
"","1014","html-keyboard-response","38","131412","0.0-9.0-1.7","zKsMJ0W3sI","5decaac46e09cf3792805023","6617fad957f7c6a12ea16e26","6622d0015875c239fcd28bde","image grid","p","","","","","Phylogenetic_Distractor_Nonthreat_target","2300","ongrid","p","2","Phylogenetic","true","practice"
"","null","html-keyboard-response","39","131564","0.0-9.0-2.7","zKsMJ0W3sI","5decaac46e09cf3792805023","6617fad957f7c6a12ea16e26","6622d0015875c239fcd28bde","
    <div id=""grid-container"">
        <!-- Grid items will be dynamically added here -->
    </div>    ","null","","","","","","","","","","","",""
"","null","html-keyboard-response","40","132774","0.0-9.0-3.7","zKsMJ0W3sI","5decaac46e09cf3792805023","6617fad957f7c6a12ea16e26","6622d0015875c239fcd28bde","feedback screen","null","","","","","","","","","","","",""
"","null","html-keyboard-response","41","133289","0.0-9.0-0.8","zKsMJ0W3sI","5decaac46e09cf3792805023","6617fad957f7c6a12ea16e26","6622d0015875c239fcd28bde","fixation cross","null","","","","","","","","","","","",""
"","1321","html-keyboard-response","42","134611","0.0-9.0-1.8","zKsMJ0W3sI","5decaac46e09cf3792805023","6617fad957f7c6a12ea16e26","6622d0015875c239fcd28bde","image grid"," ","","","","","Ontogenetic_Distractor_notarget","2200","ongrid"," ","9","Phylogenetic","true","practice"
"","null","html-keyboard-response","43","134772","0.0-9.0-2.8","zKsMJ0W3sI","5decaac46e09cf3792805023","6617fad957f7c6a12ea16e26","6622d0015875c239fcd28bde","
    <div id=""grid-container"">
        <!-- Grid items will be dynamically added here -->
    </div>    ","null","","","","","","","","","","","",""
"","null","html-keyboard-response","44","135989","0.0-9.0-3.8","zKsMJ0W3sI","5decaac46e09cf3792805023","6617fad957f7c6a12ea16e26","6622d0015875c239fcd28bde","feedback screen","null","","","","","","","","","","","",""
"","null","html-keyboard-response","45","136504","0.0-9.0-0.9","zKsMJ0W3sI","5decaac46e09cf3792805023","6617fad957f7c6a12ea16e26","6622d0015875c239fcd28bde","fixation cross","null","","","","","","","","","","","",""
"","859","html-keyboard-response","46","137364","0.0-9.0-1.9","zKsMJ0W3sI","5decaac46e09cf3792805023","6617fad957f7c6a12ea16e26","6622d0015875c239fcd28bde","image grid","q","","","","","Ontogenetic_Distractor_Threat_target","2100","ongrid","q","6","Phylogenetic","true","practice"
"","null","html-keyboard-response","47","137516","0.0-9.0-2.9","zKsMJ0W3sI","5decaac46e09cf3792805023","6617fad957f7c6a12ea16e26","6622d0015875c239fcd28bde","
    <div id=""grid-container"">
        <!-- Grid items will be dynamically added here -->
    </div>    ","null","","","","","","","","","","","",""
"","null","html-keyboard-response","48","138731","0.0-9.0-3.9","zKsMJ0W3sI","5decaac46e09cf3792805023","6617fad957f7c6a12ea16e26","6622d0015875c239fcd28bde","feedback screen","null","","","","","","","","","","","",""
"","null","html-keyboard-response","49","139247","0.0-9.0-0.10","zKsMJ0W3sI","5decaac46e09cf3792805023","6617fad957f7c6a12ea16e26","6622d0015875c239fcd28bde","fixation cross","null","","","","","","","","","","","",""
"","1132","html-keyboard-response","50","140380","0.0-9.0-1.10","zKsMJ0W3sI","5decaac46e09cf3792805023","6617fad957f7c6a12ea16e26","6622d0015875c239fcd28bde","image grid","p","","","","","Ontogenetic_Distractor_Nonthreat_target","2000","ongrid","p","1","Phylogenetic","true","practice"
"","null","html-keyboard-response","51","140540","0.0-9.0-2.10","zKsMJ0W3sI","5decaac46e09cf3792805023","6617fad957f7c6a12ea16e26","6622d0015875c239fcd28bde","
    <div id=""grid-container"">
        <!-- Grid items will be dynamically added here -->
    </div>    ","null","","","","","","","","","","","",""
"","null","html-keyboard-response","52","141750","0.0-9.0-3.10","zKsMJ0W3sI","5decaac46e09cf3792805023","6617fad957f7c6a12ea16e26","6622d0015875c239fcd28bde","feedback screen","null","","","","","","","","","","","",""
"","null","html-keyboard-response","53","142262","0.0-9.0-0.11","zKsMJ0W3sI","5decaac46e09cf3792805023","6617fad957f7c6a12ea16e26","6622d0015875c239fcd28bde","fixation cross","null","","","","","","","","","","","",""
"","909","html-keyboard-response","54","143172","0.0-9.0-1.11","zKsMJ0W3sI","5decaac46e09cf3792805023","6617fad957f7c6a12ea16e26","6622d0015875c239fcd28bde","image grid"," ","","","","","Ontogenetic_Distractor_notarget","1900","ongrid"," ","6","Phylogenetic","true","practice"
"","null","html-keyboard-response","55","143336","0.0-9.0-2.11","zKsMJ0W3sI","5decaac46e09cf3792805023","6617fad957f7c6a12ea16e26","6622d0015875c239fcd28bde","
    <div id=""grid-container"">
        <!-- Grid items will be dynamically added here -->
    </div>    ","null","","","","","","","","","","","",""
"","null","html-keyboard-response","56","144548","0.0-9.0-3.11","zKsMJ0W3sI","5decaac46e09cf3792805023","6617fad957f7c6a12ea16e26","6622d0015875c239fcd28bde","feedback screen","null","","","","","","","","","","","",""
"","null","html-keyboard-response","57","145061","0.0-9.0-0.12","zKsMJ0W3sI","5decaac46e09cf3792805023","6617fad957f7c6a12ea16e26","6622d0015875c239fcd28bde","fixation cross","null","","","","","","","","","","","",""
"","1278","html-keyboard-response","58","146339","0.0-9.0-1.12","zKsMJ0W3sI","5decaac46e09cf3792805023","6617fad957f7c6a12ea16e26","6622d0015875c239fcd28bde","image grid","q","","","","","Phylogenetic_Distractor_Threat_target","1800","ongrid","q","1","Phylogenetic","true","practice"
"","null","html-keyboard-response","59","146497","0.0-9.0-2.12","zKsMJ0W3sI","5decaac46e09cf3792805023","6617fad957f7c6a12ea16e26","6622d0015875c239fcd28bde","
    <div id=""grid-container"">
        <!-- Grid items will be dynamically added here -->
    </div>    ","null","","","","","","","","","","","",""
"","null","html-keyboard-response","60","147714","0.0-9.0-3.12","zKsMJ0W3sI","5decaac46e09cf3792805023","6617fad957f7c6a12ea16e26","6622d0015875c239fcd28bde","feedback screen","null","","","","","","","","","","","",""
"","null","html-keyboard-response","61","148226","0.0-9.0-0.13","zKsMJ0W3sI","5decaac46e09cf3792805023","6617fad957f7c6a12ea16e26","6622d0015875c239fcd28bde","fixation cross","null","","","","","","","","","","","",""
"","null","html-keyboard-response","62","149932","0.0-9.0-1.13","zKsMJ0W3sI","5decaac46e09cf3792805023","6617fad957f7c6a12ea16e26","6622d0015875c239fcd28bde","
        <div id=""grid-container"">
        <!-- Grid items will be dynamically added here -->
    </div>    ","null","","","","","","","","","","","",""
"","1899","html-keyboard-response","63","150131","0.0-9.0-2.13","zKsMJ0W3sI","5decaac46e09cf3792805023","6617fad957f7c6a12ea16e26","6622d0015875c239fcd28bde","mask grid","q","","","","","Ontogenetic_Distractor_Nonthreat_target","1700","onmask","p","1","Phylogenetic","false","practice"
"","null","html-keyboard-response","64","151349","0.0-9.0-3.13","zKsMJ0W3sI","5decaac46e09cf3792805023","6617fad957f7c6a12ea16e26","6622d0015875c239fcd28bde","feedback screen","null","","","","","","","","","","","",""
"","null","html-keyboard-response","65","151865","0.0-9.0-0.14","zKsMJ0W3sI","5decaac46e09cf3792805023","6617fad957f7c6a12ea16e26","6622d0015875c239fcd28bde","fixation cross","null","","","","","","","","","","","",""
"","1498","html-keyboard-response","66","153364","0.0-9.0-1.14","zKsMJ0W3sI","5decaac46e09cf3792805023","6617fad957f7c6a12ea16e26","6622d0015875c239fcd28bde","image grid"," ","","","","","Phylogenetic_Distractor_Threat_target","1600","ongrid","q","9","Phylogenetic","false","practice"
"","null","html-keyboard-response","67","153529","0.0-9.0-2.14","zKsMJ0W3sI","5decaac46e09cf3792805023","6617fad957f7c6a12ea16e26","6622d0015875c239fcd28bde","
    <div id=""grid-container"">
        <!-- Grid items will be dynamically added here -->
    </div>    ","null","","","","","","","","","","","",""
"","null","html-keyboard-response","68","154746","0.0-9.0-3.14","zKsMJ0W3sI","5decaac46e09cf3792805023","6617fad957f7c6a12ea16e26","6622d0015875c239fcd28bde","feedback screen","null","","","","","","","","","","","",""
"","null","html-keyboard-response","69","155258","0.0-9.0-0.15","zKsMJ0W3sI","5decaac46e09cf3792805023","6617fad957f7c6a12ea16e26","6622d0015875c239fcd28bde","fixation cross","null","","","","","","","","","","","",""
"","729","html-keyboard-response","70","155987","0.0-9.0-1.15","zKsMJ0W3sI","5decaac46e09cf3792805023","6617fad957f7c6a12ea16e26","6622d0015875c239fcd28bde","image grid","q","","","","","Ontogenetic_Distractor_Threat_target","1500","ongrid","q","6","Phylogenetic","true","practice"
"","null","html-keyboard-response","71","156143","0.0-9.0-2.15","zKsMJ0W3sI","5decaac46e09cf3792805023","6617fad957f7c6a12ea16e26","6622d0015875c239fcd28bde","
    <div id=""grid-container"">
        <!-- Grid items will be dynamically added here -->
    </div>    ","null","","","","","","","","","","","",""
"","null","html-keyboard-response","72","157346","0.0-9.0-3.15","zKsMJ0W3sI","5decaac46e09cf3792805023","6617fad957f7c6a12ea16e26","6622d0015875c239fcd28bde","feedback screen","null","","","","","","","","","","","",""
"","null","html-keyboard-response","73","157859","0.0-9.0-0.16","zKsMJ0W3sI","5decaac46e09cf3792805023","6617fad957f7c6a12ea16e26","6622d0015875c239fcd28bde","fixation cross","null","","","","","","","","","","","",""
"","744","html-keyboard-response","74","158603","0.0-9.0-1.16","zKsMJ0W3sI","5decaac46e09cf3792805023","6617fad957f7c6a12ea16e26","6622d0015875c239fcd28bde","image grid","p","","","","","Ontogenetic_Distractor_Nonthreat_target","1400","ongrid","p","2","Phylogenetic","true","practice"
"","null","html-keyboard-response","75","158762","0.0-9.0-2.16","zKsMJ0W3sI","5decaac46e09cf3792805023","6617fad957f7c6a12ea16e26","6622d0015875c239fcd28bde","
    <div id=""grid-container"">
        <!-- Grid items will be dynamically added here -->
    </div>    ","null","","","","","","","","","","","",""
"","null","html-keyboard-response","76","159974","0.0-9.0-3.16","zKsMJ0W3sI","5decaac46e09cf3792805023","6617fad957f7c6a12ea16e26","6622d0015875c239fcd28bde","feedback screen","null","","","","","","","","","","","",""
"","null","html-keyboard-response","77","160486","0.0-9.0-0.17","zKsMJ0W3sI","5decaac46e09cf3792805023","6617fad957f7c6a12ea16e26","6622d0015875c239fcd28bde","fixation cross","null","","","","","","","","","","","",""
"","964","html-keyboard-response","78","161451","0.0-9.0-1.17","zKsMJ0W3sI","5decaac46e09cf3792805023","6617fad957f7c6a12ea16e26","6622d0015875c239fcd28bde","image grid","p","","","","","Phylogenetic_Distractor_Nonthreat_target","1300","ongrid","p","3","Phylogenetic","true","practice"
"","null","html-keyboard-response","79","161609","0.0-9.0-2.17","zKsMJ0W3sI","5decaac46e09cf3792805023","6617fad957f7c6a12ea16e26","6622d0015875c239fcd28bde","
    <div id=""grid-container"">
        <!-- Grid items will be dynamically added here -->
    </div>    ","null","","","","","","","","","","","",""
"","null","html-keyboard-response","80","162826","0.0-9.0-3.17","zKsMJ0W3sI","5decaac46e09cf3792805023","6617fad957f7c6a12ea16e26","6622d0015875c239fcd28bde","feedback screen","null","","","","","","","","","","","",""
"","null","html-keyboard-response","81","163339","0.0-9.0-0.18","zKsMJ0W3sI","5decaac46e09cf3792805023","6617fad957f7c6a12ea16e26","6622d0015875c239fcd28bde","fixation cross","null","","","","","","","","","","","",""
"","1104","html-keyboard-response","82","164443","0.0-9.0-1.18","zKsMJ0W3sI","5decaac46e09cf3792805023","6617fad957f7c6a12ea16e26","6622d0015875c239fcd28bde","image grid","p","","","","","Phylogenetic_Distractor_Threat_target","1200","ongrid","q","8","Phylogenetic","false","practice"
"","null","html-keyboard-response","83","164604","0.0-9.0-2.18","zKsMJ0W3sI","5decaac46e09cf3792805023","6617fad957f7c6a12ea16e26","6622d0015875c239fcd28bde","
    <div id=""grid-container"">
        <!-- Grid items will be dynamically added here -->
    </div>    ","null","","","","","","","","","","","",""
"","null","html-keyboard-response","84","165819","0.0-9.0-3.18","zKsMJ0W3sI","5decaac46e09cf3792805023","6617fad957f7c6a12ea16e26","6622d0015875c239fcd28bde","feedback screen","null","","","","","","","","","","","",""
"","null","html-keyboard-response","85","166333","0.0-9.0-0.19","zKsMJ0W3sI","5decaac46e09cf3792805023","6617fad957f7c6a12ea16e26","6622d0015875c239fcd28bde","fixation cross","null","","","","","","","","","","","",""
"","null","html-keyboard-response","86","167446","0.0-9.0-1.19","zKsMJ0W3sI","5decaac46e09cf3792805023","6617fad957f7c6a12ea16e26","6622d0015875c239fcd28bde","
        <div id=""grid-container"">
        <!-- Grid items will be dynamically added here -->
    </div>    ","null","","","","","","","","","","","",""
"","1673","html-keyboard-response","87","168019","0.0-9.0-2.19","zKsMJ0W3sI","5decaac46e09cf3792805023","6617fad957f7c6a12ea16e26","6622d0015875c239fcd28bde","mask grid","q","","","","","Phylogenetic_Distractor_Threat_target","1100","onmask","q","4","Phylogenetic","true","practice"
"","null","html-keyboard-response","88","169231","0.0-9.0-3.19","zKsMJ0W3sI","5decaac46e09cf3792805023","6617fad957f7c6a12ea16e26","6622d0015875c239fcd28bde","feedback screen","null","","","","","","","","","","","",""
"","9654","html-keyboard-response","89","178908","0.0-10.0","zKsMJ0W3sI","5decaac46e09cf3792805023","6617fad957f7c6a12ea16e26","6622d0015875c239fcd28bde","pre-experimental_briefing"," ","","","","","","","","","","","",""
"","null","html-keyboard-response","90","181448","0.0-11.0-0.0","zKsMJ0W3sI","5decaac46e09cf3792805023","6617fad957f7c6a12ea16e26","6622d0015875c239fcd28bde","fixation cross","null","","","","","","","","","","","",""
"","875","html-keyboard-response","91","182324","0.0-11.0-1.0","zKsMJ0W3sI","5decaac46e09cf3792805023","6617fad957f7c6a12ea16e26","6622d0015875c239fcd28bde","image grid"," ","","","","","Phylogenetic_Distractor_Threat_target","2500","ongrid","q","7","Phylogenetic","false","experimental"
"","null","html-keyboard-response","92","182489","0.0-11.0-2.0","zKsMJ0W3sI","5decaac46e09cf3792805023","6617fad957f7c6a12ea16e26","6622d0015875c239fcd28bde","
    <div id=""grid-container"">
        <!-- Grid items will be dynamically added here -->
    </div>    ","null","","","","","","","","","","","",""
"","null","html-keyboard-response","93","183205","0.0-11.0-0.1","zKsMJ0W3sI","5decaac46e09cf3792805023","6617fad957f7c6a12ea16e26","6622d0015875c239fcd28bde","fixation cross","null","","","","","","","","","","","",""
"","1062","html-keyboard-response","94","184268","0.0-11.0-1.1","zKsMJ0W3sI","5decaac46e09cf3792805023","6617fad957f7c6a12ea16e26","6622d0015875c239fcd28bde","image grid"," ","","","","","Phylogenetic_Distractor_Threat_target","2500","ongrid","q","8","Phylogenetic","false","experimental"
"","null","html-keyboard-response","95","184429","0.0-11.0-2.1","zKsMJ0W3sI","5decaac46e09cf3792805023","6617fad957f7c6a12ea16e26","6622d0015875c239fcd28bde","
    <div id=""grid-container"">
        <!-- Grid items will be dynamically added here -->
    </div>    ","null","","","","","","","","","","","",""
"","null","html-keyboard-response","96","185144","0.0-11.0-0.2","zKsMJ0W3sI","5decaac46e09cf3792805023","6617fad957f7c6a12ea16e26","6622d0015875c239fcd28bde","fixation cross","null","","","","","","","","","","","",""
"","1075","html-keyboard-response","97","186219","0.0-11.0-1.2","zKsMJ0W3sI","5decaac46e09cf3792805023","6617fad957f7c6a12ea16e26","6622d0015875c239fcd28bde","image grid"," ","","","","","Phylogenetic_Distractor_notarget","2500","ongrid"," ","1","Phylogenetic","true","experimental"
"","null","html-keyboard-response","98","186374","0.0-11.0-2.2","zKsMJ0W3sI","5decaac46e09cf3792805023","6617fad957f7c6a12ea16e26","6622d0015875c239fcd28bde","
    <div id=""grid-container"">
        <!-- Grid items will be dynamically added here -->
    </div>    ","null","","","","","","","","","","","",""
"","null","html-keyboard-response","99","187092","0.0-11.0-0.3","zKsMJ0W3sI","5decaac46e09cf3792805023","6617fad957f7c6a12ea16e26","6622d0015875c239fcd28bde","fixation cross","null","","","","","","","","","","","",""
"","927","html-keyboard-response","100","188020","0.0-11.0-1.3","zKsMJ0W3sI","5decaac46e09cf3792805023","6617fad957f7c6a12ea16e26","6622d0015875c239fcd28bde","image grid","p","","","","","Phylogenetic_Distractor_Nonthreat_target","2500","ongrid","p","6","Phylogenetic","true","experimental"
"","null","html-keyboard-response","101","188180","0.0-11.0-2.3","zKsMJ0W3sI","5decaac46e09cf3792805023","6617fad957f7c6a12ea16e26","6622d0015875c239fcd28bde","
    <div id=""grid-container"">
        <!-- Grid items will be dynamically added here -->
    </div>    ","null","","","","","","","","","","","",""
"","null","html-keyboard-response","102","188895","0.0-11.0-0.4","zKsMJ0W3sI","5decaac46e09cf3792805023","6617fad957f7c6a12ea16e26","6622d0015875c239fcd28bde","fixation cross","null","","","","","","","","","","","",""
"","940","html-keyboard-response","103","189836","0.0-11.0-1.4","zKsMJ0W3sI","5decaac46e09cf3792805023","6617fad957f7c6a12ea16e26","6622d0015875c239fcd28bde","image grid"," ","","","","","Phylogenetic_Distractor_Threat_target","2500","ongrid","q","1","Phylogenetic","false","experimental"
"","null","html-keyboard-response","104","189999","0.0-11.0-2.4","zKsMJ0W3sI","5decaac46e09cf3792805023","6617fad957f7c6a12ea16e26","6622d0015875c239fcd28bde","
    <div id=""grid-container"">
        <!-- Grid items will be dynamically added here -->
    </div>    ","null","","","","","","","","","","","",""
"","null","html-keyboard-response","105","190718","0.0-11.0-0.5","zKsMJ0W3sI","5decaac46e09cf3792805023","6617fad957f7c6a12ea16e26","6622d0015875c239fcd28bde","fixation cross","null","","","","","","","","","","","",""
"","716","html-keyboard-response","106","191435","0.0-11.0-1.5","zKsMJ0W3sI","5decaac46e09cf3792805023","6617fad957f7c6a12ea16e26","6622d0015875c239fcd28bde","image grid","q","","","","","Phylogenetic_Distractor_Threat_target","2500","ongrid","q","4","Phylogenetic","true","experimental"
"","null","html-keyboard-response","107","191595","0.0-11.0-2.5","zKsMJ0W3sI","5decaac46e09cf3792805023","6617fad957f7c6a12ea16e26","6622d0015875c239fcd28bde","
    <div id=""grid-container"">
        <!-- Grid items will be dynamically added here -->
    </div>    ","null","","","","","","","","","","","",""
"","null","html-keyboard-response","108","192311","0.0-11.0-0.6","zKsMJ0W3sI","5decaac46e09cf3792805023","6617fad957f7c6a12ea16e26","6622d0015875c239fcd28bde","fixation cross","null","","","","","","","","","","","",""
"","1108","html-keyboard-response","109","193419","0.0-11.0-1.6","zKsMJ0W3sI","5decaac46e09cf3792805023","6617fad957f7c6a12ea16e26","6622d0015875c239fcd28bde","image grid","q","","","","","Phylogenetic_Distractor_Threat_target","2500","ongrid","q","9","Phylogenetic","true","experimental"
"","null","html-keyboard-response","110","193586","0.0-11.0-2.6","zKsMJ0W3sI","5decaac46e09cf3792805023","6617fad957f7c6a12ea16e26","6622d0015875c239fcd28bde","
    <div id=""grid-container"">
        <!-- Grid items will be dynamically added here -->
    </div>    ","null","","","","","","","","","","","",""
"","null","html-keyboard-response","111","194303","0.0-11.0-0.7","zKsMJ0W3sI","5decaac46e09cf3792805023","6617fad957f7c6a12ea16e26","6622d0015875c239fcd28bde","fixation cross","null","","","","","","","","","","","",""
"","1060","html-keyboard-response","112","195363","0.0-11.0-1.7","zKsMJ0W3sI","5decaac46e09cf3792805023","6617fad957f7c6a12ea16e26","6622d0015875c239fcd28bde","image grid","q","","","","","Phylogenetic_Distractor_Nonthreat_target","2500","ongrid","p","3","Phylogenetic","false","experimental"
"","null","html-keyboard-response","113","195514","0.0-11.0-2.7","zKsMJ0W3sI","5decaac46e09cf3792805023","6617fad957f7c6a12ea16e26","6622d0015875c239fcd28bde","
    <div id=""grid-container"">
        <!-- Grid items will be dynamically added here -->
    </div>    ","null","","","","","","","","","","","",""
"","null","html-keyboard-response","114","196228","0.0-11.0-0.8","zKsMJ0W3sI","5decaac46e09cf3792805023","6617fad957f7c6a12ea16e26","6622d0015875c239fcd28bde","fixation cross","null","","","","","","","","","","","",""
"","839","html-keyboard-response","115","197068","0.0-11.0-1.8","zKsMJ0W3sI","5decaac46e09cf3792805023","6617fad957f7c6a12ea16e26","6622d0015875c239fcd28bde","image grid","p","","","","","Phylogenetic_Distractor_Nonthreat_target","2500","ongrid","p","6","Phylogenetic","true","experimental"
"","null","html-keyboard-response","116","197226","0.0-11.0-2.8","zKsMJ0W3sI","5decaac46e09cf3792805023","6617fad957f7c6a12ea16e26","6622d0015875c239fcd28bde","
    <div id=""grid-container"">
        <!-- Grid items will be dynamically added here -->
    </div>    ","null","","","","","","","","","","","",""
"","null","html-keyboard-response","117","197945","0.0-11.0-0.9","zKsMJ0W3sI","5decaac46e09cf3792805023","6617fad957f7c6a12ea16e26","6622d0015875c239fcd28bde","fixation cross","null","","","","","","","","","","","",""
"","691","html-keyboard-response","118","198636","0.0-11.0-1.9","zKsMJ0W3sI","5decaac46e09cf3792805023","6617fad957f7c6a12ea16e26","6622d0015875c239fcd28bde","image grid","q","","","","","Phylogenetic_Distractor_Threat_target","2500","ongrid","q","6","Phylogenetic","true","experimental"
"","null","html-keyboard-response","119","198800","0.0-11.0-2.9","zKsMJ0W3sI","5decaac46e09cf3792805023","6617fad957f7c6a12ea16e26","6622d0015875c239fcd28bde","
    <div id=""grid-container"">
        <!-- Grid items will be dynamically added here -->
    </div>    ","null","","","","","","","","","","","",""
"","null","html-keyboard-response","120","199516","0.0-11.0-0.10","zKsMJ0W3sI","5decaac46e09cf3792805023","6617fad957f7c6a12ea16e26","6622d0015875c239fcd28bde","fixation cross","null","","","","","","","","","","","",""
"","999","html-keyboard-response","121","200516","0.0-11.0-1.10","zKsMJ0W3sI","5decaac46e09cf3792805023","6617fad957f7c6a12ea16e26","6622d0015875c239fcd28bde","image grid","p","","","","","Phylogenetic_Distractor_Nonthreat_target","2500","ongrid","p","4","Phylogenetic","true","experimental"
"","null","html-keyboard-response","122","200673","0.0-11.0-2.10","zKsMJ0W3sI","5decaac46e09cf3792805023","6617fad957f7c6a12ea16e26","6622d0015875c239fcd28bde","
    <div id=""grid-container"">
        <!-- Grid items will be dynamically added here -->
    </div>    ","null","","","","","","","","","","","",""
"","null","html-keyboard-response","123","201389","0.0-11.0-0.11","zKsMJ0W3sI","5decaac46e09cf3792805023","6617fad957f7c6a12ea16e26","6622d0015875c239fcd28bde","fixation cross","null","","","","","","","","","","","",""
"","1118","html-keyboard-response","124","202507","0.0-11.0-1.11","zKsMJ0W3sI","5decaac46e09cf3792805023","6617fad957f7c6a12ea16e26","6622d0015875c239fcd28bde","image grid"," ","","","","","Phylogenetic_Distractor_Nonthreat_target","2500","ongrid","p","6","Phylogenetic","false","experimental"
"","null","html-keyboard-response","125","202667","0.0-11.0-2.11","zKsMJ0W3sI","5decaac46e09cf3792805023","6617fad957f7c6a12ea16e26","6622d0015875c239fcd28bde","
    <div id=""grid-container"">
        <!-- Grid items will be dynamically added here -->
    </div>    ","null","","","","","","","","","","","",""
"","null","html-keyboard-response","126","203384","0.0-11.0-0.12","zKsMJ0W3sI","5decaac46e09cf3792805023","6617fad957f7c6a12ea16e26","6622d0015875c239fcd28bde","fixation cross","null","","","","","","","","","","","",""
"","723","html-keyboard-response","127","204107","0.0-11.0-1.12","zKsMJ0W3sI","5decaac46e09cf3792805023","6617fad957f7c6a12ea16e26","6622d0015875c239fcd28bde","image grid","q","","","","","Phylogenetic_Distractor_Threat_target","2500","ongrid","q","4","Phylogenetic","true","experimental"
"","null","html-keyboard-response","128","204272","0.0-11.0-2.12","zKsMJ0W3sI","5decaac46e09cf3792805023","6617fad957f7c6a12ea16e26","6622d0015875c239fcd28bde","
    <div id=""grid-container"">
        <!-- Grid items will be dynamically added here -->
    </div>    ","null","","","","","","","","","","","",""
"","null","html-keyboard-response","129","204986","0.0-11.0-0.13","zKsMJ0W3sI","5decaac46e09cf3792805023","6617fad957f7c6a12ea16e26","6622d0015875c239fcd28bde","fixation cross","null","","","","","","","","","","","",""
"","864","html-keyboard-response","130","205851","0.0-11.0-1.13","zKsMJ0W3sI","5decaac46e09cf3792805023","6617fad957f7c6a12ea16e26","6622d0015875c239fcd28bde","image grid","p","","","","","Phylogenetic_Distractor_Nonthreat_target","2500","ongrid","p","4","Phylogenetic","true","experimental"
"","null","html-keyboard-response","131","206014","0.0-11.0-2.13","zKsMJ0W3sI","5decaac46e09cf3792805023","6617fad957f7c6a12ea16e26","6622d0015875c239fcd28bde","
    <div id=""grid-container"">
        <!-- Grid items will be dynamically added here -->
    </div>    ","null","","","","","","","","","","","",""
"","null","html-keyboard-response","132","206735","0.0-11.0-0.14","zKsMJ0W3sI","5decaac46e09cf3792805023","6617fad957f7c6a12ea16e26","6622d0015875c239fcd28bde","fixation cross","null","","","","","","","","","","","",""
"","780","html-keyboard-response","133","207515","0.0-11.0-1.14","zKsMJ0W3sI","5decaac46e09cf3792805023","6617fad957f7c6a12ea16e26","6622d0015875c239fcd28bde","image grid","q","","","","","Phylogenetic_Distractor_Threat_target","2500","ongrid","q","7","Phylogenetic","true","experimental"
"","null","html-keyboard-response","134","207673","0.0-11.0-2.14","zKsMJ0W3sI","5decaac46e09cf3792805023","6617fad957f7c6a12ea16e26","6622d0015875c239fcd28bde","
    <div id=""grid-container"">
        <!-- Grid items will be dynamically added here -->
    </div>    ","null","","","","","","","","","","","",""
"","null","html-keyboard-response","135","208389","0.0-11.0-0.15","zKsMJ0W3sI","5decaac46e09cf3792805023","6617fad957f7c6a12ea16e26","6622d0015875c239fcd28bde","fixation cross","null","","","","","","","","","","","",""
"","1566","html-keyboard-response","136","209955","0.0-11.0-1.15","zKsMJ0W3sI","5decaac46e09cf3792805023","6617fad957f7c6a12ea16e26","6622d0015875c239fcd28bde","image grid"," ","","","","","Phylogenetic_Distractor_Nonthreat_target","2500","ongrid","p","8","Phylogenetic","false","experimental"
"","null","html-keyboard-response","137","210115","0.0-11.0-2.15","zKsMJ0W3sI","5decaac46e09cf3792805023","6617fad957f7c6a12ea16e26","6622d0015875c239fcd28bde","
    <div id=""grid-container"">
        <!-- Grid items will be dynamically added here -->
    </div>    ","null","","","","","","","","","","","",""
"","null","html-keyboard-response","138","210819","0.0-11.0-0.16","zKsMJ0W3sI","5decaac46e09cf3792805023","6617fad957f7c6a12ea16e26","6622d0015875c239fcd28bde","fixation cross","null","","","","","","","","","","","",""
"","1536","html-keyboard-response","139","212356","0.0-11.0-1.16","zKsMJ0W3sI","5decaac46e09cf3792805023","6617fad957f7c6a12ea16e26","6622d0015875c239fcd28bde","image grid","q","","","","","Phylogenetic_Distractor_Threat_target","2500","ongrid","q","8","Phylogenetic","true","experimental"
"","null","html-keyboard-response","140","212518","0.0-11.0-2.16","zKsMJ0W3sI","5decaac46e09cf3792805023","6617fad957f7c6a12ea16e26","6622d0015875c239fcd28bde","
    <div id=""grid-container"">
        <!-- Grid items will be dynamically added here -->
    </div>    ","null","","","","","","","","","","","",""
"","null","html-keyboard-response","141","213233","0.0-11.0-0.17","zKsMJ0W3sI","5decaac46e09cf3792805023","6617fad957f7c6a12ea16e26","6622d0015875c239fcd28bde","fixation cross","null","","","","","","","","","","","",""
"","1730","html-keyboard-response","142","214964","0.0-11.0-1.17","zKsMJ0W3sI","5decaac46e09cf3792805023","6617fad957f7c6a12ea16e26","6622d0015875c239fcd28bde","image grid","p","","","","","Phylogenetic_Distractor_notarget","2500","ongrid"," ","6","Phylogenetic","false","experimental"
"","null","html-keyboard-response","143","215120","0.0-11.0-2.17","zKsMJ0W3sI","5decaac46e09cf3792805023","6617fad957f7c6a12ea16e26","6622d0015875c239fcd28bde","
    <div id=""grid-container"">
        <!-- Grid items will be dynamically added here -->
    </div>    ","null","","","","","","","","","","","",""
"","null","html-keyboard-response","144","215834","0.0-11.0-0.18","zKsMJ0W3sI","5decaac46e09cf3792805023","6617fad957f7c6a12ea16e26","6622d0015875c239fcd28bde","fixation cross","null","","","","","","","","","","","",""
"","1977","html-keyboard-response","145","217811","0.0-11.0-1.18","zKsMJ0W3sI","5decaac46e09cf3792805023","6617fad957f7c6a12ea16e26","6622d0015875c239fcd28bde","image grid"," ","","","","","Phylogenetic_Distractor_Nonthreat_target","2500","ongrid","p","4","Phylogenetic","false","experimental"
"","null","html-keyboard-response","146","217967","0.0-11.0-2.18","zKsMJ0W3sI","5decaac46e09cf3792805023","6617fad957f7c6a12ea16e26","6622d0015875c239fcd28bde","
    <div id=""grid-container"">
        <!-- Grid items will be dynamically added here -->
    </div>    ","null","","","","","","","","","","","",""
"","null","html-keyboard-response","147","218697","0.0-11.0-0.19","zKsMJ0W3sI","5decaac46e09cf3792805023","6617fad957f7c6a12ea16e26","6622d0015875c239fcd28bde","fixation cross","null","","","","","","","","","","","",""
"","930","html-keyboard-response","148","219627","0.0-11.0-1.19","zKsMJ0W3sI","5decaac46e09cf3792805023","6617fad957f7c6a12ea16e26","6622d0015875c239fcd28bde","image grid","q","","","","","Phylogenetic_Distractor_Threat_target","2500","ongrid","q","5","Phylogenetic","true","experimental"
"","null","html-keyboard-response","149","219785","0.0-11.0-2.19","zKsMJ0W3sI","5decaac46e09cf3792805023","6617fad957f7c6a12ea16e26","6622d0015875c239fcd28bde","
    <div id=""grid-container"">
        <!-- Grid items will be dynamically added here -->
    </div>    ","null","","","","","","","","","","","",""
"","null","html-keyboard-response","150","220502","0.0-11.0-0.20","zKsMJ0W3sI","5decaac46e09cf3792805023","6617fad957f7c6a12ea16e26","6622d0015875c239fcd28bde","fixation cross","null","","","","","","","","","","","",""
"","1396","html-keyboard-response","151","221899","0.0-11.0-1.20","zKsMJ0W3sI","5decaac46e09cf3792805023","6617fad957f7c6a12ea16e26","6622d0015875c239fcd28bde","image grid","q","","","","","Phylogenetic_Distractor_Nonthreat_target","2500","ongrid","p","8","Phylogenetic","false","experimental"
"","null","html-keyboard-response","152","222055","0.0-11.0-2.20","zKsMJ0W3sI","5decaac46e09cf3792805023","6617fad957f7c6a12ea16e26","6622d0015875c239fcd28bde","
    <div id=""grid-container"">
        <!-- Grid items will be dynamically added here -->
    </div>    ","null","","","","","","","","","","","",""
"","null","html-keyboard-response","153","222769","0.0-11.0-0.21","zKsMJ0W3sI","5decaac46e09cf3792805023","6617fad957f7c6a12ea16e26","6622d0015875c239fcd28bde","fixation cross","null","","","","","","","","","","","",""
"","738","html-keyboard-response","154","223508","0.0-11.0-1.21","zKsMJ0W3sI","5decaac46e09cf3792805023","6617fad957f7c6a12ea16e26","6622d0015875c239fcd28bde","image grid","q","","","","","Phylogenetic_Distractor_Threat_target","2500","ongrid","q","8","Phylogenetic","true","experimental"
"","null","html-keyboard-response","155","223673","0.0-11.0-2.21","zKsMJ0W3sI","5decaac46e09cf3792805023","6617fad957f7c6a12ea16e26","6622d0015875c239fcd28bde","
    <div id=""grid-container"">
        <!-- Grid items will be dynamically added here -->
    </div>    ","null","","","","","","","","","","","",""
"","null","html-keyboard-response","156","224393","0.0-11.0-0.22","zKsMJ0W3sI","5decaac46e09cf3792805023","6617fad957f7c6a12ea16e26","6622d0015875c239fcd28bde","fixation cross","null","","","","","","","","","","","",""
"","1505","html-keyboard-response","157","225899","0.0-11.0-1.22","zKsMJ0W3sI","5decaac46e09cf3792805023","6617fad957f7c6a12ea16e26","6622d0015875c239fcd28bde","image grid"," ","","","","","Phylogenetic_Distractor_Nonthreat_target","2500","ongrid","p","8","Phylogenetic","false","experimental"
"","null","html-keyboard-response","158","226057","0.0-11.0-2.22","zKsMJ0W3sI","5decaac46e09cf3792805023","6617fad957f7c6a12ea16e26","6622d0015875c239fcd28bde","
    <div id=""grid-container"">
        <!-- Grid items will be dynamically added here -->
    </div>    ","null","","","","","","","","","","","",""
"","null","html-keyboard-response","159","226759","0.0-11.0-0.23","zKsMJ0W3sI","5decaac46e09cf3792805023","6617fad957f7c6a12ea16e26","6622d0015875c239fcd28bde","fixation cross","null","","","","","","","","","","","",""
"","1332","html-keyboard-response","160","228091","0.0-11.0-1.23","zKsMJ0W3sI","5decaac46e09cf3792805023","6617fad957f7c6a12ea16e26","6622d0015875c239fcd28bde","image grid","q","","","","","Phylogenetic_Distractor_Threat_target","2500","ongrid","q","2","Phylogenetic","true","experimental"
"","null","html-keyboard-response","161","228256","0.0-11.0-2.23","zKsMJ0W3sI","5decaac46e09cf3792805023","6617fad957f7c6a12ea16e26","6622d0015875c239fcd28bde","
    <div id=""grid-container"">
        <!-- Grid items will be dynamically added here -->
    </div>    ","null","","","","","","","","","","","",""
"","null","html-keyboard-response","162","228971","0.0-11.0-0.24","zKsMJ0W3sI","5decaac46e09cf3792805023","6617fad957f7c6a12ea16e26","6622d0015875c239fcd28bde","fixation cross","null","","","","","","","","","","","",""
"","1248","html-keyboard-response","163","230219","0.0-11.0-1.24","zKsMJ0W3sI","5decaac46e09cf3792805023","6617fad957f7c6a12ea16e26","6622d0015875c239fcd28bde","image grid"," ","","","","","Phylogenetic_Distractor_notarget","2500","ongrid"," ","1","Phylogenetic","true","experimental"
"","null","html-keyboard-response","164","230381","0.0-11.0-2.24","zKsMJ0W3sI","5decaac46e09cf3792805023","6617fad957f7c6a12ea16e26","6622d0015875c239fcd28bde","
    <div id=""grid-container"">
        <!-- Grid items will be dynamically added here -->
    </div>    ","null","","","","","","","","","","","",""
"","null","html-keyboard-response","165","231096","0.0-11.0-0.25","zKsMJ0W3sI","5decaac46e09cf3792805023","6617fad957f7c6a12ea16e26","6622d0015875c239fcd28bde","fixation cross","null","","","","","","","","","","","",""
"","1251","html-keyboard-response","166","232347","0.0-11.0-1.25","zKsMJ0W3sI","5decaac46e09cf3792805023","6617fad957f7c6a12ea16e26","6622d0015875c239fcd28bde","image grid","p","","","","","Phylogenetic_Distractor_Nonthreat_target","2500","ongrid","p","8","Phylogenetic","true","experimental"
"","null","html-keyboard-response","167","232499","0.0-11.0-2.25","zKsMJ0W3sI","5decaac46e09cf3792805023","6617fad957f7c6a12ea16e26","6622d0015875c239fcd28bde","
    <div id=""grid-container"">
        <!-- Grid items will be dynamically added here -->
    </div>    ","null","","","","","","","","","","","",""
"","null","html-keyboard-response","168","233214","0.0-11.0-0.26","zKsMJ0W3sI","5decaac46e09cf3792805023","6617fad957f7c6a12ea16e26","6622d0015875c239fcd28bde","fixation cross","null","","","","","","","","","","","",""
"","669","html-keyboard-response","169","233883","0.0-11.0-1.26","zKsMJ0W3sI","5decaac46e09cf3792805023","6617fad957f7c6a12ea16e26","6622d0015875c239fcd28bde","image grid","q","","","","","Phylogenetic_Distractor_Threat_target","2500","ongrid","q","6","Phylogenetic","true","experimental"
"","null","html-keyboard-response","170","234037","0.0-11.0-2.26","zKsMJ0W3sI","5decaac46e09cf3792805023","6617fad957f7c6a12ea16e26","6622d0015875c239fcd28bde","
    <div id=""grid-container"">
        <!-- Grid items will be dynamically added here -->
    </div>    ","null","","","","","","","","","","","",""
"","null","html-keyboard-response","171","234754","0.0-11.0-0.27","zKsMJ0W3sI","5decaac46e09cf3792805023","6617fad957f7c6a12ea16e26","6622d0015875c239fcd28bde","fixation cross","null","","","","","","","","","","","",""
"","1409","html-keyboard-response","172","236163","0.0-11.0-1.27","zKsMJ0W3sI","5decaac46e09cf3792805023","6617fad957f7c6a12ea16e26","6622d0015875c239fcd28bde","image grid","q","","","","","Phylogenetic_Distractor_Nonthreat_target","2500","ongrid","p","1","Phylogenetic","false","experimental"
"","null","html-keyboard-response","173","236327","0.0-11.0-2.27","zKsMJ0W3sI","5decaac46e09cf3792805023","6617fad957f7c6a12ea16e26","6622d0015875c239fcd28bde","
    <div id=""grid-container"">
        <!-- Grid items will be dynamically added here -->
    </div>    ","null","","","","","","","","","","","",""
"","null","html-keyboard-response","174","237044","0.0-11.0-0.28","zKsMJ0W3sI","5decaac46e09cf3792805023","6617fad957f7c6a12ea16e26","6622d0015875c239fcd28bde","fixation cross","null","","","","","","","","","","","",""
"","1223","html-keyboard-response","175","238268","0.0-11.0-1.28","zKsMJ0W3sI","5decaac46e09cf3792805023","6617fad957f7c6a12ea16e26","6622d0015875c239fcd28bde","image grid","p","","","","","Phylogenetic_Distractor_Nonthreat_target","2500","ongrid","p","1","Phylogenetic","true","experimental"
"","null","html-keyboard-response","176","238430","0.0-11.0-2.28","zKsMJ0W3sI","5decaac46e09cf3792805023","6617fad957f7c6a12ea16e26","6622d0015875c239fcd28bde","
    <div id=""grid-container"">
        <!-- Grid items will be dynamically added here -->
    </div>    ","null","","","","","","","","","","","",""
"","null","html-keyboard-response","177","239138","0.0-11.0-0.29","zKsMJ0W3sI","5decaac46e09cf3792805023","6617fad957f7c6a12ea16e26","6622d0015875c239fcd28bde","fixation cross","null","","","","","","","","","","","",""
"","1202","html-keyboard-response","178","240340","0.0-11.0-1.29","zKsMJ0W3sI","5decaac46e09cf3792805023","6617fad957f7c6a12ea16e26","6622d0015875c239fcd28bde","image grid","q","","","","","Phylogenetic_Distractor_Threat_target","2500","ongrid","q","3","Phylogenetic","true","experimental"
"","null","html-keyboard-response","179","240496","0.0-11.0-2.29","zKsMJ0W3sI","5decaac46e09cf3792805023","6617fad957f7c6a12ea16e26","6622d0015875c239fcd28bde","
    <div id=""grid-container"">
        <!-- Grid items will be dynamically added here -->
    </div>    ","null","","","","","","","","","","","",""
"","null","html-keyboard-response","180","241217","0.0-11.0-0.30","zKsMJ0W3sI","5decaac46e09cf3792805023","6617fad957f7c6a12ea16e26","6622d0015875c239fcd28bde","fixation cross","null","","","","","","","","","","","",""
"","850","html-keyboard-response","181","242068","0.0-11.0-1.30","zKsMJ0W3sI","5decaac46e09cf3792805023","6617fad957f7c6a12ea16e26","6622d0015875c239fcd28bde","image grid"," ","","","","","Phylogenetic_Distractor_notarget","2500","ongrid"," ","7","Phylogenetic","true","experimental"
"","null","html-keyboard-response","182","242226","0.0-11.0-2.30","zKsMJ0W3sI","5decaac46e09cf3792805023","6617fad957f7c6a12ea16e26","6622d0015875c239fcd28bde","
    <div id=""grid-container"">
        <!-- Grid items will be dynamically added here -->
    </div>    ","null","","","","","","","","","","","",""
"","null","html-keyboard-response","183","242943","0.0-11.0-0.31","zKsMJ0W3sI","5decaac46e09cf3792805023","6617fad957f7c6a12ea16e26","6622d0015875c239fcd28bde","fixation cross","null","","","","","","","","","","","",""
"","1028","html-keyboard-response","184","243972","0.0-11.0-1.31","zKsMJ0W3sI","5decaac46e09cf3792805023","6617fad957f7c6a12ea16e26","6622d0015875c239fcd28bde","image grid","p","","","","","Phylogenetic_Distractor_Nonthreat_target","2500","ongrid","p","8","Phylogenetic","true","experimental"
"","null","html-keyboard-response","185","244127","0.0-11.0-2.31","zKsMJ0W3sI","5decaac46e09cf3792805023","6617fad957f7c6a12ea16e26","6622d0015875c239fcd28bde","
    <div id=""grid-container"">
        <!-- Grid items will be dynamically added here -->
    </div>    ","null","","","","","","","","","","","",""
"","null","html-keyboard-response","186","244843","0.0-11.0-0.32","zKsMJ0W3sI","5decaac46e09cf3792805023","6617fad957f7c6a12ea16e26","6622d0015875c239fcd28bde","fixation cross","null","","","","","","","","","","","",""
"","713","html-keyboard-response","187","245556","0.0-11.0-1.32","zKsMJ0W3sI","5decaac46e09cf3792805023","6617fad957f7c6a12ea16e26","6622d0015875c239fcd28bde","image grid","q","","","","","Phylogenetic_Distractor_Threat_target","2500","ongrid","q","9","Phylogenetic","true","experimental"
"","null","html-keyboard-response","188","245712","0.0-11.0-2.32","zKsMJ0W3sI","5decaac46e09cf3792805023","6617fad957f7c6a12ea16e26","6622d0015875c239fcd28bde","
    <div id=""grid-container"">
        <!-- Grid items will be dynamically added here -->
    </div>    ","null","","","","","","","","","","","",""
"","null","html-keyboard-response","189","246433","0.0-11.0-0.33","zKsMJ0W3sI","5decaac46e09cf3792805023","6617fad957f7c6a12ea16e26","6622d0015875c239fcd28bde","fixation cross","null","","","","","","","","","","","",""
"","1058","html-keyboard-response","190","247492","0.0-11.0-1.33","zKsMJ0W3sI","5decaac46e09cf3792805023","6617fad957f7c6a12ea16e26","6622d0015875c239fcd28bde","image grid","p","","","","","Phylogenetic_Distractor_Nonthreat_target","2500","ongrid","p","6","Phylogenetic","true","experimental"
"","null","html-keyboard-response","191","247650","0.0-11.0-2.33","zKsMJ0W3sI","5decaac46e09cf3792805023","6617fad957f7c6a12ea16e26","6622d0015875c239fcd28bde","
    <div id=""grid-container"">
        <!-- Grid items will be dynamically added here -->
    </div>    ","null","","","","","","","","","","","",""
"","null","html-keyboard-response","192","248366","0.0-11.0-0.34","zKsMJ0W3sI","5decaac46e09cf3792805023","6617fad957f7c6a12ea16e26","6622d0015875c239fcd28bde","fixation cross","null","","","","","","","","","","","",""
"","957","html-keyboard-response","193","249323","0.0-11.0-1.34","zKsMJ0W3sI","5decaac46e09cf3792805023","6617fad957f7c6a12ea16e26","6622d0015875c239fcd28bde","image grid","q","","","","","Phylogenetic_Distractor_Threat_target","2500","ongrid","q","8","Phylogenetic","true","experimental"
"","null","html-keyboard-response","194","249486","0.0-11.0-2.34","zKsMJ0W3sI","5decaac46e09cf3792805023","6617fad957f7c6a12ea16e26","6622d0015875c239fcd28bde","
    <div id=""grid-container"">
        <!-- Grid items will be dynamically added here -->
    </div>    ","null","","","","","","","","","","","",""
"","null","html-keyboard-response","195","250199","0.0-11.0-0.35","zKsMJ0W3sI","5decaac46e09cf3792805023","6617fad957f7c6a12ea16e26","6622d0015875c239fcd28bde","fixation cross","null","","","","","","","","","","","",""
"","924","html-keyboard-response","196","251124","0.0-11.0-1.35","zKsMJ0W3sI","5decaac46e09cf3792805023","6617fad957f7c6a12ea16e26","6622d0015875c239fcd28bde","image grid","p","","","","","Phylogenetic_Distractor_Nonthreat_target","2500","ongrid","p","7","Phylogenetic","true","experimental"
"","null","html-keyboard-response","197","251285","0.0-11.0-2.35","zKsMJ0W3sI","5decaac46e09cf3792805023","6617fad957f7c6a12ea16e26","6622d0015875c239fcd28bde","
    <div id=""grid-container"">
        <!-- Grid items will be dynamically added here -->
    </div>    ","null","","","","","","","","","","","",""
"","null","html-keyboard-response","198","251999","0.0-11.0-0.36","zKsMJ0W3sI","5decaac46e09cf3792805023","6617fad957f7c6a12ea16e26","6622d0015875c239fcd28bde","fixation cross","null","","","","","","","","","","","",""
"","652","html-keyboard-response","199","252651","0.0-11.0-1.36","zKsMJ0W3sI","5decaac46e09cf3792805023","6617fad957f7c6a12ea16e26","6622d0015875c239fcd28bde","image grid","q","","","","","Phylogenetic_Distractor_Threat_target","2500","ongrid","q","8","Phylogenetic","true","experimental"
"","null","html-keyboard-response","200","252805","0.0-11.0-2.36","zKsMJ0W3sI","5decaac46e09cf3792805023","6617fad957f7c6a12ea16e26","6622d0015875c239fcd28bde","
    <div id=""grid-container"">
        <!-- Grid items will be dynamically added here -->
    </div>    ","null","","","","","","","","","","","",""
"","null","html-keyboard-response","201","253524","0.0-11.0-0.37","zKsMJ0W3sI","5decaac46e09cf3792805023","6617fad957f7c6a12ea16e26","6622d0015875c239fcd28bde","fixation cross","null","","","","","","","","","","","",""
"","712","html-keyboard-response","202","254236","0.0-11.0-1.37","zKsMJ0W3sI","5decaac46e09cf3792805023","6617fad957f7c6a12ea16e26","6622d0015875c239fcd28bde","image grid","p","","","","","Phylogenetic_Distractor_Nonthreat_target","2500","ongrid","p","6","Phylogenetic","true","experimental"
"","null","html-keyboard-response","203","254396","0.0-11.0-2.37","zKsMJ0W3sI","5decaac46e09cf3792805023","6617fad957f7c6a12ea16e26","6622d0015875c239fcd28bde","
    <div id=""grid-container"">
        <!-- Grid items will be dynamically added here -->
    </div>    ","null","","","","","","","","","","","",""
"","null","html-keyboard-response","204","255126","0.0-11.0-0.38","zKsMJ0W3sI","5decaac46e09cf3792805023","6617fad957f7c6a12ea16e26","6622d0015875c239fcd28bde","fixation cross","null","","","","","","","","","","","",""
"","1429","html-keyboard-response","205","256555","0.0-11.0-1.38","zKsMJ0W3sI","5decaac46e09cf3792805023","6617fad957f7c6a12ea16e26","6622d0015875c239fcd28bde","image grid"," ","","","","","Phylogenetic_Distractor_Nonthreat_target","2500","ongrid","p","8","Phylogenetic","false","experimental"
"","null","html-keyboard-response","206","256713","0.0-11.0-2.38","zKsMJ0W3sI","5decaac46e09cf3792805023","6617fad957f7c6a12ea16e26","6622d0015875c239fcd28bde","
    <div id=""grid-container"">
        <!-- Grid items will be dynamically added here -->
    </div>    ","null","","","","","","","","","","","",""
"","null","html-keyboard-response","207","257426","0.0-11.0-0.39","zKsMJ0W3sI","5decaac46e09cf3792805023","6617fad957f7c6a12ea16e26","6622d0015875c239fcd28bde","fixation cross","null","","","","","","","","","","","",""
"","705","html-keyboard-response","208","258132","0.0-11.0-1.39","zKsMJ0W3sI","5decaac46e09cf3792805023","6617fad957f7c6a12ea16e26","6622d0015875c239fcd28bde","image grid","q","","","","","Phylogenetic_Distractor_Threat_target","2500","ongrid","q","8","Phylogenetic","true","experimental"
"","null","html-keyboard-response","209","258296","0.0-11.0-2.39","zKsMJ0W3sI","5decaac46e09cf3792805023","6617fad957f7c6a12ea16e26","6622d0015875c239fcd28bde","
    <div id=""grid-container"">
        <!-- Grid items will be dynamically added here -->
    </div>    ","null","","","","","","","","","","","",""
"","34638","html-keyboard-response","210","293156","0.0-12.0","zKsMJ0W3sI","5decaac46e09cf3792805023","6617fad957f7c6a12ea16e26","6622d0015875c239fcd28bde","break screen"," ","","","","","","","","","","","",""
"","null","html-keyboard-response","211","295700","0.0-13.0-0.0","zKsMJ0W3sI","5decaac46e09cf3792805023","6617fad957f7c6a12ea16e26","6622d0015875c239fcd28bde","fixation cross","null","","","","","","","","","","","",""
"","919","html-keyboard-response","212","296619","0.0-13.0-1.0","zKsMJ0W3sI","5decaac46e09cf3792805023","6617fad957f7c6a12ea16e26","6622d0015875c239fcd28bde","image grid","p","","","","","Ontogenetic_Distractor_Nonthreat_target","2500","ongrid","p","1","Ontogenetic","true","experimental"
"","null","html-keyboard-response","213","296774","0.0-13.0-2.0","zKsMJ0W3sI","5decaac46e09cf3792805023","6617fad957f7c6a12ea16e26","6622d0015875c239fcd28bde","
    <div id=""grid-container"">
        <!-- Grid items will be dynamically added here -->
    </div>    ","null","","","","","","","","","","","",""
"","null","html-keyboard-response","214","297490","0.0-13.0-0.1","zKsMJ0W3sI","5decaac46e09cf3792805023","6617fad957f7c6a12ea16e26","6622d0015875c239fcd28bde","fixation cross","null","","","","","","","","","","","",""
"","1489","html-keyboard-response","215","298979","0.0-13.0-1.1","zKsMJ0W3sI","5decaac46e09cf3792805023","6617fad957f7c6a12ea16e26","6622d0015875c239fcd28bde","image grid","p","","","","","Ontogenetic_Distractor_Nonthreat_target","2500","ongrid","p","8","Ontogenetic","true","experimental"
"","null","html-keyboard-response","216","299146","0.0-13.0-2.1","zKsMJ0W3sI","5decaac46e09cf3792805023","6617fad957f7c6a12ea16e26","6622d0015875c239fcd28bde","
    <div id=""grid-container"">
        <!-- Grid items will be dynamically added here -->
    </div>    ","null","","","","","","","","","","","",""
"","null","html-keyboard-response","217","299863","0.0-13.0-0.2","zKsMJ0W3sI","5decaac46e09cf3792805023","6617fad957f7c6a12ea16e26","6622d0015875c239fcd28bde","fixation cross","null","","","","","","","","","","","",""
"","723","html-keyboard-response","218","300587","0.0-13.0-1.2","zKsMJ0W3sI","5decaac46e09cf3792805023","6617fad957f7c6a12ea16e26","6622d0015875c239fcd28bde","image grid","q","","","","","Ontogenetic_Distractor_Threat_target","2500","ongrid","q","4","Ontogenetic","true","experimental"
"","null","html-keyboard-response","219","300750","0.0-13.0-2.2","zKsMJ0W3sI","5decaac46e09cf3792805023","6617fad957f7c6a12ea16e26","6622d0015875c239fcd28bde","
    <div id=""grid-container"">
        <!-- Grid items will be dynamically added here -->
    </div>    ","null","","","","","","","","","","","",""
"","null","html-keyboard-response","220","301464","0.0-13.0-0.3","zKsMJ0W3sI","5decaac46e09cf3792805023","6617fad957f7c6a12ea16e26","6622d0015875c239fcd28bde","fixation cross","null","","","","","","","","","","","",""
"","1147","html-keyboard-response","221","302611","0.0-13.0-1.3","zKsMJ0W3sI","5decaac46e09cf3792805023","6617fad957f7c6a12ea16e26","6622d0015875c239fcd28bde","image grid","q","","","","","Ontogenetic_Distractor_Threat_target","2500","ongrid","q","1","Ontogenetic","true","experimental"
"","null","html-keyboard-response","222","302768","0.0-13.0-2.3","zKsMJ0W3sI","5decaac46e09cf3792805023","6617fad957f7c6a12ea16e26","6622d0015875c239fcd28bde","
    <div id=""grid-container"">
        <!-- Grid items will be dynamically added here -->
    </div>    ","null","","","","","","","","","","","",""
"","null","html-keyboard-response","223","303473","0.0-13.0-0.4","zKsMJ0W3sI","5decaac46e09cf3792805023","6617fad957f7c6a12ea16e26","6622d0015875c239fcd28bde","fixation cross","null","","","","","","","","","","","",""
"","875","html-keyboard-response","224","304348","0.0-13.0-1.4","zKsMJ0W3sI","5decaac46e09cf3792805023","6617fad957f7c6a12ea16e26","6622d0015875c239fcd28bde","image grid","q","","","","","Ontogenetic_Distractor_Threat_target","2500","ongrid","q","6","Ontogenetic","true","experimental"
"","null","html-keyboard-response","225","304514","0.0-13.0-2.4","zKsMJ0W3sI","5decaac46e09cf3792805023","6617fad957f7c6a12ea16e26","6622d0015875c239fcd28bde","
    <div id=""grid-container"">
        <!-- Grid items will be dynamically added here -->
    </div>    ","null","","","","","","","","","","","",""
"","null","html-keyboard-response","226","305229","0.0-13.0-0.5","zKsMJ0W3sI","5decaac46e09cf3792805023","6617fad957f7c6a12ea16e26","6622d0015875c239fcd28bde","fixation cross","null","","","","","","","","","","","",""
"","822","html-keyboard-response","227","306051","0.0-13.0-1.5","zKsMJ0W3sI","5decaac46e09cf3792805023","6617fad957f7c6a12ea16e26","6622d0015875c239fcd28bde","image grid","p","","","","","Ontogenetic_Distractor_Nonthreat_target","2500","ongrid","p","7","Ontogenetic","true","experimental"
"","null","html-keyboard-response","228","306207","0.0-13.0-2.5","zKsMJ0W3sI","5decaac46e09cf3792805023","6617fad957f7c6a12ea16e26","6622d0015875c239fcd28bde","
    <div id=""grid-container"">
        <!-- Grid items will be dynamically added here -->
    </div>    ","null","","","","","","","","","","","",""
"","null","html-keyboard-response","229","306927","0.0-13.0-0.6","zKsMJ0W3sI","5decaac46e09cf3792805023","6617fad957f7c6a12ea16e26","6622d0015875c239fcd28bde","fixation cross","null","","","","","","","","","","","",""
"","1563","html-keyboard-response","230","308491","0.0-13.0-1.6","zKsMJ0W3sI","5decaac46e09cf3792805023","6617fad957f7c6a12ea16e26","6622d0015875c239fcd28bde","image grid"," ","","","","","Ontogenetic_Distractor_Nonthreat_target","2500","ongrid","p","7","Ontogenetic","false","experimental"
"","null","html-keyboard-response","231","308646","0.0-13.0-2.6","zKsMJ0W3sI","5decaac46e09cf3792805023","6617fad957f7c6a12ea16e26","6622d0015875c239fcd28bde","
    <div id=""grid-container"">
        <!-- Grid items will be dynamically added here -->
    </div>    ","null","","","","","","","","","","","",""
"","null","html-keyboard-response","232","309349","0.0-13.0-0.7","zKsMJ0W3sI","5decaac46e09cf3792805023","6617fad957f7c6a12ea16e26","6622d0015875c239fcd28bde","fixation cross","null","","","","","","","","","","","",""
"","1390","html-keyboard-response","233","310739","0.0-13.0-1.7","zKsMJ0W3sI","5decaac46e09cf3792805023","6617fad957f7c6a12ea16e26","6622d0015875c239fcd28bde","image grid","p","","","","","Ontogenetic_Distractor_Nonthreat_target","2500","ongrid","p","1","Ontogenetic","true","experimental"
"","null","html-keyboard-response","234","310895","0.0-13.0-2.7","zKsMJ0W3sI","5decaac46e09cf3792805023","6617fad957f7c6a12ea16e26","6622d0015875c239fcd28bde","
    <div id=""grid-container"">
        <!-- Grid items will be dynamically added here -->
    </div>    ","null","","","","","","","","","","","",""
"","null","html-keyboard-response","235","311613","0.0-13.0-0.8","zKsMJ0W3sI","5decaac46e09cf3792805023","6617fad957f7c6a12ea16e26","6622d0015875c239fcd28bde","fixation cross","null","","","","","","","","","","","",""
"","774","html-keyboard-response","236","312388","0.0-13.0-1.8","zKsMJ0W3sI","5decaac46e09cf3792805023","6617fad957f7c6a12ea16e26","6622d0015875c239fcd28bde","image grid","q","","","","","Ontogenetic_Distractor_Threat_target","2500","ongrid","q","1","Ontogenetic","true","experimental"
"","null","html-keyboard-response","237","312543","0.0-13.0-2.8","zKsMJ0W3sI","5decaac46e09cf3792805023","6617fad957f7c6a12ea16e26","6622d0015875c239fcd28bde","
    <div id=""grid-container"">
        <!-- Grid items will be dynamically added here -->
    </div>    ","null","","","","","","","","","","","",""
"","null","html-keyboard-response","238","313257","0.0-13.0-0.9","zKsMJ0W3sI","5decaac46e09cf3792805023","6617fad957f7c6a12ea16e26","6622d0015875c239fcd28bde","fixation cross","null","","","","","","","","","","","",""
"","1530","html-keyboard-response","239","314787","0.0-13.0-1.9","zKsMJ0W3sI","5decaac46e09cf3792805023","6617fad957f7c6a12ea16e26","6622d0015875c239fcd28bde","image grid","p","","","","","Ontogenetic_Distractor_notarget","2500","ongrid"," ","7","Ontogenetic","false","experimental"
"","null","html-keyboard-response","240","314939","0.0-13.0-2.9","zKsMJ0W3sI","5decaac46e09cf3792805023","6617fad957f7c6a12ea16e26","6622d0015875c239fcd28bde","
    <div id=""grid-container"">
        <!-- Grid items will be dynamically added here -->
    </div>    ","null","","","","","","","","","","","",""
"","null","html-keyboard-response","241","315660","0.0-13.0-0.10","zKsMJ0W3sI","5decaac46e09cf3792805023","6617fad957f7c6a12ea16e26","6622d0015875c239fcd28bde","fixation cross","null","","","","","","","","","","","",""
"","1351","html-keyboard-response","242","317011","0.0-13.0-1.10","zKsMJ0W3sI","5decaac46e09cf3792805023","6617fad957f7c6a12ea16e26","6622d0015875c239fcd28bde","image grid","q","","","","","Ontogenetic_Distractor_Threat_target","2500","ongrid","q","2","Ontogenetic","true","experimental"
"","null","html-keyboard-response","243","317173","0.0-13.0-2.10","zKsMJ0W3sI","5decaac46e09cf3792805023","6617fad957f7c6a12ea16e26","6622d0015875c239fcd28bde","
    <div id=""grid-container"">
        <!-- Grid items will be dynamically added here -->
    </div>    ","null","","","","","","","","","","","",""
"","null","html-keyboard-response","244","317877","0.0-13.0-0.11","zKsMJ0W3sI","5decaac46e09cf3792805023","6617fad957f7c6a12ea16e26","6622d0015875c239fcd28bde","fixation cross","null","","","","","","","","","","","",""
"","1382","html-keyboard-response","245","319260","0.0-13.0-1.11","zKsMJ0W3sI","5decaac46e09cf3792805023","6617fad957f7c6a12ea16e26","6622d0015875c239fcd28bde","image grid","p","","","","","Ontogenetic_Distractor_Nonthreat_target","2500","ongrid","p","1","Ontogenetic","true","experimental"
"","null","html-keyboard-response","246","319422","0.0-13.0-2.11","zKsMJ0W3sI","5decaac46e09cf3792805023","6617fad957f7c6a12ea16e26","6622d0015875c239fcd28bde","
    <div id=""grid-container"">
        <!-- Grid items will be dynamically added here -->
    </div>    ","null","","","","","","","","","","","",""
"","null","html-keyboard-response","247","320136","0.0-13.0-0.12","zKsMJ0W3sI","5decaac46e09cf3792805023","6617fad957f7c6a12ea16e26","6622d0015875c239fcd28bde","fixation cross","null","","","","","","","","","","","",""
"","1403","html-keyboard-response","248","321539","0.0-13.0-1.12","zKsMJ0W3sI","5decaac46e09cf3792805023","6617fad957f7c6a12ea16e26","6622d0015875c239fcd28bde","image grid","q","","","","","Ontogenetic_Distractor_Threat_target","2500","ongrid","q","7","Ontogenetic","true","experimental"
"","null","html-keyboard-response","249","321692","0.0-13.0-2.12","zKsMJ0W3sI","5decaac46e09cf3792805023","6617fad957f7c6a12ea16e26","6622d0015875c239fcd28bde","
    <div id=""grid-container"">
        <!-- Grid items will be dynamically added here -->
    </div>    ","null","","","","","","","","","","","",""
"","null","html-keyboard-response","250","322407","0.0-13.0-0.13","zKsMJ0W3sI","5decaac46e09cf3792805023","6617fad957f7c6a12ea16e26","6622d0015875c239fcd28bde","fixation cross","null","","","","","","","","","","","",""
"","1980","html-keyboard-response","251","324387","0.0-13.0-1.13","zKsMJ0W3sI","5decaac46e09cf3792805023","6617fad957f7c6a12ea16e26","6622d0015875c239fcd28bde","image grid","q","","","","","Ontogenetic_Distractor_Threat_target","2500","ongrid","q","8","Ontogenetic","true","experimental"
"","null","html-keyboard-response","252","324544","0.0-13.0-2.13","zKsMJ0W3sI","5decaac46e09cf3792805023","6617fad957f7c6a12ea16e26","6622d0015875c239fcd28bde","
    <div id=""grid-container"">
        <!-- Grid items will be dynamically added here -->
    </div>    ","null","","","","","","","","","","","",""
"","null","html-keyboard-response","253","325259","0.0-13.0-0.14","zKsMJ0W3sI","5decaac46e09cf3792805023","6617fad957f7c6a12ea16e26","6622d0015875c239fcd28bde","fixation cross","null","","","","","","","","","","","",""
"","1817","html-keyboard-response","254","327076","0.0-13.0-1.14","zKsMJ0W3sI","5decaac46e09cf3792805023","6617fad957f7c6a12ea16e26","6622d0015875c239fcd28bde","image grid","p","","","","","Ontogenetic_Distractor_Nonthreat_target","2500","ongrid","p","8","Ontogenetic","true","experimental"
"","null","html-keyboard-response","255","327241","0.0-13.0-2.14","zKsMJ0W3sI","5decaac46e09cf3792805023","6617fad957f7c6a12ea16e26","6622d0015875c239fcd28bde","
    <div id=""grid-container"">
        <!-- Grid items will be dynamically added here -->
    </div>    ","null","","","","","","","","","","","",""
"","null","html-keyboard-response","256","327957","0.0-13.0-0.15","zKsMJ0W3sI","5decaac46e09cf3792805023","6617fad957f7c6a12ea16e26","6622d0015875c239fcd28bde","fixation cross","null","","","","","","","","","","","",""
"","1390","html-keyboard-response","257","329347","0.0-13.0-1.15","zKsMJ0W3sI","5decaac46e09cf3792805023","6617fad957f7c6a12ea16e26","6622d0015875c239fcd28bde","image grid","p","","","","","Ontogenetic_Distractor_Nonthreat_target","2500","ongrid","p","8","Ontogenetic","true","experimental"
"","null","html-keyboard-response","258","329504","0.0-13.0-2.15","zKsMJ0W3sI","5decaac46e09cf3792805023","6617fad957f7c6a12ea16e26","6622d0015875c239fcd28bde","
    <div id=""grid-container"">
        <!-- Grid items will be dynamically added here -->
    </div>    ","null","","","","","","","","","","","",""
"","null","html-keyboard-response","259","330207","0.0-13.0-0.16","zKsMJ0W3sI","5decaac46e09cf3792805023","6617fad957f7c6a12ea16e26","6622d0015875c239fcd28bde","fixation cross","null","","","","","","","","","","","",""
"","1820","html-keyboard-response","260","332027","0.0-13.0-1.16","zKsMJ0W3sI","5decaac46e09cf3792805023","6617fad957f7c6a12ea16e26","6622d0015875c239fcd28bde","image grid","q","","","","","Ontogenetic_Distractor_Threat_target","2500","ongrid","q","8","Ontogenetic","true","experimental"
"","null","html-keyboard-response","261","332194","0.0-13.0-2.16","zKsMJ0W3sI","5decaac46e09cf3792805023","6617fad957f7c6a12ea16e26","6622d0015875c239fcd28bde","
    <div id=""grid-container"">
        <!-- Grid items will be dynamically added here -->
    </div>    ","null","","","","","","","","","","","",""
"","null","html-keyboard-response","262","332910","0.0-13.0-0.17","zKsMJ0W3sI","5decaac46e09cf3792805023","6617fad957f7c6a12ea16e26","6622d0015875c239fcd28bde","fixation cross","null","","","","","","","","","","","",""
"","1836","html-keyboard-response","263","334747","0.0-13.0-1.17","zKsMJ0W3sI","5decaac46e09cf3792805023","6617fad957f7c6a12ea16e26","6622d0015875c239fcd28bde","image grid","q","","","","","Ontogenetic_Distractor_Threat_target","2500","ongrid","q","9","Ontogenetic","true","experimental"
"","null","html-keyboard-response","264","334910","0.0-13.0-2.17","zKsMJ0W3sI","5decaac46e09cf3792805023","6617fad957f7c6a12ea16e26","6622d0015875c239fcd28bde","
    <div id=""grid-container"">
        <!-- Grid items will be dynamically added here -->
    </div>    ","null","","","","","","","","","","","",""
"","null","html-keyboard-response","265","335640","0.0-13.0-0.18","zKsMJ0W3sI","5decaac46e09cf3792805023","6617fad957f7c6a12ea16e26","6622d0015875c239fcd28bde","fixation cross","null","","","","","","","","","","","",""
"","1987","html-keyboard-response","266","337628","0.0-13.0-1.18","zKsMJ0W3sI","5decaac46e09cf3792805023","6617fad957f7c6a12ea16e26","6622d0015875c239fcd28bde","image grid","q","","","","","Ontogenetic_Distractor_Threat_target","2500","ongrid","q","9","Ontogenetic","true","experimental"
"","null","html-keyboard-response","267","337779","0.0-13.0-2.18","zKsMJ0W3sI","5decaac46e09cf3792805023","6617fad957f7c6a12ea16e26","6622d0015875c239fcd28bde","
    <div id=""grid-container"">
        <!-- Grid items will be dynamically added here -->
    </div>    ","null","","","","","","","","","","","",""
"","null","html-keyboard-response","268","338494","0.0-13.0-0.19","zKsMJ0W3sI","5decaac46e09cf3792805023","6617fad957f7c6a12ea16e26","6622d0015875c239fcd28bde","fixation cross","null","","","","","","","","","","","",""
"","1541","html-keyboard-response","269","340036","0.0-13.0-1.19","zKsMJ0W3sI","5decaac46e09cf3792805023","6617fad957f7c6a12ea16e26","6622d0015875c239fcd28bde","image grid","p","","","","","Ontogenetic_Distractor_Nonthreat_target","2500","ongrid","p","7","Ontogenetic","true","experimental"
"","null","html-keyboard-response","270","340199","0.0-13.0-2.19","zKsMJ0W3sI","5decaac46e09cf3792805023","6617fad957f7c6a12ea16e26","6622d0015875c239fcd28bde","
    <div id=""grid-container"">
        <!-- Grid items will be dynamically added here -->
    </div>    ","null","","","","","","","","","","","",""
"","null","html-keyboard-response","271","340903","0.0-13.0-0.20","zKsMJ0W3sI","5decaac46e09cf3792805023","6617fad957f7c6a12ea16e26","6622d0015875c239fcd28bde","fixation cross","null","","","","","","","","","","","",""
"","1659","html-keyboard-response","272","342563","0.0-13.0-1.20","zKsMJ0W3sI","5decaac46e09cf3792805023","6617fad957f7c6a12ea16e26","6622d0015875c239fcd28bde","image grid"," ","","","","","Ontogenetic_Distractor_notarget","2500","ongrid"," ","4","Ontogenetic","true","experimental"
"","null","html-keyboard-response","273","342724","0.0-13.0-2.20","zKsMJ0W3sI","5decaac46e09cf3792805023","6617fad957f7c6a12ea16e26","6622d0015875c239fcd28bde","
    <div id=""grid-container"">
        <!-- Grid items will be dynamically added here -->
    </div>    ","null","","","","","","","","","","","",""
"","null","html-keyboard-response","274","343440","0.0-13.0-0.21","zKsMJ0W3sI","5decaac46e09cf3792805023","6617fad957f7c6a12ea16e26","6622d0015875c239fcd28bde","fixation cross","null","","","","","","","","","","","",""
"","842","html-keyboard-response","275","344283","0.0-13.0-1.21","zKsMJ0W3sI","5decaac46e09cf3792805023","6617fad957f7c6a12ea16e26","6622d0015875c239fcd28bde","image grid","p","","","","","Ontogenetic_Distractor_Nonthreat_target","2500","ongrid","p","5","Ontogenetic","true","experimental"
"","null","html-keyboard-response","276","344436","0.0-13.0-2.21","zKsMJ0W3sI","5decaac46e09cf3792805023","6617fad957f7c6a12ea16e26","6622d0015875c239fcd28bde","
    <div id=""grid-container"">
        <!-- Grid items will be dynamically added here -->
    </div>    ","null","","","","","","","","","","","",""
"","null","html-keyboard-response","277","345152","0.0-13.0-0.22","zKsMJ0W3sI","5decaac46e09cf3792805023","6617fad957f7c6a12ea16e26","6622d0015875c239fcd28bde","fixation cross","null","","","","","","","","","","","",""
"","1915","html-keyboard-response","278","347067","0.0-13.0-1.22","zKsMJ0W3sI","5decaac46e09cf3792805023","6617fad957f7c6a12ea16e26","6622d0015875c239fcd28bde","image grid"," ","","","","","Ontogenetic_Distractor_notarget","2500","ongrid"," ","4","Ontogenetic","true","experimental"
"","null","html-keyboard-response","279","347221","0.0-13.0-2.22","zKsMJ0W3sI","5decaac46e09cf3792805023","6617fad957f7c6a12ea16e26","6622d0015875c239fcd28bde","
    <div id=""grid-container"">
        <!-- Grid items will be dynamically added here -->
    </div>    ","null","","","","","","","","","","","",""
"","null","html-keyboard-response","280","347936","0.0-13.0-0.23","zKsMJ0W3sI","5decaac46e09cf3792805023","6617fad957f7c6a12ea16e26","6622d0015875c239fcd28bde","fixation cross","null","","","","","","","","","","","",""
"","1220","html-keyboard-response","281","349156","0.0-13.0-1.23","zKsMJ0W3sI","5decaac46e09cf3792805023","6617fad957f7c6a12ea16e26","6622d0015875c239fcd28bde","image grid","p","","","","","Ontogenetic_Distractor_Nonthreat_target","2500","ongrid","p","1","Ontogenetic","true","experimental"
"","null","html-keyboard-response","282","349315","0.0-13.0-2.23","zKsMJ0W3sI","5decaac46e09cf3792805023","6617fad957f7c6a12ea16e26","6622d0015875c239fcd28bde","
    <div id=""grid-container"">
        <!-- Grid items will be dynamically added here -->
    </div>    ","null","","","","","","","","","","","",""
"","null","html-keyboard-response","283","350035","0.0-13.0-0.24","zKsMJ0W3sI","5decaac46e09cf3792805023","6617fad957f7c6a12ea16e26","6622d0015875c239fcd28bde","fixation cross","null","","","","","","","","","","","",""
"","1352","html-keyboard-response","284","351387","0.0-13.0-1.24","zKsMJ0W3sI","5decaac46e09cf3792805023","6617fad957f7c6a12ea16e26","6622d0015875c239fcd28bde","image grid","q","","","","","Ontogenetic_Distractor_Threat_target","2500","ongrid","q","1","Ontogenetic","true","experimental"
"","null","html-keyboard-response","285","351543","0.0-13.0-2.24","zKsMJ0W3sI","5decaac46e09cf3792805023","6617fad957f7c6a12ea16e26","6622d0015875c239fcd28bde","
    <div id=""grid-container"">
        <!-- Grid items will be dynamically added here -->
    </div>    ","null","","","","","","","","","","","",""
"","null","html-keyboard-response","286","352255","0.0-13.0-0.25","zKsMJ0W3sI","5decaac46e09cf3792805023","6617fad957f7c6a12ea16e26","6622d0015875c239fcd28bde","fixation cross","null","","","","","","","","","","","",""
"","1628","html-keyboard-response","287","353883","0.0-13.0-1.25","zKsMJ0W3sI","5decaac46e09cf3792805023","6617fad957f7c6a12ea16e26","6622d0015875c239fcd28bde","image grid","p","","","","","Ontogenetic_Distractor_Nonthreat_target","2500","ongrid","p","8","Ontogenetic","true","experimental"
"","null","html-keyboard-response","288","354049","0.0-13.0-2.25","zKsMJ0W3sI","5decaac46e09cf3792805023","6617fad957f7c6a12ea16e26","6622d0015875c239fcd28bde","
    <div id=""grid-container"">
        <!-- Grid items will be dynamically added here -->
    </div>    ","null","","","","","","","","","","","",""
"","null","html-keyboard-response","289","354763","0.0-13.0-0.26","zKsMJ0W3sI","5decaac46e09cf3792805023","6617fad957f7c6a12ea16e26","6622d0015875c239fcd28bde","fixation cross","null","","","","","","","","","","","",""
"","1440","html-keyboard-response","290","356203","0.0-13.0-1.26","zKsMJ0W3sI","5decaac46e09cf3792805023","6617fad957f7c6a12ea16e26","6622d0015875c239fcd28bde","image grid","q","","","","","Ontogenetic_Distractor_Threat_target","2500","ongrid","q","1","Ontogenetic","true","experimental"
"","null","html-keyboard-response","291","356361","0.0-13.0-2.26","zKsMJ0W3sI","5decaac46e09cf3792805023","6617fad957f7c6a12ea16e26","6622d0015875c239fcd28bde","
    <div id=""grid-container"">
        <!-- Grid items will be dynamically added here -->
    </div>    ","null","","","","","","","","","","","",""
"","null","html-keyboard-response","292","357077","0.0-13.0-0.27","zKsMJ0W3sI","5decaac46e09cf3792805023","6617fad957f7c6a12ea16e26","6622d0015875c239fcd28bde","fixation cross","null","","","","","","","","","","","",""
"","958","html-keyboard-response","293","358036","0.0-13.0-1.27","zKsMJ0W3sI","5decaac46e09cf3792805023","6617fad957f7c6a12ea16e26","6622d0015875c239fcd28bde","image grid","p","","","","","Ontogenetic_Distractor_Nonthreat_target","2500","ongrid","p","8","Ontogenetic","true","experimental"
"","null","html-keyboard-response","294","358201","0.0-13.0-2.27","zKsMJ0W3sI","5decaac46e09cf3792805023","6617fad957f7c6a12ea16e26","6622d0015875c239fcd28bde","
    <div id=""grid-container"">
        <!-- Grid items will be dynamically added here -->
    </div>    ","null","","","","","","","","","","","",""
"","null","html-keyboard-response","295","358908","0.0-13.0-0.28","zKsMJ0W3sI","5decaac46e09cf3792805023","6617fad957f7c6a12ea16e26","6622d0015875c239fcd28bde","fixation cross","null","","","","","","","","","","","",""
"","1255","html-keyboard-response","296","360164","0.0-13.0-1.28","zKsMJ0W3sI","5decaac46e09cf3792805023","6617fad957f7c6a12ea16e26","6622d0015875c239fcd28bde","image grid","q","","","","","Ontogenetic_Distractor_Threat_target","2500","ongrid","q","1","Ontogenetic","true","experimental"
"","null","html-keyboard-response","297","360316","0.0-13.0-2.28","zKsMJ0W3sI","5decaac46e09cf3792805023","6617fad957f7c6a12ea16e26","6622d0015875c239fcd28bde","
    <div id=""grid-container"">
        <!-- Grid items will be dynamically added here -->
    </div>    ","null","","","","","","","","","","","",""
"","null","html-keyboard-response","298","361029","0.0-13.0-0.29","zKsMJ0W3sI","5decaac46e09cf3792805023","6617fad957f7c6a12ea16e26","6622d0015875c239fcd28bde","fixation cross","null","","","","","","","","","","","",""
"","2350","html-keyboard-response","299","363379","0.0-13.0-1.29","zKsMJ0W3sI","5decaac46e09cf3792805023","6617fad957f7c6a12ea16e26","6622d0015875c239fcd28bde","image grid","p","","","","","Ontogenetic_Distractor_Nonthreat_target","2500","ongrid","p","7","Ontogenetic","true","experimental"
"","null","html-keyboard-response","300","363542","0.0-13.0-2.29","zKsMJ0W3sI","5decaac46e09cf3792805023","6617fad957f7c6a12ea16e26","6622d0015875c239fcd28bde","
    <div id=""grid-container"">
        <!-- Grid items will be dynamically added here -->
    </div>    ","null","","","","","","","","","","","",""
"","null","html-keyboard-response","301","364245","0.0-13.0-0.30","zKsMJ0W3sI","5decaac46e09cf3792805023","6617fad957f7c6a12ea16e26","6622d0015875c239fcd28bde","fixation cross","null","","","","","","","","","","","",""
"","2405","html-keyboard-response","302","366651","0.0-13.0-1.30","zKsMJ0W3sI","5decaac46e09cf3792805023","6617fad957f7c6a12ea16e26","6622d0015875c239fcd28bde","image grid"," ","","","","","Ontogenetic_Distractor_notarget","2500","ongrid"," ","6","Ontogenetic","true","experimental"
"","null","html-keyboard-response","303","366809","0.0-13.0-2.30","zKsMJ0W3sI","5decaac46e09cf3792805023","6617fad957f7c6a12ea16e26","6622d0015875c239fcd28bde","
    <div id=""grid-container"">
        <!-- Grid items will be dynamically added here -->
    </div>    ","null","","","","","","","","","","","",""
"","null","html-keyboard-response","304","367513","0.0-13.0-0.31","zKsMJ0W3sI","5decaac46e09cf3792805023","6617fad957f7c6a12ea16e26","6622d0015875c239fcd28bde","fixation cross","null","","","","","","","","","","","",""
"","778","html-keyboard-response","305","368291","0.0-13.0-1.31","zKsMJ0W3sI","5decaac46e09cf3792805023","6617fad957f7c6a12ea16e26","6622d0015875c239fcd28bde","image grid","p","","","","","Ontogenetic_Distractor_Nonthreat_target","2500","ongrid","p","4","Ontogenetic","true","experimental"
"","null","html-keyboard-response","306","368444","0.0-13.0-2.31","zKsMJ0W3sI","5decaac46e09cf3792805023","6617fad957f7c6a12ea16e26","6622d0015875c239fcd28bde","
    <div id=""grid-container"">
        <!-- Grid items will be dynamically added here -->
    </div>    ","null","","","","","","","","","","","",""
"","null","html-keyboard-response","307","369160","0.0-13.0-0.32","zKsMJ0W3sI","5decaac46e09cf3792805023","6617fad957f7c6a12ea16e26","6622d0015875c239fcd28bde","fixation cross","null","","","","","","","","","","","",""
"","1036","html-keyboard-response","308","370196","0.0-13.0-1.32","zKsMJ0W3sI","5decaac46e09cf3792805023","6617fad957f7c6a12ea16e26","6622d0015875c239fcd28bde","image grid","q","","","","","Ontogenetic_Distractor_Threat_target","2500","ongrid","q","9","Ontogenetic","true","experimental"
"","null","html-keyboard-response","309","370358","0.0-13.0-2.32","zKsMJ0W3sI","5decaac46e09cf3792805023","6617fad957f7c6a12ea16e26","6622d0015875c239fcd28bde","
    <div id=""grid-container"">
        <!-- Grid items will be dynamically added here -->
    </div>    ","null","","","","","","","","","","","",""
"","null","html-keyboard-response","310","371077","0.0-13.0-0.33","zKsMJ0W3sI","5decaac46e09cf3792805023","6617fad957f7c6a12ea16e26","6622d0015875c239fcd28bde","fixation cross","null","","","","","","","","","","","",""
"","926","html-keyboard-response","311","372003","0.0-13.0-1.33","zKsMJ0W3sI","5decaac46e09cf3792805023","6617fad957f7c6a12ea16e26","6622d0015875c239fcd28bde","image grid","q","","","","","Ontogenetic_Distractor_Threat_target","2500","ongrid","q","5","Ontogenetic","true","experimental"
"","null","html-keyboard-response","312","372168","0.0-13.0-2.33","zKsMJ0W3sI","5decaac46e09cf3792805023","6617fad957f7c6a12ea16e26","6622d0015875c239fcd28bde","
    <div id=""grid-container"">
        <!-- Grid items will be dynamically added here -->
    </div>    ","null","","","","","","","","","","","",""
"","null","html-keyboard-response","313","372883","0.0-13.0-0.34","zKsMJ0W3sI","5decaac46e09cf3792805023","6617fad957f7c6a12ea16e26","6622d0015875c239fcd28bde","fixation cross","null","","","","","","","","","","","",""
"","1711","html-keyboard-response","314","374595","0.0-13.0-1.34","zKsMJ0W3sI","5decaac46e09cf3792805023","6617fad957f7c6a12ea16e26","6622d0015875c239fcd28bde","image grid","p","","","","","Ontogenetic_Distractor_Nonthreat_target","2500","ongrid","p","1","Ontogenetic","true","experimental"
"","null","html-keyboard-response","315","374756","0.0-13.0-2.34","zKsMJ0W3sI","5decaac46e09cf3792805023","6617fad957f7c6a12ea16e26","6622d0015875c239fcd28bde","
    <div id=""grid-container"">
        <!-- Grid items will be dynamically added here -->
    </div>    ","null","","","","","","","","","","","",""
"","null","html-keyboard-response","316","375471","0.0-13.0-0.35","zKsMJ0W3sI","5decaac46e09cf3792805023","6617fad957f7c6a12ea16e26","6622d0015875c239fcd28bde","fixation cross","null","","","","","","","","","","","",""
"","1084","html-keyboard-response","317","376556","0.0-13.0-1.35","zKsMJ0W3sI","5decaac46e09cf3792805023","6617fad957f7c6a12ea16e26","6622d0015875c239fcd28bde","image grid","p","","","","","Ontogenetic_Distractor_Nonthreat_target","2500","ongrid","p","4","Ontogenetic","true","experimental"
"","null","html-keyboard-response","318","376717","0.0-13.0-2.35","zKsMJ0W3sI","5decaac46e09cf3792805023","6617fad957f7c6a12ea16e26","6622d0015875c239fcd28bde","
    <div id=""grid-container"">
        <!-- Grid items will be dynamically added here -->
    </div>    ","null","","","","","","","","","","","",""
"","null","html-keyboard-response","319","377434","0.0-13.0-0.36","zKsMJ0W3sI","5decaac46e09cf3792805023","6617fad957f7c6a12ea16e26","6622d0015875c239fcd28bde","fixation cross","null","","","","","","","","","","","",""
"","897","html-keyboard-response","320","378331","0.0-13.0-1.36","zKsMJ0W3sI","5decaac46e09cf3792805023","6617fad957f7c6a12ea16e26","6622d0015875c239fcd28bde","image grid","q","","","","","Ontogenetic_Distractor_Threat_target","2500","ongrid","q","3","Ontogenetic","true","experimental"
"","null","html-keyboard-response","321","378484","0.0-13.0-2.36","zKsMJ0W3sI","5decaac46e09cf3792805023","6617fad957f7c6a12ea16e26","6622d0015875c239fcd28bde","
    <div id=""grid-container"">
        <!-- Grid items will be dynamically added here -->
    </div>    ","null","","","","","","","","","","","",""
"","null","html-keyboard-response","322","379212","0.0-13.0-0.37","zKsMJ0W3sI","5decaac46e09cf3792805023","6617fad957f7c6a12ea16e26","6622d0015875c239fcd28bde","fixation cross","null","","","","","","","","","","","",""
"","1944","html-keyboard-response","323","381156","0.0-13.0-1.37","zKsMJ0W3sI","5decaac46e09cf3792805023","6617fad957f7c6a12ea16e26","6622d0015875c239fcd28bde","image grid","p","","","","","Ontogenetic_Distractor_Nonthreat_target","2500","ongrid","p","6","Ontogenetic","true","experimental"
"","null","html-keyboard-response","324","381313","0.0-13.0-2.37","zKsMJ0W3sI","5decaac46e09cf3792805023","6617fad957f7c6a12ea16e26","6622d0015875c239fcd28bde","
    <div id=""grid-container"">
        <!-- Grid items will be dynamically added here -->
    </div>    ","null","","","","","","","","","","","",""
"","null","html-keyboard-response","325","382028","0.0-13.0-0.38","zKsMJ0W3sI","5decaac46e09cf3792805023","6617fad957f7c6a12ea16e26","6622d0015875c239fcd28bde","fixation cross","null","","","","","","","","","","","",""
"","1063","html-keyboard-response","326","383091","0.0-13.0-1.38","zKsMJ0W3sI","5decaac46e09cf3792805023","6617fad957f7c6a12ea16e26","6622d0015875c239fcd28bde","image grid","q","","","","","Ontogenetic_Distractor_Threat_target","2500","ongrid","q","3","Ontogenetic","true","experimental"
"","null","html-keyboard-response","327","383257","0.0-13.0-2.38","zKsMJ0W3sI","5decaac46e09cf3792805023","6617fad957f7c6a12ea16e26","6622d0015875c239fcd28bde","
    <div id=""grid-container"">
        <!-- Grid items will be dynamically added here -->
    </div>    ","null","","","","","","","","","","","",""
"","null","html-keyboard-response","328","383973","0.0-13.0-0.39","zKsMJ0W3sI","5decaac46e09cf3792805023","6617fad957f7c6a12ea16e26","6622d0015875c239fcd28bde","fixation cross","null","","","","","","","","","","","",""
"","1597","html-keyboard-response","329","385571","0.0-13.0-1.39","zKsMJ0W3sI","5decaac46e09cf3792805023","6617fad957f7c6a12ea16e26","6622d0015875c239fcd28bde","image grid","q","","","","","Ontogenetic_Distractor_Threat_target","2500","ongrid","q","7","Ontogenetic","true","experimental"
"","null","html-keyboard-response","330","385733","0.0-13.0-2.39","zKsMJ0W3sI","5decaac46e09cf3792805023","6617fad957f7c6a12ea16e26","6622d0015875c239fcd28bde","
    <div id=""grid-container"">
        <!-- Grid items will be dynamically added here -->
    </div>    ","null","","","","","","","","","","","",""
"","75146","html-keyboard-response","331","461084","0.0-14.0","zKsMJ0W3sI","5decaac46e09cf3792805023","6617fad957f7c6a12ea16e26","6622d0015875c239fcd28bde","break screen","p","","","","","","","","","","","",""
"","null","html-keyboard-response","332","463599","0.0-15.0-0.0","zKsMJ0W3sI","5decaac46e09cf3792805023","6617fad957f7c6a12ea16e26","6622d0015875c239fcd28bde","fixation cross","null","","","","","","","","","","","",""
"","788","html-keyboard-response","333","464387","0.0-15.0-1.0","zKsMJ0W3sI","5decaac46e09cf3792805023","6617fad957f7c6a12ea16e26","6622d0015875c239fcd28bde","image grid","q","","","","","Phylogenetic_Distractor_Threat_target","800","ongrid","q","3","Phylogenetic","true","experimental"
"","null","html-keyboard-response","334","464549","0.0-15.0-2.0","zKsMJ0W3sI","5decaac46e09cf3792805023","6617fad957f7c6a12ea16e26","6622d0015875c239fcd28bde","
    <div id=""grid-container"">
        <!-- Grid items will be dynamically added here -->
    </div>    ","null","","","","","","","","","","","",""
"","null","html-keyboard-response","335","465267","0.0-15.0-0.1","zKsMJ0W3sI","5decaac46e09cf3792805023","6617fad957f7c6a12ea16e26","6622d0015875c239fcd28bde","fixation cross","null","","","","","","","","","","","",""
"","616","html-keyboard-response","336","465883","0.0-15.0-1.1","zKsMJ0W3sI","5decaac46e09cf3792805023","6617fad957f7c6a12ea16e26","6622d0015875c239fcd28bde","image grid","q","","","","","Phylogenetic_Distractor_Threat_target","800","ongrid","q","5","Phylogenetic","true","experimental"
"","null","html-keyboard-response","337","466044","0.0-15.0-2.1","zKsMJ0W3sI","5decaac46e09cf3792805023","6617fad957f7c6a12ea16e26","6622d0015875c239fcd28bde","
    <div id=""grid-container"">
        <!-- Grid items will be dynamically added here -->
    </div>    ","null","","","","","","","","","","","",""
"","null","html-keyboard-response","338","466747","0.0-15.0-0.2","zKsMJ0W3sI","5decaac46e09cf3792805023","6617fad957f7c6a12ea16e26","6622d0015875c239fcd28bde","fixation cross","null","","","","","","","","","","","",""
"","null","html-keyboard-response","339","467558","0.0-15.0-1.2","zKsMJ0W3sI","5decaac46e09cf3792805023","6617fad957f7c6a12ea16e26","6622d0015875c239fcd28bde","
        <div id=""grid-container"">
        <!-- Grid items will be dynamically added here -->
    </div>    ","null","","","","","","","","","","","",""
"","1877","html-keyboard-response","340","468635","0.0-15.0-2.2","zKsMJ0W3sI","5decaac46e09cf3792805023","6617fad957f7c6a12ea16e26","6622d0015875c239fcd28bde","mask grid"," ","","","","","Phylogenetic_Distractor_notarget","800","onmask"," ","3","Phylogenetic","true","experimental"
"","null","html-keyboard-response","341","469348","0.0-15.0-0.3","zKsMJ0W3sI","5decaac46e09cf3792805023","6617fad957f7c6a12ea16e26","6622d0015875c239fcd28bde","fixation cross","null","","","","","","","","","","","",""
"","766","html-keyboard-response","342","470115","0.0-15.0-1.3","zKsMJ0W3sI","5decaac46e09cf3792805023","6617fad957f7c6a12ea16e26","6622d0015875c239fcd28bde","image grid"," ","","","","","Phylogenetic_Distractor_notarget","800","ongrid"," ","4","Phylogenetic","true","experimental"
"","null","html-keyboard-response","343","470281","0.0-15.0-2.3","zKsMJ0W3sI","5decaac46e09cf3792805023","6617fad957f7c6a12ea16e26","6622d0015875c239fcd28bde","
    <div id=""grid-container"">
        <!-- Grid items will be dynamically added here -->
    </div>    ","null","","","","","","","","","","","",""
"","null","html-keyboard-response","344","470997","0.0-15.0-0.4","zKsMJ0W3sI","5decaac46e09cf3792805023","6617fad957f7c6a12ea16e26","6622d0015875c239fcd28bde","fixation cross","null","","","","","","","","","","","",""
"","null","html-keyboard-response","345","471812","0.0-15.0-1.4","zKsMJ0W3sI","5decaac46e09cf3792805023","6617fad957f7c6a12ea16e26","6622d0015875c239fcd28bde","
        <div id=""grid-container"">
        <!-- Grid items will be dynamically added here -->
    </div>    ","null","","","","","","","","","","","",""
"","812","html-keyboard-response","346","471825","0.0-15.0-2.4","zKsMJ0W3sI","5decaac46e09cf3792805023","6617fad957f7c6a12ea16e26","6622d0015875c239fcd28bde","mask grid"," ","","","","","Phylogenetic_Distractor_Nonthreat_target","800","onmask","p","7","Phylogenetic","false","experimental"
"","null","html-keyboard-response","347","472544","0.0-15.0-0.5","zKsMJ0W3sI","5decaac46e09cf3792805023","6617fad957f7c6a12ea16e26","6622d0015875c239fcd28bde","fixation cross","null","","","","","","","","","","","",""
"","null","html-keyboard-response","348","473357","0.0-15.0-1.5","zKsMJ0W3sI","5decaac46e09cf3792805023","6617fad957f7c6a12ea16e26","6622d0015875c239fcd28bde","
        <div id=""grid-container"">
        <!-- Grid items will be dynamically added here -->
    </div>    ","null","","","","","","","","","","","",""
"","862","html-keyboard-response","349","473419","0.0-15.0-2.5","zKsMJ0W3sI","5decaac46e09cf3792805023","6617fad957f7c6a12ea16e26","6622d0015875c239fcd28bde","mask grid","p","","","","","Phylogenetic_Distractor_Nonthreat_target","800","onmask","p","3","Phylogenetic","true","experimental"
"","null","html-keyboard-response","350","474136","0.0-15.0-0.6","zKsMJ0W3sI","5decaac46e09cf3792805023","6617fad957f7c6a12ea16e26","6622d0015875c239fcd28bde","fixation cross","null","","","","","","","","","","","",""
"","null","html-keyboard-response","351","474944","0.0-15.0-1.6","zKsMJ0W3sI","5decaac46e09cf3792805023","6617fad957f7c6a12ea16e26","6622d0015875c239fcd28bde","
        <div id=""grid-container"">
        <!-- Grid items will be dynamically added here -->
    </div>    ","null","","","","","","","","","","","",""
"","1002","html-keyboard-response","352","475147","0.0-15.0-2.6","zKsMJ0W3sI","5decaac46e09cf3792805023","6617fad957f7c6a12ea16e26","6622d0015875c239fcd28bde","mask grid","p","","","","","Phylogenetic_Distractor_Threat_target","800","onmask","q","7","Phylogenetic","false","experimental"
"","null","html-keyboard-response","353","475850","0.0-15.0-0.7","zKsMJ0W3sI","5decaac46e09cf3792805023","6617fad957f7c6a12ea16e26","6622d0015875c239fcd28bde","fixation cross","null","","","","","","","","","","","",""
"","null","html-keyboard-response","354","476662","0.0-15.0-1.7","zKsMJ0W3sI","5decaac46e09cf3792805023","6617fad957f7c6a12ea16e26","6622d0015875c239fcd28bde","
        <div id=""grid-container"">
        <!-- Grid items will be dynamically added here -->
    </div>    ","null","","","","","","","","","","","",""
"","814","html-keyboard-response","355","476677","0.0-15.0-2.7","zKsMJ0W3sI","5decaac46e09cf3792805023","6617fad957f7c6a12ea16e26","6622d0015875c239fcd28bde","mask grid","p","","","","","Phylogenetic_Distractor_Nonthreat_target","800","onmask","p","6","Phylogenetic","true","experimental"
"","null","html-keyboard-response","356","477394","0.0-15.0-0.8","zKsMJ0W3sI","5decaac46e09cf3792805023","6617fad957f7c6a12ea16e26","6622d0015875c239fcd28bde","fixation cross","null","","","","","","","","","","","",""
"","697","html-keyboard-response","357","478091","0.0-15.0-1.8","zKsMJ0W3sI","5decaac46e09cf3792805023","6617fad957f7c6a12ea16e26","6622d0015875c239fcd28bde","image grid","p","","","","","Phylogenetic_Distractor_Nonthreat_target","800","ongrid","p","6","Phylogenetic","true","experimental"
"","null","html-keyboard-response","358","478254","0.0-15.0-2.8","zKsMJ0W3sI","5decaac46e09cf3792805023","6617fad957f7c6a12ea16e26","6622d0015875c239fcd28bde","
    <div id=""grid-container"">
        <!-- Grid items will be dynamically added here -->
    </div>    ","null","","","","","","","","","","","",""
"","null","html-keyboard-response","359","478970","0.0-15.0-0.9","zKsMJ0W3sI","5decaac46e09cf3792805023","6617fad957f7c6a12ea16e26","6622d0015875c239fcd28bde","fixation cross","null","","","","","","","","","","","",""
"","null","html-keyboard-response","360","479778","0.0-15.0-1.9","zKsMJ0W3sI","5decaac46e09cf3792805023","6617fad957f7c6a12ea16e26","6622d0015875c239fcd28bde","
        <div id=""grid-container"">
        <!-- Grid items will be dynamically added here -->
    </div>    ","null","","","","","","","","","","","",""
"","1377","html-keyboard-response","361","480355","0.0-15.0-2.9","zKsMJ0W3sI","5decaac46e09cf3792805023","6617fad957f7c6a12ea16e26","6622d0015875c239fcd28bde","mask grid"," ","","","","","Phylogenetic_Distractor_Nonthreat_target","800","onmask","p","4","Phylogenetic","false","experimental"
"","null","html-keyboard-response","362","481070","0.0-15.0-0.10","zKsMJ0W3sI","5decaac46e09cf3792805023","6617fad957f7c6a12ea16e26","6622d0015875c239fcd28bde","fixation cross","null","","","","","","","","","","","",""
"","637","html-keyboard-response","363","481707","0.0-15.0-1.10","zKsMJ0W3sI","5decaac46e09cf3792805023","6617fad957f7c6a12ea16e26","6622d0015875c239fcd28bde","image grid","p","","","","","Phylogenetic_Distractor_Nonthreat_target","800","ongrid","p","5","Phylogenetic","true","experimental"
"","null","html-keyboard-response","364","481864","0.0-15.0-2.10","zKsMJ0W3sI","5decaac46e09cf3792805023","6617fad957f7c6a12ea16e26","6622d0015875c239fcd28bde","
    <div id=""grid-container"">
        <!-- Grid items will be dynamically added here -->
    </div>    ","null","","","","","","","","","","","",""
"","null","html-keyboard-response","365","482580","0.0-15.0-0.11","zKsMJ0W3sI","5decaac46e09cf3792805023","6617fad957f7c6a12ea16e26","6622d0015875c239fcd28bde","fixation cross","null","","","","","","","","","","","",""
"","null","html-keyboard-response","366","483392","0.0-15.0-1.11","zKsMJ0W3sI","5decaac46e09cf3792805023","6617fad957f7c6a12ea16e26","6622d0015875c239fcd28bde","
        <div id=""grid-container"">
        <!-- Grid items will be dynamically added here -->
    </div>    ","null","","","","","","","","","","","",""
"","827","html-keyboard-response","367","483420","0.0-15.0-2.11","zKsMJ0W3sI","5decaac46e09cf3792805023","6617fad957f7c6a12ea16e26","6622d0015875c239fcd28bde","mask grid","p","","","","","Phylogenetic_Distractor_Nonthreat_target","800","onmask","p","3","Phylogenetic","true","experimental"
"","null","html-keyboard-response","368","484137","0.0-15.0-0.12","zKsMJ0W3sI","5decaac46e09cf3792805023","6617fad957f7c6a12ea16e26","6622d0015875c239fcd28bde","fixation cross","null","","","","","","","","","","","",""
"","761","html-keyboard-response","369","484899","0.0-15.0-1.12","zKsMJ0W3sI","5decaac46e09cf3792805023","6617fad957f7c6a12ea16e26","6622d0015875c239fcd28bde","image grid","q","","","","","Phylogenetic_Distractor_Threat_target","800","ongrid","q","6","Phylogenetic","true","experimental"
"","null","html-keyboard-response","370","485055","0.0-15.0-2.12","zKsMJ0W3sI","5decaac46e09cf3792805023","6617fad957f7c6a12ea16e26","6622d0015875c239fcd28bde","
