"success","rt","trial_type","trial_index","time_elapsed","internal_node_id","unique_identifier","subject_id","study_id","session_id","stimulus","response","timeout","failed_images","failed_audio","failed_video","task","time_manipulation","respondedwhen","correctresponse","targetimagelocation","blocktype","correct","roundtype"
"true","2933","fullscreen","0","3938","0.0-0.0","lx4ndEBa7j","6500c32aeecc75706e1bcaf1","6617fad957f7c6a12ea16e26","6622ce61afefd392cfa1f4bb","","","","","","","","","","","","","",""
"","37779","html-keyboard-response","1","41721","0.0-1.0","lx4ndEBa7j","6500c32aeecc75706e1bcaf1","6617fad957f7c6a12ea16e26","6622ce61afefd392cfa1f4bb","instruction screen 0","m","","","","","","","","","","","",""
"true","","preload","2","48609","0.0-2.0","lx4ndEBa7j","6500c32aeecc75706e1bcaf1","6617fad957f7c6a12ea16e26","6622ce61afefd392cfa1f4bb","","","false","[]","[]","[]","","","","","","","",""
"","24912","html-keyboard-response","3","73523","0.0-3.0","lx4ndEBa7j","6500c32aeecc75706e1bcaf1","6617fad957f7c6a12ea16e26","6622ce61afefd392cfa1f4bb","instruction screen 1","l","","","","","","","","","","","",""
"","21583","html-keyboard-response","4","95138","0.0-4.0","lx4ndEBa7j","6500c32aeecc75706e1bcaf1","6617fad957f7c6a12ea16e26","6622ce61afefd392cfa1f4bb","instruction screen 2","q","","","","","","","","","","","",""
"","9080","html-keyboard-response","5","104268","0.0-5.0","lx4ndEBa7j","6500c32aeecc75706e1bcaf1","6617fad957f7c6a12ea16e26","6622ce61afefd392cfa1f4bb","instruction screen 3","p","","","","","","","","","","","",""
"","13043","html-keyboard-response","6","117354","0.0-6.0","lx4ndEBa7j","6500c32aeecc75706e1bcaf1","6617fad957f7c6a12ea16e26","6622ce61afefd392cfa1f4bb","instruction screen 4"," ","","","","","","","","","","","",""
"","19044","html-keyboard-response","7","136429","0.0-7.0","lx4ndEBa7j","6500c32aeecc75706e1bcaf1","6617fad957f7c6a12ea16e26","6622ce61afefd392cfa1f4bb","instruction screen 5"," ","","","","","","","","","","","",""
"","null","html-keyboard-response","8","136987","0.0-8.0","lx4ndEBa7j","6500c32aeecc75706e1bcaf1","6617fad957f7c6a12ea16e26","6622ce61afefd392cfa1f4bb","fixation cross","null","","","","","","","","","","","",""
"","null","html-keyboard-response","9","137488","0.0-9.0-0.0","lx4ndEBa7j","6500c32aeecc75706e1bcaf1","6617fad957f7c6a12ea16e26","6622ce61afefd392cfa1f4bb","fixation cross","null","","","","","","","","","","","",""
"","1582","html-keyboard-response","10","139071","0.0-9.0-1.0","lx4ndEBa7j","6500c32aeecc75706e1bcaf1","6617fad957f7c6a12ea16e26","6622ce61afefd392cfa1f4bb","image grid","q","","","","","Ontogenetic_Distractor_Threat_target","3000","ongrid","q","6","Ontogenetic","true","practice"
"","null","html-keyboard-response","11","139231","0.0-9.0-2.0","lx4ndEBa7j","6500c32aeecc75706e1bcaf1","6617fad957f7c6a12ea16e26","6622ce61afefd392cfa1f4bb","
    <div id=""grid-container"">
        <!-- Grid items will be dynamically added here -->
    </div>    ","null","","","","","","","","","","","",""
"","null","html-keyboard-response","12","140448","0.0-9.0-3.0","lx4ndEBa7j","6500c32aeecc75706e1bcaf1","6617fad957f7c6a12ea16e26","6622ce61afefd392cfa1f4bb","feedback screen","null","","","","","","","","","","","",""
"","null","html-keyboard-response","13","140964","0.0-9.0-0.1","lx4ndEBa7j","6500c32aeecc75706e1bcaf1","6617fad957f7c6a12ea16e26","6622ce61afefd392cfa1f4bb","fixation cross","null","","","","","","","","","","","",""
"","1594","html-keyboard-response","14","142558","0.0-9.0-1.1","lx4ndEBa7j","6500c32aeecc75706e1bcaf1","6617fad957f7c6a12ea16e26","6622ce61afefd392cfa1f4bb","image grid"," ","","","","","Ontogenetic_Distractor_notarget","2900","ongrid"," ","9","Ontogenetic","true","practice"
"","null","html-keyboard-response","15","142712","0.0-9.0-2.1","lx4ndEBa7j","6500c32aeecc75706e1bcaf1","6617fad957f7c6a12ea16e26","6622ce61afefd392cfa1f4bb","
    <div id=""grid-container"">
        <!-- Grid items will be dynamically added here -->
    </div>    ","null","","","","","","","","","","","",""
"","null","html-keyboard-response","16","143921","0.0-9.0-3.1","lx4ndEBa7j","6500c32aeecc75706e1bcaf1","6617fad957f7c6a12ea16e26","6622ce61afefd392cfa1f4bb","feedback screen","null","","","","","","","","","","","",""
"","128","html-keyboard-response","17","144427","0.0-9.0-0.2","lx4ndEBa7j","6500c32aeecc75706e1bcaf1","6617fad957f7c6a12ea16e26","6622ce61afefd392cfa1f4bb","fixation cross"," ","","","","","","","","","","","",""
"","null","html-keyboard-response","18","147240","0.0-9.0-1.2","lx4ndEBa7j","6500c32aeecc75706e1bcaf1","6617fad957f7c6a12ea16e26","6622ce61afefd392cfa1f4bb","
        <div id=""grid-container"">
        <!-- Grid items will be dynamically added here -->
    </div>    ","null","","","","","","","","","","","",""
"","6987","html-keyboard-response","19","151429","0.0-9.0-2.2","lx4ndEBa7j","6500c32aeecc75706e1bcaf1","6617fad957f7c6a12ea16e26","6622ce61afefd392cfa1f4bb","mask grid","q","","","","","Phylogenetic_Distractor_Threat_target","2800","onmask","q","2","Ontogenetic","true","practice"
"","null","html-keyboard-response","20","152640","0.0-9.0-3.2","lx4ndEBa7j","6500c32aeecc75706e1bcaf1","6617fad957f7c6a12ea16e26","6622ce61afefd392cfa1f4bb","feedback screen","null","","","","","","","","","","","",""
"","null","html-keyboard-response","21","153152","0.0-9.0-0.3","lx4ndEBa7j","6500c32aeecc75706e1bcaf1","6617fad957f7c6a12ea16e26","6622ce61afefd392cfa1f4bb","fixation cross","null","","","","","","","","","","","",""
"","2069","html-keyboard-response","22","155222","0.0-9.0-1.3","lx4ndEBa7j","6500c32aeecc75706e1bcaf1","6617fad957f7c6a12ea16e26","6622ce61afefd392cfa1f4bb","image grid","p","","","","","Ontogenetic_Distractor_Nonthreat_target","2700","ongrid","p","9","Ontogenetic","true","practice"
"","null","html-keyboard-response","23","155380","0.0-9.0-2.3","lx4ndEBa7j","6500c32aeecc75706e1bcaf1","6617fad957f7c6a12ea16e26","6622ce61afefd392cfa1f4bb","
    <div id=""grid-container"">
        <!-- Grid items will be dynamically added here -->
    </div>    ","null","","","","","","","","","","","",""
"","null","html-keyboard-response","24","156602","0.0-9.0-3.3","lx4ndEBa7j","6500c32aeecc75706e1bcaf1","6617fad957f7c6a12ea16e26","6622ce61afefd392cfa1f4bb","feedback screen","null","","","","","","","","","","","",""
"","null","html-keyboard-response","25","157111","0.0-9.0-0.4","lx4ndEBa7j","6500c32aeecc75706e1bcaf1","6617fad957f7c6a12ea16e26","6622ce61afefd392cfa1f4bb","fixation cross","null","","","","","","","","","","","",""
"","1554","html-keyboard-response","26","158666","0.0-9.0-1.4","lx4ndEBa7j","6500c32aeecc75706e1bcaf1","6617fad957f7c6a12ea16e26","6622ce61afefd392cfa1f4bb","image grid","q","","","","","Phylogenetic_Distractor_Threat_target","2600","ongrid","q","3","Ontogenetic","true","practice"
"","null","html-keyboard-response","27","158825","0.0-9.0-2.4","lx4ndEBa7j","6500c32aeecc75706e1bcaf1","6617fad957f7c6a12ea16e26","6622ce61afefd392cfa1f4bb","
    <div id=""grid-container"">
        <!-- Grid items will be dynamically added here -->
    </div>    ","null","","","","","","","","","","","",""
"","null","html-keyboard-response","28","160033","0.0-9.0-3.4","lx4ndEBa7j","6500c32aeecc75706e1bcaf1","6617fad957f7c6a12ea16e26","6622ce61afefd392cfa1f4bb","feedback screen","null","","","","","","","","","","","",""
"","null","html-keyboard-response","29","160543","0.0-9.0-0.5","lx4ndEBa7j","6500c32aeecc75706e1bcaf1","6617fad957f7c6a12ea16e26","6622ce61afefd392cfa1f4bb","fixation cross","null","","","","","","","","","","","",""
"","null","html-keyboard-response","30","163052","0.0-9.0-1.5","lx4ndEBa7j","6500c32aeecc75706e1bcaf1","6617fad957f7c6a12ea16e26","6622ce61afefd392cfa1f4bb","
        <div id=""grid-container"">
        <!-- Grid items will be dynamically added here -->
    </div>    ","null","","","","","","","","","","","",""
"","2863","html-keyboard-response","31","163416","0.0-9.0-2.5","lx4ndEBa7j","6500c32aeecc75706e1bcaf1","6617fad957f7c6a12ea16e26","6622ce61afefd392cfa1f4bb","mask grid"," ","","","","","Phylogenetic_Distractor_notarget","2500","onmask"," ","3","Ontogenetic","true","practice"
"","null","html-keyboard-response","32","164625","0.0-9.0-3.5","lx4ndEBa7j","6500c32aeecc75706e1bcaf1","6617fad957f7c6a12ea16e26","6622ce61afefd392cfa1f4bb","feedback screen","null","","","","","","","","","","","",""
"","null","html-keyboard-response","33","165137","0.0-9.0-0.6","lx4ndEBa7j","6500c32aeecc75706e1bcaf1","6617fad957f7c6a12ea16e26","6622ce61afefd392cfa1f4bb","fixation cross","null","","","","","","","","","","","",""
"","null","html-keyboard-response","34","167551","0.0-9.0-1.6","lx4ndEBa7j","6500c32aeecc75706e1bcaf1","6617fad957f7c6a12ea16e26","6622ce61afefd392cfa1f4bb","
        <div id=""grid-container"">
        <!-- Grid items will be dynamically added here -->
    </div>    ","null","","","","","","","","","","","",""
"","2620","html-keyboard-response","35","167772","0.0-9.0-2.6","lx4ndEBa7j","6500c32aeecc75706e1bcaf1","6617fad957f7c6a12ea16e26","6622ce61afefd392cfa1f4bb","mask grid"," ","","","","","Ontogenetic_Distractor_notarget","2400","onmask"," ","9","Ontogenetic","true","practice"
"","null","html-keyboard-response","36","168992","0.0-9.0-3.6","lx4ndEBa7j","6500c32aeecc75706e1bcaf1","6617fad957f7c6a12ea16e26","6622ce61afefd392cfa1f4bb","feedback screen","null","","","","","","","","","","","",""
"","null","html-keyboard-response","37","169498","0.0-9.0-0.7","lx4ndEBa7j","6500c32aeecc75706e1bcaf1","6617fad957f7c6a12ea16e26","6622ce61afefd392cfa1f4bb","fixation cross","null","","","","","","","","","","","",""
"","1682","html-keyboard-response","38","171181","0.0-9.0-1.7","lx4ndEBa7j","6500c32aeecc75706e1bcaf1","6617fad957f7c6a12ea16e26","6622ce61afefd392cfa1f4bb","image grid","p","","","","","Phylogenetic_Distractor_Nonthreat_target","2300","ongrid","p","8","Ontogenetic","true","practice"
"","null","html-keyboard-response","39","171344","0.0-9.0-2.7","lx4ndEBa7j","6500c32aeecc75706e1bcaf1","6617fad957f7c6a12ea16e26","6622ce61afefd392cfa1f4bb","
    <div id=""grid-container"">
        <!-- Grid items will be dynamically added here -->
    </div>    ","null","","","","","","","","","","","",""
"","null","html-keyboard-response","40","172552","0.0-9.0-3.7","lx4ndEBa7j","6500c32aeecc75706e1bcaf1","6617fad957f7c6a12ea16e26","6622ce61afefd392cfa1f4bb","feedback screen","null","","","","","","","","","","","",""
"","null","html-keyboard-response","41","173061","0.0-9.0-0.8","lx4ndEBa7j","6500c32aeecc75706e1bcaf1","6617fad957f7c6a12ea16e26","6622ce61afefd392cfa1f4bb","fixation cross","null","","","","","","","","","","","",""
"","1113","html-keyboard-response","42","174174","0.0-9.0-1.8","lx4ndEBa7j","6500c32aeecc75706e1bcaf1","6617fad957f7c6a12ea16e26","6622ce61afefd392cfa1f4bb","image grid","p","","","","","Ontogenetic_Distractor_Nonthreat_target","2200","ongrid","p","3","Ontogenetic","true","practice"
"","null","html-keyboard-response","43","174339","0.0-9.0-2.8","lx4ndEBa7j","6500c32aeecc75706e1bcaf1","6617fad957f7c6a12ea16e26","6622ce61afefd392cfa1f4bb","
    <div id=""grid-container"">
        <!-- Grid items will be dynamically added here -->
    </div>    ","null","","","","","","","","","","","",""
"","null","html-keyboard-response","44","175548","0.0-9.0-3.8","lx4ndEBa7j","6500c32aeecc75706e1bcaf1","6617fad957f7c6a12ea16e26","6622ce61afefd392cfa1f4bb","feedback screen","null","","","","","","","","","","","",""
"","null","html-keyboard-response","45","176058","0.0-9.0-0.9","lx4ndEBa7j","6500c32aeecc75706e1bcaf1","6617fad957f7c6a12ea16e26","6622ce61afefd392cfa1f4bb","fixation cross","null","","","","","","","","","","","",""
"","1849","html-keyboard-response","46","177908","0.0-9.0-1.9","lx4ndEBa7j","6500c32aeecc75706e1bcaf1","6617fad957f7c6a12ea16e26","6622ce61afefd392cfa1f4bb","image grid"," ","","","","","Phylogenetic_Distractor_notarget","2100","ongrid"," ","9","Ontogenetic","true","practice"
"","null","html-keyboard-response","47","178071","0.0-9.0-2.9","lx4ndEBa7j","6500c32aeecc75706e1bcaf1","6617fad957f7c6a12ea16e26","6622ce61afefd392cfa1f4bb","
    <div id=""grid-container"">
        <!-- Grid items will be dynamically added here -->
    </div>    ","null","","","","","","","","","","","",""
"","null","html-keyboard-response","48","179275","0.0-9.0-3.9","lx4ndEBa7j","6500c32aeecc75706e1bcaf1","6617fad957f7c6a12ea16e26","6622ce61afefd392cfa1f4bb","feedback screen","null","","","","","","","","","","","",""
"","null","html-keyboard-response","49","179785","0.0-9.0-0.10","lx4ndEBa7j","6500c32aeecc75706e1bcaf1","6617fad957f7c6a12ea16e26","6622ce61afefd392cfa1f4bb","fixation cross","null","","","","","","","","","","","",""
"","1152","html-keyboard-response","50","180938","0.0-9.0-1.10","lx4ndEBa7j","6500c32aeecc75706e1bcaf1","6617fad957f7c6a12ea16e26","6622ce61afefd392cfa1f4bb","image grid","p","","","","","Ontogenetic_Distractor_Nonthreat_target","2000","ongrid","p","9","Ontogenetic","true","practice"
"","null","html-keyboard-response","51","181099","0.0-9.0-2.10","lx4ndEBa7j","6500c32aeecc75706e1bcaf1","6617fad957f7c6a12ea16e26","6622ce61afefd392cfa1f4bb","
    <div id=""grid-container"">
        <!-- Grid items will be dynamically added here -->
    </div>    ","null","","","","","","","","","","","",""
"","null","html-keyboard-response","52","182305","0.0-9.0-3.10","lx4ndEBa7j","6500c32aeecc75706e1bcaf1","6617fad957f7c6a12ea16e26","6622ce61afefd392cfa1f4bb","feedback screen","null","","","","","","","","","","","",""
"","null","html-keyboard-response","53","182817","0.0-9.0-0.11","lx4ndEBa7j","6500c32aeecc75706e1bcaf1","6617fad957f7c6a12ea16e26","6622ce61afefd392cfa1f4bb","fixation cross","null","","","","","","","","","","","",""
"","null","html-keyboard-response","54","184730","0.0-9.0-1.11","lx4ndEBa7j","6500c32aeecc75706e1bcaf1","6617fad957f7c6a12ea16e26","6622ce61afefd392cfa1f4bb","
        <div id=""grid-container"">
        <!-- Grid items will be dynamically added here -->
    </div>    ","null","","","","","","","","","","","",""
"","2059","html-keyboard-response","55","184889","0.0-9.0-2.11","lx4ndEBa7j","6500c32aeecc75706e1bcaf1","6617fad957f7c6a12ea16e26","6622ce61afefd392cfa1f4bb","mask grid","q","","","","","Ontogenetic_Distractor_Threat_target","1900","onmask","q","2","Ontogenetic","true","practice"
"","null","html-keyboard-response","56","186103","0.0-9.0-3.11","lx4ndEBa7j","6500c32aeecc75706e1bcaf1","6617fad957f7c6a12ea16e26","6622ce61afefd392cfa1f4bb","feedback screen","null","","","","","","","","","","","",""
"","null","html-keyboard-response","57","186612","0.0-9.0-0.12","lx4ndEBa7j","6500c32aeecc75706e1bcaf1","6617fad957f7c6a12ea16e26","6622ce61afefd392cfa1f4bb","fixation cross","null","","","","","","","","","","","",""
"","null","html-keyboard-response","58","188415","0.0-9.0-1.12","lx4ndEBa7j","6500c32aeecc75706e1bcaf1","6617fad957f7c6a12ea16e26","6622ce61afefd392cfa1f4bb","
        <div id=""grid-container"">
        <!-- Grid items will be dynamically added here -->
    </div>    ","null","","","","","","","","","","","",""
"","2510","html-keyboard-response","59","189127","0.0-9.0-2.12","lx4ndEBa7j","6500c32aeecc75706e1bcaf1","6617fad957f7c6a12ea16e26","6622ce61afefd392cfa1f4bb","mask grid","p","","","","","Phylogenetic_Distractor_Nonthreat_target","1800","onmask","p","9","Ontogenetic","true","practice"
"","null","html-keyboard-response","60","190349","0.0-9.0-3.12","lx4ndEBa7j","6500c32aeecc75706e1bcaf1","6617fad957f7c6a12ea16e26","6622ce61afefd392cfa1f4bb","feedback screen","null","","","","","","","","","","","",""
"","null","html-keyboard-response","61","190857","0.0-9.0-0.13","lx4ndEBa7j","6500c32aeecc75706e1bcaf1","6617fad957f7c6a12ea16e26","6622ce61afefd392cfa1f4bb","fixation cross","null","","","","","","","","","","","",""
"","1172","html-keyboard-response","62","192029","0.0-9.0-1.13","lx4ndEBa7j","6500c32aeecc75706e1bcaf1","6617fad957f7c6a12ea16e26","6622ce61afefd392cfa1f4bb","image grid","q","","","","","Phylogenetic_Distractor_Threat_target","1700","ongrid","q","1","Ontogenetic","true","practice"
"","null","html-keyboard-response","63","192187","0.0-9.0-2.13","lx4ndEBa7j","6500c32aeecc75706e1bcaf1","6617fad957f7c6a12ea16e26","6622ce61afefd392cfa1f4bb","
    <div id=""grid-container"">
        <!-- Grid items will be dynamically added here -->
    </div>    ","null","","","","","","","","","","","",""
"","null","html-keyboard-response","64","193392","0.0-9.0-3.13","lx4ndEBa7j","6500c32aeecc75706e1bcaf1","6617fad957f7c6a12ea16e26","6622ce61afefd392cfa1f4bb","feedback screen","null","","","","","","","","","","","",""
"","null","html-keyboard-response","65","193903","0.0-9.0-0.14","lx4ndEBa7j","6500c32aeecc75706e1bcaf1","6617fad957f7c6a12ea16e26","6622ce61afefd392cfa1f4bb","fixation cross","null","","","","","","","","","","","",""
"","null","html-keyboard-response","66","195514","0.0-9.0-1.14","lx4ndEBa7j","6500c32aeecc75706e1bcaf1","6617fad957f7c6a12ea16e26","6622ce61afefd392cfa1f4bb","
        <div id=""grid-container"">
        <!-- Grid items will be dynamically added here -->
    </div>    ","null","","","","","","","","","","","",""
"","2245","html-keyboard-response","67","196160","0.0-9.0-2.14","lx4ndEBa7j","6500c32aeecc75706e1bcaf1","6617fad957f7c6a12ea16e26","6622ce61afefd392cfa1f4bb","mask grid","p","","","","","Phylogenetic_Distractor_Nonthreat_target","1600","onmask","p","9","Ontogenetic","true","practice"
"","null","html-keyboard-response","68","197380","0.0-9.0-3.14","lx4ndEBa7j","6500c32aeecc75706e1bcaf1","6617fad957f7c6a12ea16e26","6622ce61afefd392cfa1f4bb","feedback screen","null","","","","","","","","","","","",""
"","null","html-keyboard-response","69","197893","0.0-9.0-0.15","lx4ndEBa7j","6500c32aeecc75706e1bcaf1","6617fad957f7c6a12ea16e26","6622ce61afefd392cfa1f4bb","fixation cross","null","","","","","","","","","","","",""
"","1000","html-keyboard-response","70","198895","0.0-9.0-1.15","lx4ndEBa7j","6500c32aeecc75706e1bcaf1","6617fad957f7c6a12ea16e26","6622ce61afefd392cfa1f4bb","image grid","q","","","","","Ontogenetic_Distractor_Threat_target","1500","ongrid","q","7","Ontogenetic","true","practice"
"","null","html-keyboard-response","71","199057","0.0-9.0-2.15","lx4ndEBa7j","6500c32aeecc75706e1bcaf1","6617fad957f7c6a12ea16e26","6622ce61afefd392cfa1f4bb","
    <div id=""grid-container"">
        <!-- Grid items will be dynamically added here -->
    </div>    ","null","","","","","","","","","","","",""
"","null","html-keyboard-response","72","200262","0.0-9.0-3.15","lx4ndEBa7j","6500c32aeecc75706e1bcaf1","6617fad957f7c6a12ea16e26","6622ce61afefd392cfa1f4bb","feedback screen","null","","","","","","","","","","","",""
"","null","html-keyboard-response","73","200773","0.0-9.0-0.16","lx4ndEBa7j","6500c32aeecc75706e1bcaf1","6617fad957f7c6a12ea16e26","6622ce61afefd392cfa1f4bb","fixation cross","null","","","","","","","","","","","",""
"","null","html-keyboard-response","74","202190","0.0-9.0-1.16","lx4ndEBa7j","6500c32aeecc75706e1bcaf1","6617fad957f7c6a12ea16e26","6622ce61afefd392cfa1f4bb","
        <div id=""grid-container"">
        <!-- Grid items will be dynamically added here -->
    </div>    ","null","","","","","","","","","","","",""
"","2365","html-keyboard-response","75","203157","0.0-9.0-2.16","lx4ndEBa7j","6500c32aeecc75706e1bcaf1","6617fad957f7c6a12ea16e26","6622ce61afefd392cfa1f4bb","mask grid","p","","","","","Phylogenetic_Distractor_Nonthreat_target","1400","onmask","p","8","Ontogenetic","true","practice"
"","null","html-keyboard-response","76","204374","0.0-9.0-3.16","lx4ndEBa7j","6500c32aeecc75706e1bcaf1","6617fad957f7c6a12ea16e26","6622ce61afefd392cfa1f4bb","feedback screen","null","","","","","","","","","","","",""
"","null","html-keyboard-response","77","204886","0.0-9.0-0.17","lx4ndEBa7j","6500c32aeecc75706e1bcaf1","6617fad957f7c6a12ea16e26","6622ce61afefd392cfa1f4bb","fixation cross","null","","","","","","","","","","","",""
"","853","html-keyboard-response","78","205740","0.0-9.0-1.17","lx4ndEBa7j","6500c32aeecc75706e1bcaf1","6617fad957f7c6a12ea16e26","6622ce61afefd392cfa1f4bb","image grid","q","","","","","Ontogenetic_Distractor_Threat_target","1300","ongrid","q","2","Ontogenetic","true","practice"
"","null","html-keyboard-response","79","205896","0.0-9.0-2.17","lx4ndEBa7j","6500c32aeecc75706e1bcaf1","6617fad957f7c6a12ea16e26","6622ce61afefd392cfa1f4bb","
    <div id=""grid-container"">
        <!-- Grid items will be dynamically added here -->
    </div>    ","null","","","","","","","","","","","",""
"","null","html-keyboard-response","80","207107","0.0-9.0-3.17","lx4ndEBa7j","6500c32aeecc75706e1bcaf1","6617fad957f7c6a12ea16e26","6622ce61afefd392cfa1f4bb","feedback screen","null","","","","","","","","","","","",""
"","null","html-keyboard-response","81","207616","0.0-9.0-0.18","lx4ndEBa7j","6500c32aeecc75706e1bcaf1","6617fad957f7c6a12ea16e26","6622ce61afefd392cfa1f4bb","fixation cross","null","","","","","","","","","","","",""
"","836","html-keyboard-response","82","208453","0.0-9.0-1.18","lx4ndEBa7j","6500c32aeecc75706e1bcaf1","6617fad957f7c6a12ea16e26","6622ce61afefd392cfa1f4bb","image grid","p","","","","","Ontogenetic_Distractor_Nonthreat_target","1200","ongrid","p","7","Ontogenetic","true","practice"
"","null","html-keyboard-response","83","208613","0.0-9.0-2.18","lx4ndEBa7j","6500c32aeecc75706e1bcaf1","6617fad957f7c6a12ea16e26","6622ce61afefd392cfa1f4bb","
    <div id=""grid-container"">
        <!-- Grid items will be dynamically added here -->
    </div>    ","null","","","","","","","","","","","",""
"","null","html-keyboard-response","84","209818","0.0-9.0-3.18","lx4ndEBa7j","6500c32aeecc75706e1bcaf1","6617fad957f7c6a12ea16e26","6622ce61afefd392cfa1f4bb","feedback screen","null","","","","","","","","","","","",""
"","null","html-keyboard-response","85","210330","0.0-9.0-0.19","lx4ndEBa7j","6500c32aeecc75706e1bcaf1","6617fad957f7c6a12ea16e26","6622ce61afefd392cfa1f4bb","fixation cross","null","","","","","","","","","","","",""
"","null","html-keyboard-response","86","211438","0.0-9.0-1.19","lx4ndEBa7j","6500c32aeecc75706e1bcaf1","6617fad957f7c6a12ea16e26","6622ce61afefd392cfa1f4bb","
        <div id=""grid-container"">
        <!-- Grid items will be dynamically added here -->
    </div>    ","null","","","","","","","","","","","",""
"","1318","html-keyboard-response","87","211657","0.0-9.0-2.19","lx4ndEBa7j","6500c32aeecc75706e1bcaf1","6617fad957f7c6a12ea16e26","6622ce61afefd392cfa1f4bb","mask grid","q","","","","","Phylogenetic_Distractor_Threat_target","1100","onmask","q","2","Ontogenetic","true","practice"
"","null","html-keyboard-response","88","212868","0.0-9.0-3.19","lx4ndEBa7j","6500c32aeecc75706e1bcaf1","6617fad957f7c6a12ea16e26","6622ce61afefd392cfa1f4bb","feedback screen","null","","","","","","","","","","","",""
"","16601","html-keyboard-response","89","229517","0.0-10.0","lx4ndEBa7j","6500c32aeecc75706e1bcaf1","6617fad957f7c6a12ea16e26","6622ce61afefd392cfa1f4bb","pre-experimental_briefing"," ","","","","","","","","","","","",""
"","null","html-keyboard-response","90","232087","0.0-11.0-0.0","lx4ndEBa7j","6500c32aeecc75706e1bcaf1","6617fad957f7c6a12ea16e26","6622ce61afefd392cfa1f4bb","fixation cross","null","","","","","","","","","","","",""
"","1806","html-keyboard-response","91","233895","0.0-11.0-1.0","lx4ndEBa7j","6500c32aeecc75706e1bcaf1","6617fad957f7c6a12ea16e26","6622ce61afefd392cfa1f4bb","image grid","p","","","","","Ontogenetic_Distractor_Nonthreat_target","2500","ongrid","p","4","Ontogenetic","true","experimental"
"","null","html-keyboard-response","92","234049","0.0-11.0-2.0","lx4ndEBa7j","6500c32aeecc75706e1bcaf1","6617fad957f7c6a12ea16e26","6622ce61afefd392cfa1f4bb","
    <div id=""grid-container"">
        <!-- Grid items will be dynamically added here -->
    </div>    ","null","","","","","","","","","","","",""
"","null","html-keyboard-response","93","234769","0.0-11.0-0.1","lx4ndEBa7j","6500c32aeecc75706e1bcaf1","6617fad957f7c6a12ea16e26","6622ce61afefd392cfa1f4bb","fixation cross","null","","","","","","","","","","","",""
"","1002","html-keyboard-response","94","235772","0.0-11.0-1.1","lx4ndEBa7j","6500c32aeecc75706e1bcaf1","6617fad957f7c6a12ea16e26","6622ce61afefd392cfa1f4bb","image grid","q","","","","","Ontogenetic_Distractor_Threat_target","2500","ongrid","q","5","Ontogenetic","true","experimental"
"","null","html-keyboard-response","95","235930","0.0-11.0-2.1","lx4ndEBa7j","6500c32aeecc75706e1bcaf1","6617fad957f7c6a12ea16e26","6622ce61afefd392cfa1f4bb","
    <div id=""grid-container"">
        <!-- Grid items will be dynamically added here -->
    </div>    ","null","","","","","","","","","","","",""
"","null","html-keyboard-response","96","236633","0.0-11.0-0.2","lx4ndEBa7j","6500c32aeecc75706e1bcaf1","6617fad957f7c6a12ea16e26","6622ce61afefd392cfa1f4bb","fixation cross","null","","","","","","","","","","","",""
"","1109","html-keyboard-response","97","237742","0.0-11.0-1.2","lx4ndEBa7j","6500c32aeecc75706e1bcaf1","6617fad957f7c6a12ea16e26","6622ce61afefd392cfa1f4bb","image grid","p","","","","","Ontogenetic_Distractor_Nonthreat_target","2500","ongrid","p","6","Ontogenetic","true","experimental"
"","null","html-keyboard-response","98","237895","0.0-11.0-2.2","lx4ndEBa7j","6500c32aeecc75706e1bcaf1","6617fad957f7c6a12ea16e26","6622ce61afefd392cfa1f4bb","
    <div id=""grid-container"">
        <!-- Grid items will be dynamically added here -->
    </div>    ","null","","","","","","","","","","","",""
"","null","html-keyboard-response","99","238613","0.0-11.0-0.3","lx4ndEBa7j","6500c32aeecc75706e1bcaf1","6617fad957f7c6a12ea16e26","6622ce61afefd392cfa1f4bb","fixation cross","null","","","","","","","","","","","",""
"","1133","html-keyboard-response","100","239748","0.0-11.0-1.3","lx4ndEBa7j","6500c32aeecc75706e1bcaf1","6617fad957f7c6a12ea16e26","6622ce61afefd392cfa1f4bb","image grid","p","","","","","Ontogenetic_Distractor_Nonthreat_target","2500","ongrid","p","8","Ontogenetic","true","experimental"
"","null","html-keyboard-response","101","239909","0.0-11.0-2.3","lx4ndEBa7j","6500c32aeecc75706e1bcaf1","6617fad957f7c6a12ea16e26","6622ce61afefd392cfa1f4bb","
    <div id=""grid-container"">
        <!-- Grid items will be dynamically added here -->
    </div>    ","null","","","","","","","","","","","",""
"","null","html-keyboard-response","102","240627","0.0-11.0-0.4","lx4ndEBa7j","6500c32aeecc75706e1bcaf1","6617fad957f7c6a12ea16e26","6622ce61afefd392cfa1f4bb","fixation cross","null","","","","","","","","","","","",""
"","1239","html-keyboard-response","103","241867","0.0-11.0-1.4","lx4ndEBa7j","6500c32aeecc75706e1bcaf1","6617fad957f7c6a12ea16e26","6622ce61afefd392cfa1f4bb","image grid","q","","","","","Ontogenetic_Distractor_Threat_target","2500","ongrid","q","9","Ontogenetic","true","experimental"
"","null","html-keyboard-response","104","242024","0.0-11.0-2.4","lx4ndEBa7j","6500c32aeecc75706e1bcaf1","6617fad957f7c6a12ea16e26","6622ce61afefd392cfa1f4bb","
    <div id=""grid-container"">
        <!-- Grid items will be dynamically added here -->
    </div>    ","null","","","","","","","","","","","",""
"","null","html-keyboard-response","105","242742","0.0-11.0-0.5","lx4ndEBa7j","6500c32aeecc75706e1bcaf1","6617fad957f7c6a12ea16e26","6622ce61afefd392cfa1f4bb","fixation cross","null","","","","","","","","","","","",""
"","1263","html-keyboard-response","106","244006","0.0-11.0-1.5","lx4ndEBa7j","6500c32aeecc75706e1bcaf1","6617fad957f7c6a12ea16e26","6622ce61afefd392cfa1f4bb","image grid","p","","","","","Ontogenetic_Distractor_Nonthreat_target","2500","ongrid","p","4","Ontogenetic","true","experimental"
"","null","html-keyboard-response","107","244171","0.0-11.0-2.5","lx4ndEBa7j","6500c32aeecc75706e1bcaf1","6617fad957f7c6a12ea16e26","6622ce61afefd392cfa1f4bb","
    <div id=""grid-container"">
        <!-- Grid items will be dynamically added here -->
    </div>    ","null","","","","","","","","","","","",""
"","null","html-keyboard-response","108","244889","0.0-11.0-0.6","lx4ndEBa7j","6500c32aeecc75706e1bcaf1","6617fad957f7c6a12ea16e26","6622ce61afefd392cfa1f4bb","fixation cross","null","","","","","","","","","","","",""
"","1014","html-keyboard-response","109","245904","0.0-11.0-1.6","lx4ndEBa7j","6500c32aeecc75706e1bcaf1","6617fad957f7c6a12ea16e26","6622ce61afefd392cfa1f4bb","image grid","q","","","","","Ontogenetic_Distractor_Threat_target","2500","ongrid","q","4","Ontogenetic","true","experimental"
"","null","html-keyboard-response","110","246068","0.0-11.0-2.6","lx4ndEBa7j","6500c32aeecc75706e1bcaf1","6617fad957f7c6a12ea16e26","6622ce61afefd392cfa1f4bb","
    <div id=""grid-container"">
        <!-- Grid items will be dynamically added here -->
    </div>    ","null","","","","","","","","","","","",""
"","null","html-keyboard-response","111","246788","0.0-11.0-0.7","lx4ndEBa7j","6500c32aeecc75706e1bcaf1","6617fad957f7c6a12ea16e26","6622ce61afefd392cfa1f4bb","fixation cross","null","","","","","","","","","","","",""
"","910","html-keyboard-response","112","247699","0.0-11.0-1.7","lx4ndEBa7j","6500c32aeecc75706e1bcaf1","6617fad957f7c6a12ea16e26","6622ce61afefd392cfa1f4bb","image grid","p","","","","","Ontogenetic_Distractor_Nonthreat_target","2500","ongrid","p","4","Ontogenetic","true","experimental"
"","null","html-keyboard-response","113","247851","0.0-11.0-2.7","lx4ndEBa7j","6500c32aeecc75706e1bcaf1","6617fad957f7c6a12ea16e26","6622ce61afefd392cfa1f4bb","
    <div id=""grid-container"">
        <!-- Grid items will be dynamically added here -->
    </div>    ","null","","","","","","","","","","","",""
"","null","html-keyboard-response","114","248567","0.0-11.0-0.8","lx4ndEBa7j","6500c32aeecc75706e1bcaf1","6617fad957f7c6a12ea16e26","6622ce61afefd392cfa1f4bb","fixation cross","null","","","","","","","","","","","",""
"","1167","html-keyboard-response","115","249735","0.0-11.0-1.8","lx4ndEBa7j","6500c32aeecc75706e1bcaf1","6617fad957f7c6a12ea16e26","6622ce61afefd392cfa1f4bb","image grid","p","","","","","Ontogenetic_Distractor_Nonthreat_target","2500","ongrid","p","5","Ontogenetic","true","experimental"
"","null","html-keyboard-response","116","249898","0.0-11.0-2.8","lx4ndEBa7j","6500c32aeecc75706e1bcaf1","6617fad957f7c6a12ea16e26","6622ce61afefd392cfa1f4bb","
    <div id=""grid-container"">
        <!-- Grid items will be dynamically added here -->
    </div>    ","null","","","","","","","","","","","",""
"","null","html-keyboard-response","117","250615","0.0-11.0-0.9","lx4ndEBa7j","6500c32aeecc75706e1bcaf1","6617fad957f7c6a12ea16e26","6622ce61afefd392cfa1f4bb","fixation cross","null","","","","","","","","","","","",""
"","980","html-keyboard-response","118","251597","0.0-11.0-1.9","lx4ndEBa7j","6500c32aeecc75706e1bcaf1","6617fad957f7c6a12ea16e26","6622ce61afefd392cfa1f4bb","image grid","p","","","","","Ontogenetic_Distractor_Nonthreat_target","2500","ongrid","p","4","Ontogenetic","true","experimental"
"","null","html-keyboard-response","119","251762","0.0-11.0-2.9","lx4ndEBa7j","6500c32aeecc75706e1bcaf1","6617fad957f7c6a12ea16e26","6622ce61afefd392cfa1f4bb","
    <div id=""grid-container"">
        <!-- Grid items will be dynamically added here -->
    </div>    ","null","","","","","","","","","","","",""
"","null","html-keyboard-response","120","252479","0.0-11.0-0.10","lx4ndEBa7j","6500c32aeecc75706e1bcaf1","6617fad957f7c6a12ea16e26","6622ce61afefd392cfa1f4bb","fixation cross","null","","","","","","","","","","","",""
"","828","html-keyboard-response","121","253309","0.0-11.0-1.10","lx4ndEBa7j","6500c32aeecc75706e1bcaf1","6617fad957f7c6a12ea16e26","6622ce61afefd392cfa1f4bb","image grid","p","","","","","Ontogenetic_Distractor_Nonthreat_target","2500","ongrid","p","5","Ontogenetic","true","experimental"
"","null","html-keyboard-response","122","253476","0.0-11.0-2.10","lx4ndEBa7j","6500c32aeecc75706e1bcaf1","6617fad957f7c6a12ea16e26","6622ce61afefd392cfa1f4bb","
    <div id=""grid-container"">
        <!-- Grid items will be dynamically added here -->
    </div>    ","null","","","","","","","","","","","",""
"","null","html-keyboard-response","123","254181","0.0-11.0-0.11","lx4ndEBa7j","6500c32aeecc75706e1bcaf1","6617fad957f7c6a12ea16e26","6622ce61afefd392cfa1f4bb","fixation cross","null","","","","","","","","","","","",""
"","1128","html-keyboard-response","124","255309","0.0-11.0-1.11","lx4ndEBa7j","6500c32aeecc75706e1bcaf1","6617fad957f7c6a12ea16e26","6622ce61afefd392cfa1f4bb","image grid","q","","","","","Ontogenetic_Distractor_Threat_target","2500","ongrid","q","8","Ontogenetic","true","experimental"
"","null","html-keyboard-response","125","255475","0.0-11.0-2.11","lx4ndEBa7j","6500c32aeecc75706e1bcaf1","6617fad957f7c6a12ea16e26","6622ce61afefd392cfa1f4bb","
    <div id=""grid-container"">
        <!-- Grid items will be dynamically added here -->
    </div>    ","null","","","","","","","","","","","",""
"","null","html-keyboard-response","126","256178","0.0-11.0-0.12","lx4ndEBa7j","6500c32aeecc75706e1bcaf1","6617fad957f7c6a12ea16e26","6622ce61afefd392cfa1f4bb","fixation cross","null","","","","","","","","","","","",""
"","1222","html-keyboard-response","127","257401","0.0-11.0-1.12","lx4ndEBa7j","6500c32aeecc75706e1bcaf1","6617fad957f7c6a12ea16e26","6622ce61afefd392cfa1f4bb","image grid","q","","","","","Ontogenetic_Distractor_Threat_target","2500","ongrid","q","4","Ontogenetic","true","experimental"
"","null","html-keyboard-response","128","257556","0.0-11.0-2.12","lx4ndEBa7j","6500c32aeecc75706e1bcaf1","6617fad957f7c6a12ea16e26","6622ce61afefd392cfa1f4bb","
    <div id=""grid-container"">
        <!-- Grid items will be dynamically added here -->
    </div>    ","null","","","","","","","","","","","",""
"","null","html-keyboard-response","129","258273","0.0-11.0-0.13","lx4ndEBa7j","6500c32aeecc75706e1bcaf1","6617fad957f7c6a12ea16e26","6622ce61afefd392cfa1f4bb","fixation cross","null","","","","","","","","","","","",""
"","1330","html-keyboard-response","130","259604","0.0-11.0-1.13","lx4ndEBa7j","6500c32aeecc75706e1bcaf1","6617fad957f7c6a12ea16e26","6622ce61afefd392cfa1f4bb","image grid","p","","","","","Ontogenetic_Distractor_Nonthreat_target","2500","ongrid","p","8","Ontogenetic","true","experimental"
"","null","html-keyboard-response","131","259769","0.0-11.0-2.13","lx4ndEBa7j","6500c32aeecc75706e1bcaf1","6617fad957f7c6a12ea16e26","6622ce61afefd392cfa1f4bb","
    <div id=""grid-container"">
        <!-- Grid items will be dynamically added here -->
    </div>    ","null","","","","","","","","","","","",""
"","null","html-keyboard-response","132","260471","0.0-11.0-0.14","lx4ndEBa7j","6500c32aeecc75706e1bcaf1","6617fad957f7c6a12ea16e26","6622ce61afefd392cfa1f4bb","fixation cross","null","","","","","","","","","","","",""
"","947","html-keyboard-response","133","261419","0.0-11.0-1.14","lx4ndEBa7j","6500c32aeecc75706e1bcaf1","6617fad957f7c6a12ea16e26","6622ce61afefd392cfa1f4bb","image grid","p","","","","","Ontogenetic_Distractor_Nonthreat_target","2500","ongrid","p","8","Ontogenetic","true","experimental"
"","null","html-keyboard-response","134","261586","0.0-11.0-2.14","lx4ndEBa7j","6500c32aeecc75706e1bcaf1","6617fad957f7c6a12ea16e26","6622ce61afefd392cfa1f4bb","
    <div id=""grid-container"">
        <!-- Grid items will be dynamically added here -->
    </div>    ","null","","","","","","","","","","","",""
"","null","html-keyboard-response","135","262288","0.0-11.0-0.15","lx4ndEBa7j","6500c32aeecc75706e1bcaf1","6617fad957f7c6a12ea16e26","6622ce61afefd392cfa1f4bb","fixation cross","null","","","","","","","","","","","",""
"","1973","html-keyboard-response","136","264262","0.0-11.0-1.15","lx4ndEBa7j","6500c32aeecc75706e1bcaf1","6617fad957f7c6a12ea16e26","6622ce61afefd392cfa1f4bb","image grid"," ","","","","","Ontogenetic_Distractor_notarget","2500","ongrid"," ","4","Ontogenetic","true","experimental"
"","null","html-keyboard-response","137","264416","0.0-11.0-2.15","lx4ndEBa7j","6500c32aeecc75706e1bcaf1","6617fad957f7c6a12ea16e26","6622ce61afefd392cfa1f4bb","
    <div id=""grid-container"">
        <!-- Grid items will be dynamically added here -->
    </div>    ","null","","","","","","","","","","","",""
"","null","html-keyboard-response","138","265132","0.0-11.0-0.16","lx4ndEBa7j","6500c32aeecc75706e1bcaf1","6617fad957f7c6a12ea16e26","6622ce61afefd392cfa1f4bb","fixation cross","null","","","","","","","","","","","",""
"","1600","html-keyboard-response","139","266734","0.0-11.0-1.16","lx4ndEBa7j","6500c32aeecc75706e1bcaf1","6617fad957f7c6a12ea16e26","6622ce61afefd392cfa1f4bb","image grid"," ","","","","","Ontogenetic_Distractor_notarget","2500","ongrid"," ","3","Ontogenetic","true","experimental"
"","null","html-keyboard-response","140","266895","0.0-11.0-2.16","lx4ndEBa7j","6500c32aeecc75706e1bcaf1","6617fad957f7c6a12ea16e26","6622ce61afefd392cfa1f4bb","
    <div id=""grid-container"">
        <!-- Grid items will be dynamically added here -->
    </div>    ","null","","","","","","","","","","","",""
"","null","html-keyboard-response","141","267599","0.0-11.0-0.17","lx4ndEBa7j","6500c32aeecc75706e1bcaf1","6617fad957f7c6a12ea16e26","6622ce61afefd392cfa1f4bb","fixation cross","null","","","","","","","","","","","",""
"","1154","html-keyboard-response","142","268753","0.0-11.0-1.17","lx4ndEBa7j","6500c32aeecc75706e1bcaf1","6617fad957f7c6a12ea16e26","6622ce61afefd392cfa1f4bb","image grid","q","","","","","Ontogenetic_Distractor_Threat_target","2500","ongrid","q","5","Ontogenetic","true","experimental"
"","null","html-keyboard-response","143","268909","0.0-11.0-2.17","lx4ndEBa7j","6500c32aeecc75706e1bcaf1","6617fad957f7c6a12ea16e26","6622ce61afefd392cfa1f4bb","
    <div id=""grid-container"">
        <!-- Grid items will be dynamically added here -->
    </div>    ","null","","","","","","","","","","","",""
"","null","html-keyboard-response","144","269628","0.0-11.0-0.18","lx4ndEBa7j","6500c32aeecc75706e1bcaf1","6617fad957f7c6a12ea16e26","6622ce61afefd392cfa1f4bb","fixation cross","null","","","","","","","","","","","",""
"","2073","html-keyboard-response","145","271703","0.0-11.0-1.18","lx4ndEBa7j","6500c32aeecc75706e1bcaf1","6617fad957f7c6a12ea16e26","6622ce61afefd392cfa1f4bb","image grid","p","","","","","Ontogenetic_Distractor_Nonthreat_target","2500","ongrid","p","6","Ontogenetic","true","experimental"
"","null","html-keyboard-response","146","271857","0.0-11.0-2.18","lx4ndEBa7j","6500c32aeecc75706e1bcaf1","6617fad957f7c6a12ea16e26","6622ce61afefd392cfa1f4bb","
    <div id=""grid-container"">
        <!-- Grid items will be dynamically added here -->
    </div>    ","null","","","","","","","","","","","",""
"","null","html-keyboard-response","147","272559","0.0-11.0-0.19","lx4ndEBa7j","6500c32aeecc75706e1bcaf1","6617fad957f7c6a12ea16e26","6622ce61afefd392cfa1f4bb","fixation cross","null","","","","","","","","","","","",""
"","1232","html-keyboard-response","148","273792","0.0-11.0-1.19","lx4ndEBa7j","6500c32aeecc75706e1bcaf1","6617fad957f7c6a12ea16e26","6622ce61afefd392cfa1f4bb","image grid","q","","","","","Ontogenetic_Distractor_Threat_target","2500","ongrid","q","8","Ontogenetic","true","experimental"
"","null","html-keyboard-response","149","273953","0.0-11.0-2.19","lx4ndEBa7j","6500c32aeecc75706e1bcaf1","6617fad957f7c6a12ea16e26","6622ce61afefd392cfa1f4bb","
    <div id=""grid-container"">
        <!-- Grid items will be dynamically added here -->
    </div>    ","null","","","","","","","","","","","",""
"","null","html-keyboard-response","150","274671","0.0-11.0-0.20","lx4ndEBa7j","6500c32aeecc75706e1bcaf1","6617fad957f7c6a12ea16e26","6622ce61afefd392cfa1f4bb","fixation cross","null","","","","","","","","","","","",""
"","1001","html-keyboard-response","151","275672","0.0-11.0-1.20","lx4ndEBa7j","6500c32aeecc75706e1bcaf1","6617fad957f7c6a12ea16e26","6622ce61afefd392cfa1f4bb","image grid","q","","","","","Ontogenetic_Distractor_Threat_target","2500","ongrid","q","9","Ontogenetic","true","experimental"
"","null","html-keyboard-response","152","275835","0.0-11.0-2.20","lx4ndEBa7j","6500c32aeecc75706e1bcaf1","6617fad957f7c6a12ea16e26","6622ce61afefd392cfa1f4bb","
    <div id=""grid-container"">
        <!-- Grid items will be dynamically added here -->
    </div>    ","null","","","","","","","","","","","",""
"","null","html-keyboard-response","153","276537","0.0-11.0-0.21","lx4ndEBa7j","6500c32aeecc75706e1bcaf1","6617fad957f7c6a12ea16e26","6622ce61afefd392cfa1f4bb","fixation cross","null","","","","","","","","","","","",""
"","906","html-keyboard-response","154","277445","0.0-11.0-1.21","lx4ndEBa7j","6500c32aeecc75706e1bcaf1","6617fad957f7c6a12ea16e26","6622ce61afefd392cfa1f4bb","image grid","p","","","","","Ontogenetic_Distractor_Nonthreat_target","2500","ongrid","p","2","Ontogenetic","true","experimental"
"","null","html-keyboard-response","155","277599","0.0-11.0-2.21","lx4ndEBa7j","6500c32aeecc75706e1bcaf1","6617fad957f7c6a12ea16e26","6622ce61afefd392cfa1f4bb","
    <div id=""grid-container"">
        <!-- Grid items will be dynamically added here -->
    </div>    ","null","","","","","","","","","","","",""
"","null","html-keyboard-response","156","278303","0.0-11.0-0.22","lx4ndEBa7j","6500c32aeecc75706e1bcaf1","6617fad957f7c6a12ea16e26","6622ce61afefd392cfa1f4bb","fixation cross","null","","","","","","","","","","","",""
"","969","html-keyboard-response","157","279272","0.0-11.0-1.22","lx4ndEBa7j","6500c32aeecc75706e1bcaf1","6617fad957f7c6a12ea16e26","6622ce61afefd392cfa1f4bb","image grid","q","","","","","Ontogenetic_Distractor_Threat_target","2500","ongrid","q","6","Ontogenetic","true","experimental"
"","null","html-keyboard-response","158","279431","0.0-11.0-2.22","lx4ndEBa7j","6500c32aeecc75706e1bcaf1","6617fad957f7c6a12ea16e26","6622ce61afefd392cfa1f4bb","
    <div id=""grid-container"">
        <!-- Grid items will be dynamically added here -->
    </div>    ","null","","","","","","","","","","","",""
"","null","html-keyboard-response","159","280132","0.0-11.0-0.23","lx4ndEBa7j","6500c32aeecc75706e1bcaf1","6617fad957f7c6a12ea16e26","6622ce61afefd392cfa1f4bb","fixation cross","null","","","","","","","","","","","",""
"","977","html-keyboard-response","160","281111","0.0-11.0-1.23","lx4ndEBa7j","6500c32aeecc75706e1bcaf1","6617fad957f7c6a12ea16e26","6622ce61afefd392cfa1f4bb","image grid","q","","","","","Ontogenetic_Distractor_Threat_target","2500","ongrid","q","5","Ontogenetic","true","experimental"
"","null","html-keyboard-response","161","281263","0.0-11.0-2.23","lx4ndEBa7j","6500c32aeecc75706e1bcaf1","6617fad957f7c6a12ea16e26","6622ce61afefd392cfa1f4bb","
    <div id=""grid-container"">
        <!-- Grid items will be dynamically added here -->
    </div>    ","null","","","","","","","","","","","",""
"","null","html-keyboard-response","162","281982","0.0-11.0-0.24","lx4ndEBa7j","6500c32aeecc75706e1bcaf1","6617fad957f7c6a12ea16e26","6622ce61afefd392cfa1f4bb","fixation cross","null","","","","","","","","","","","",""
"","1249","html-keyboard-response","163","283231","0.0-11.0-1.24","lx4ndEBa7j","6500c32aeecc75706e1bcaf1","6617fad957f7c6a12ea16e26","6622ce61afefd392cfa1f4bb","image grid","q","","","","","Ontogenetic_Distractor_Threat_target","2500","ongrid","q","9","Ontogenetic","true","experimental"
"","null","html-keyboard-response","164","283392","0.0-11.0-2.24","lx4ndEBa7j","6500c32aeecc75706e1bcaf1","6617fad957f7c6a12ea16e26","6622ce61afefd392cfa1f4bb","
    <div id=""grid-container"">
        <!-- Grid items will be dynamically added here -->
    </div>    ","null","","","","","","","","","","","",""
"","null","html-keyboard-response","165","284094","0.0-11.0-0.25","lx4ndEBa7j","6500c32aeecc75706e1bcaf1","6617fad957f7c6a12ea16e26","6622ce61afefd392cfa1f4bb","fixation cross","null","","","","","","","","","","","",""
"","880","html-keyboard-response","166","284976","0.0-11.0-1.25","lx4ndEBa7j","6500c32aeecc75706e1bcaf1","6617fad957f7c6a12ea16e26","6622ce61afefd392cfa1f4bb","image grid","p","","","","","Ontogenetic_Distractor_Nonthreat_target","2500","ongrid","p","8","Ontogenetic","true","experimental"
"","null","html-keyboard-response","167","285140","0.0-11.0-2.25","lx4ndEBa7j","6500c32aeecc75706e1bcaf1","6617fad957f7c6a12ea16e26","6622ce61afefd392cfa1f4bb","
    <div id=""grid-container"">
        <!-- Grid items will be dynamically added here -->
    </div>    ","null","","","","","","","","","","","",""
"","null","html-keyboard-response","168","285844","0.0-11.0-0.26","lx4ndEBa7j","6500c32aeecc75706e1bcaf1","6617fad957f7c6a12ea16e26","6622ce61afefd392cfa1f4bb","fixation cross","null","","","","","","","","","","","",""
"","1025","html-keyboard-response","169","286870","0.0-11.0-1.26","lx4ndEBa7j","6500c32aeecc75706e1bcaf1","6617fad957f7c6a12ea16e26","6622ce61afefd392cfa1f4bb","image grid","q","","","","","Ontogenetic_Distractor_Threat_target","2500","ongrid","q","4","Ontogenetic","true","experimental"
"","null","html-keyboard-response","170","287024","0.0-11.0-2.26","lx4ndEBa7j","6500c32aeecc75706e1bcaf1","6617fad957f7c6a12ea16e26","6622ce61afefd392cfa1f4bb","
    <div id=""grid-container"">
        <!-- Grid items will be dynamically added here -->
    </div>    ","null","","","","","","","","","","","",""
"","null","html-keyboard-response","171","287740","0.0-11.0-0.27","lx4ndEBa7j","6500c32aeecc75706e1bcaf1","6617fad957f7c6a12ea16e26","6622ce61afefd392cfa1f4bb","fixation cross","null","","","","","","","","","","","",""
"","1261","html-keyboard-response","172","289003","0.0-11.0-1.27","lx4ndEBa7j","6500c32aeecc75706e1bcaf1","6617fad957f7c6a12ea16e26","6622ce61afefd392cfa1f4bb","image grid","p","","","","","Ontogenetic_Distractor_Nonthreat_target","2500","ongrid","p","6","Ontogenetic","true","experimental"
"","null","html-keyboard-response","173","289170","0.0-11.0-2.27","lx4ndEBa7j","6500c32aeecc75706e1bcaf1","6617fad957f7c6a12ea16e26","6622ce61afefd392cfa1f4bb","
    <div id=""grid-container"">
        <!-- Grid items will be dynamically added here -->
    </div>    ","null","","","","","","","","","","","",""
"","null","html-keyboard-response","174","289886","0.0-11.0-0.28","lx4ndEBa7j","6500c32aeecc75706e1bcaf1","6617fad957f7c6a12ea16e26","6622ce61afefd392cfa1f4bb","fixation cross","null","","","","","","","","","","","",""
"","920","html-keyboard-response","175","290807","0.0-11.0-1.28","lx4ndEBa7j","6500c32aeecc75706e1bcaf1","6617fad957f7c6a12ea16e26","6622ce61afefd392cfa1f4bb","image grid","p","","","","","Ontogenetic_Distractor_Nonthreat_target","2500","ongrid","p","3","Ontogenetic","true","experimental"
"","null","html-keyboard-response","176","290969","0.0-11.0-2.28","lx4ndEBa7j","6500c32aeecc75706e1bcaf1","6617fad957f7c6a12ea16e26","6622ce61afefd392cfa1f4bb","
    <div id=""grid-container"">
        <!-- Grid items will be dynamically added here -->
    </div>    ","null","","","","","","","","","","","",""
"","null","html-keyboard-response","177","291685","0.0-11.0-0.29","lx4ndEBa7j","6500c32aeecc75706e1bcaf1","6617fad957f7c6a12ea16e26","6622ce61afefd392cfa1f4bb","fixation cross","null","","","","","","","","","","","",""
"","1037","html-keyboard-response","178","292723","0.0-11.0-1.29","lx4ndEBa7j","6500c32aeecc75706e1bcaf1","6617fad957f7c6a12ea16e26","6622ce61afefd392cfa1f4bb","image grid","q","","","","","Ontogenetic_Distractor_Threat_target","2500","ongrid","q","6","Ontogenetic","true","experimental"
"","null","html-keyboard-response","179","292884","0.0-11.0-2.29","lx4ndEBa7j","6500c32aeecc75706e1bcaf1","6617fad957f7c6a12ea16e26","6622ce61afefd392cfa1f4bb","
    <div id=""grid-container"">
        <!-- Grid items will be dynamically added here -->
    </div>    ","null","","","","","","","","","","","",""
"","null","html-keyboard-response","180","293599","0.0-11.0-0.30","lx4ndEBa7j","6500c32aeecc75706e1bcaf1","6617fad957f7c6a12ea16e26","6622ce61afefd392cfa1f4bb","fixation cross","null","","","","","","","","","","","",""
"","910","html-keyboard-response","181","294510","0.0-11.0-1.30","lx4ndEBa7j","6500c32aeecc75706e1bcaf1","6617fad957f7c6a12ea16e26","6622ce61afefd392cfa1f4bb","image grid","p","","","","","Ontogenetic_Distractor_Nonthreat_target","2500","ongrid","p","9","Ontogenetic","true","experimental"
"","null","html-keyboard-response","182","294664","0.0-11.0-2.30","lx4ndEBa7j","6500c32aeecc75706e1bcaf1","6617fad957f7c6a12ea16e26","6622ce61afefd392cfa1f4bb","
    <div id=""grid-container"">
        <!-- Grid items will be dynamically added here -->
    </div>    ","null","","","","","","","","","","","",""
"","null","html-keyboard-response","183","295382","0.0-11.0-0.31","lx4ndEBa7j","6500c32aeecc75706e1bcaf1","6617fad957f7c6a12ea16e26","6622ce61afefd392cfa1f4bb","fixation cross","null","","","","","","","","","","","",""
"","930","html-keyboard-response","184","296313","0.0-11.0-1.31","lx4ndEBa7j","6500c32aeecc75706e1bcaf1","6617fad957f7c6a12ea16e26","6622ce61afefd392cfa1f4bb","image grid","q","","","","","Ontogenetic_Distractor_Threat_target","2500","ongrid","q","3","Ontogenetic","true","experimental"
"","null","html-keyboard-response","185","296477","0.0-11.0-2.31","lx4ndEBa7j","6500c32aeecc75706e1bcaf1","6617fad957f7c6a12ea16e26","6622ce61afefd392cfa1f4bb","
    <div id=""grid-container"">
        <!-- Grid items will be dynamically added here -->
    </div>    ","null","","","","","","","","","","","",""
"","null","html-keyboard-response","186","297180","0.0-11.0-0.32","lx4ndEBa7j","6500c32aeecc75706e1bcaf1","6617fad957f7c6a12ea16e26","6622ce61afefd392cfa1f4bb","fixation cross","null","","","","","","","","","","","",""
"","660","html-keyboard-response","187","297840","0.0-11.0-1.32","lx4ndEBa7j","6500c32aeecc75706e1bcaf1","6617fad957f7c6a12ea16e26","6622ce61afefd392cfa1f4bb","image grid","q","","","","","Ontogenetic_Distractor_Threat_target","2500","ongrid","q","5","Ontogenetic","true","experimental"
"","null","html-keyboard-response","188","297993","0.0-11.0-2.32","lx4ndEBa7j","6500c32aeecc75706e1bcaf1","6617fad957f7c6a12ea16e26","6622ce61afefd392cfa1f4bb","
    <div id=""grid-container"">
        <!-- Grid items will be dynamically added here -->
    </div>    ","null","","","","","","","","","","","",""
"","null","html-keyboard-response","189","298712","0.0-11.0-0.33","lx4ndEBa7j","6500c32aeecc75706e1bcaf1","6617fad957f7c6a12ea16e26","6622ce61afefd392cfa1f4bb","fixation cross","null","","","","","","","","","","","",""
"","2264","html-keyboard-response","190","300977","0.0-11.0-1.33","lx4ndEBa7j","6500c32aeecc75706e1bcaf1","6617fad957f7c6a12ea16e26","6622ce61afefd392cfa1f4bb","image grid"," ","","","","","Ontogenetic_Distractor_notarget","2500","ongrid"," ","5","Ontogenetic","true","experimental"
"","null","html-keyboard-response","191","301140","0.0-11.0-2.33","lx4ndEBa7j","6500c32aeecc75706e1bcaf1","6617fad957f7c6a12ea16e26","6622ce61afefd392cfa1f4bb","
    <div id=""grid-container"">
        <!-- Grid items will be dynamically added here -->
    </div>    ","null","","","","","","","","","","","",""
"","null","html-keyboard-response","192","301855","0.0-11.0-0.34","lx4ndEBa7j","6500c32aeecc75706e1bcaf1","6617fad957f7c6a12ea16e26","6622ce61afefd392cfa1f4bb","fixation cross","null","","","","","","","","","","","",""
"","1214","html-keyboard-response","193","303071","0.0-11.0-1.34","lx4ndEBa7j","6500c32aeecc75706e1bcaf1","6617fad957f7c6a12ea16e26","6622ce61afefd392cfa1f4bb","image grid","q","","","","","Ontogenetic_Distractor_Threat_target","2500","ongrid","q","1","Ontogenetic","true","experimental"
"","null","html-keyboard-response","194","303235","0.0-11.0-2.34","lx4ndEBa7j","6500c32aeecc75706e1bcaf1","6617fad957f7c6a12ea16e26","6622ce61afefd392cfa1f4bb","
    <div id=""grid-container"">
        <!-- Grid items will be dynamically added here -->
    </div>    ","null","","","","","","","","","","","",""
"","null","html-keyboard-response","195","303940","0.0-11.0-0.35","lx4ndEBa7j","6500c32aeecc75706e1bcaf1","6617fad957f7c6a12ea16e26","6622ce61afefd392cfa1f4bb","fixation cross","null","","","","","","","","","","","",""
"","1421","html-keyboard-response","196","305362","0.0-11.0-1.35","lx4ndEBa7j","6500c32aeecc75706e1bcaf1","6617fad957f7c6a12ea16e26","6622ce61afefd392cfa1f4bb","image grid","p","","","","","Ontogenetic_Distractor_Nonthreat_target","2500","ongrid","p","6","Ontogenetic","true","experimental"
"","null","html-keyboard-response","197","305518","0.0-11.0-2.35","lx4ndEBa7j","6500c32aeecc75706e1bcaf1","6617fad957f7c6a12ea16e26","6622ce61afefd392cfa1f4bb","
    <div id=""grid-container"">
        <!-- Grid items will be dynamically added here -->
    </div>    ","null","","","","","","","","","","","",""
"","null","html-keyboard-response","198","306235","0.0-11.0-0.36","lx4ndEBa7j","6500c32aeecc75706e1bcaf1","6617fad957f7c6a12ea16e26","6622ce61afefd392cfa1f4bb","fixation cross","null","","","","","","","","","","","",""
"","1947","html-keyboard-response","199","308183","0.0-11.0-1.36","lx4ndEBa7j","6500c32aeecc75706e1bcaf1","6617fad957f7c6a12ea16e26","6622ce61afefd392cfa1f4bb","image grid"," ","","","","","Ontogenetic_Distractor_notarget","2500","ongrid"," ","4","Ontogenetic","true","experimental"
"","null","html-keyboard-response","200","308349","0.0-11.0-2.36","lx4ndEBa7j","6500c32aeecc75706e1bcaf1","6617fad957f7c6a12ea16e26","6622ce61afefd392cfa1f4bb","
    <div id=""grid-container"">
        <!-- Grid items will be dynamically added here -->
    </div>    ","null","","","","","","","","","","","",""
"","null","html-keyboard-response","201","309064","0.0-11.0-0.37","lx4ndEBa7j","6500c32aeecc75706e1bcaf1","6617fad957f7c6a12ea16e26","6622ce61afefd392cfa1f4bb","fixation cross","null","","","","","","","","","","","",""
"","1081","html-keyboard-response","202","310147","0.0-11.0-1.37","lx4ndEBa7j","6500c32aeecc75706e1bcaf1","6617fad957f7c6a12ea16e26","6622ce61afefd392cfa1f4bb","image grid","q","","","","","Ontogenetic_Distractor_Threat_target","2500","ongrid","q","3","Ontogenetic","true","experimental"
"","null","html-keyboard-response","203","310312","0.0-11.0-2.37","lx4ndEBa7j","6500c32aeecc75706e1bcaf1","6617fad957f7c6a12ea16e26","6622ce61afefd392cfa1f4bb","
    <div id=""grid-container"">
        <!-- Grid items will be dynamically added here -->
    </div>    ","null","","","","","","","","","","","",""
"","null","html-keyboard-response","204","311029","0.0-11.0-0.38","lx4ndEBa7j","6500c32aeecc75706e1bcaf1","6617fad957f7c6a12ea16e26","6622ce61afefd392cfa1f4bb","fixation cross","null","","","","","","","","","","","",""
"","1231","html-keyboard-response","205","312261","0.0-11.0-1.38","lx4ndEBa7j","6500c32aeecc75706e1bcaf1","6617fad957f7c6a12ea16e26","6622ce61afefd392cfa1f4bb","image grid","p","","","","","Ontogenetic_Distractor_Nonthreat_target","2500","ongrid","p","9","Ontogenetic","true","experimental"
"","null","html-keyboard-response","206","312427","0.0-11.0-2.38","lx4ndEBa7j","6500c32aeecc75706e1bcaf1","6617fad957f7c6a12ea16e26","6622ce61afefd392cfa1f4bb","
    <div id=""grid-container"">
        <!-- Grid items will be dynamically added here -->
    </div>    ","null","","","","","","","","","","","",""
"","null","html-keyboard-response","207","313143","0.0-11.0-0.39","lx4ndEBa7j","6500c32aeecc75706e1bcaf1","6617fad957f7c6a12ea16e26","6622ce61afefd392cfa1f4bb","fixation cross","null","","","","","","","","","","","",""
"","1341","html-keyboard-response","208","314485","0.0-11.0-1.39","lx4ndEBa7j","6500c32aeecc75706e1bcaf1","6617fad957f7c6a12ea16e26","6622ce61afefd392cfa1f4bb","image grid","q","","","","","Ontogenetic_Distractor_Threat_target","2500","ongrid","q","7","Ontogenetic","true","experimental"
"","null","html-keyboard-response","209","314642","0.0-11.0-2.39","lx4ndEBa7j","6500c32aeecc75706e1bcaf1","6617fad957f7c6a12ea16e26","6622ce61afefd392cfa1f4bb","
    <div id=""grid-container"">
        <!-- Grid items will be dynamically added here -->
    </div>    ","null","","","","","","","","","","","",""
"","15809","html-keyboard-response","210","330701","0.0-12.0","lx4ndEBa7j","6500c32aeecc75706e1bcaf1","6617fad957f7c6a12ea16e26","6622ce61afefd392cfa1f4bb","break screen"," ","","","","","","","","","","","",""
"","null","html-keyboard-response","211","333265","0.0-13.0-0.0","lx4ndEBa7j","6500c32aeecc75706e1bcaf1","6617fad957f7c6a12ea16e26","6622ce61afefd392cfa1f4bb","fixation cross","null","","","","","","","","","","","",""
"","1540","html-keyboard-response","212","334806","0.0-13.0-1.0","lx4ndEBa7j","6500c32aeecc75706e1bcaf1","6617fad957f7c6a12ea16e26","6622ce61afefd392cfa1f4bb","image grid","q","","","","","Phylogenetic_Distractor_Threat_target","2500","ongrid","q","1","Phylogenetic","true","experimental"
"","null","html-keyboard-response","213","334961","0.0-13.0-2.0","lx4ndEBa7j","6500c32aeecc75706e1bcaf1","6617fad957f7c6a12ea16e26","6622ce61afefd392cfa1f4bb","
    <div id=""grid-container"">
        <!-- Grid items will be dynamically added here -->
    </div>    ","null","","","","","","","","","","","",""
"","null","html-keyboard-response","214","335679","0.0-13.0-0.1","lx4ndEBa7j","6500c32aeecc75706e1bcaf1","6617fad957f7c6a12ea16e26","6622ce61afefd392cfa1f4bb","fixation cross","null","","","","","","","","","","","",""
"","2350","html-keyboard-response","215","338030","0.0-13.0-1.1","lx4ndEBa7j","6500c32aeecc75706e1bcaf1","6617fad957f7c6a12ea16e26","6622ce61afefd392cfa1f4bb","image grid","p","","","","","Phylogenetic_Distractor_Nonthreat_target","2500","ongrid","p","3","Phylogenetic","true","experimental"
"","null","html-keyboard-response","216","338192","0.0-13.0-2.1","lx4ndEBa7j","6500c32aeecc75706e1bcaf1","6617fad957f7c6a12ea16e26","6622ce61afefd392cfa1f4bb","
    <div id=""grid-container"">
        <!-- Grid items will be dynamically added here -->
    </div>    ","null","","","","","","","","","","","",""
"","null","html-keyboard-response","217","338908","0.0-13.0-0.2","lx4ndEBa7j","6500c32aeecc75706e1bcaf1","6617fad957f7c6a12ea16e26","6622ce61afefd392cfa1f4bb","fixation cross","null","","","","","","","","","","","",""
"","1638","html-keyboard-response","218","340547","0.0-13.0-1.2","lx4ndEBa7j","6500c32aeecc75706e1bcaf1","6617fad957f7c6a12ea16e26","6622ce61afefd392cfa1f4bb","image grid","p","","","","","Phylogenetic_Distractor_Threat_target","2500","ongrid","q","1","Phylogenetic","false","experimental"
"","null","html-keyboard-response","219","340706","0.0-13.0-2.2","lx4ndEBa7j","6500c32aeecc75706e1bcaf1","6617fad957f7c6a12ea16e26","6622ce61afefd392cfa1f4bb","
    <div id=""grid-container"">
        <!-- Grid items will be dynamically added here -->
    </div>    ","null","","","","","","","","","","","",""
"","null","html-keyboard-response","220","341423","0.0-13.0-0.3","lx4ndEBa7j","6500c32aeecc75706e1bcaf1","6617fad957f7c6a12ea16e26","6622ce61afefd392cfa1f4bb","fixation cross","null","","","","","","","","","","","",""
"","2160","html-keyboard-response","221","343585","0.0-13.0-1.3","lx4ndEBa7j","6500c32aeecc75706e1bcaf1","6617fad957f7c6a12ea16e26","6622ce61afefd392cfa1f4bb","image grid","p","","","","","Phylogenetic_Distractor_Threat_target","2500","ongrid","q","9","Phylogenetic","false","experimental"
"","null","html-keyboard-response","222","343752","0.0-13.0-2.3","lx4ndEBa7j","6500c32aeecc75706e1bcaf1","6617fad957f7c6a12ea16e26","6622ce61afefd392cfa1f4bb","
    <div id=""grid-container"">
        <!-- Grid items will be dynamically added here -->
    </div>    ","null","","","","","","","","","","","",""
"","null","html-keyboard-response","223","344454","0.0-13.0-0.4","lx4ndEBa7j","6500c32aeecc75706e1bcaf1","6617fad957f7c6a12ea16e26","6622ce61afefd392cfa1f4bb","fixation cross","null","","","","","","","","","","","",""
"","2265","html-keyboard-response","224","346721","0.0-13.0-1.4","lx4ndEBa7j","6500c32aeecc75706e1bcaf1","6617fad957f7c6a12ea16e26","6622ce61afefd392cfa1f4bb","image grid"," ","","","","","Phylogenetic_Distractor_notarget","2500","ongrid"," ","6","Phylogenetic","true","experimental"
"","null","html-keyboard-response","225","346881","0.0-13.0-2.4","lx4ndEBa7j","6500c32aeecc75706e1bcaf1","6617fad957f7c6a12ea16e26","6622ce61afefd392cfa1f4bb","
    <div id=""grid-container"">
        <!-- Grid items will be dynamically added here -->
    </div>    ","null","","","","","","","","","","","",""
"","null","html-keyboard-response","226","347599","0.0-13.0-0.5","lx4ndEBa7j","6500c32aeecc75706e1bcaf1","6617fad957f7c6a12ea16e26","6622ce61afefd392cfa1f4bb","fixation cross","null","","","","","","","","","","","",""
"","1651","html-keyboard-response","227","349251","0.0-13.0-1.5","lx4ndEBa7j","6500c32aeecc75706e1bcaf1","6617fad957f7c6a12ea16e26","6622ce61afefd392cfa1f4bb","image grid","p","","","","","Phylogenetic_Distractor_Threat_target","2500","ongrid","q","8","Phylogenetic","false","experimental"
"","null","html-keyboard-response","228","349413","0.0-13.0-2.5","lx4ndEBa7j","6500c32aeecc75706e1bcaf1","6617fad957f7c6a12ea16e26","6622ce61afefd392cfa1f4bb","
    <div id=""grid-container"">
        <!-- Grid items will be dynamically added here -->
    </div>    ","null","","","","","","","","","","","",""
"","null","html-keyboard-response","229","350128","0.0-13.0-0.6","lx4ndEBa7j","6500c32aeecc75706e1bcaf1","6617fad957f7c6a12ea16e26","6622ce61afefd392cfa1f4bb","fixation cross","null","","","","","","","","","","","",""
"","1742","html-keyboard-response","230","351872","0.0-13.0-1.6","lx4ndEBa7j","6500c32aeecc75706e1bcaf1","6617fad957f7c6a12ea16e26","6622ce61afefd392cfa1f4bb","image grid","p","","","","","Phylogenetic_Distractor_Threat_target","2500","ongrid","q","9","Phylogenetic","false","experimental"
"","null","html-keyboard-response","231","352027","0.0-13.0-2.6","lx4ndEBa7j","6500c32aeecc75706e1bcaf1","6617fad957f7c6a12ea16e26","6622ce61afefd392cfa1f4bb","
    <div id=""grid-container"">
        <!-- Grid items will be dynamically added here -->
    </div>    ","null","","","","","","","","","","","",""
"","null","html-keyboard-response","232","352743","0.0-13.0-0.7","lx4ndEBa7j","6500c32aeecc75706e1bcaf1","6617fad957f7c6a12ea16e26","6622ce61afefd392cfa1f4bb","fixation cross","null","","","","","","","","","","","",""
"","1170","html-keyboard-response","233","353915","0.0-13.0-1.7","lx4ndEBa7j","6500c32aeecc75706e1bcaf1","6617fad957f7c6a12ea16e26","6622ce61afefd392cfa1f4bb","image grid","p","","","","","Phylogenetic_Distractor_Threat_target","2500","ongrid","q","8","Phylogenetic","false","experimental"
"","null","html-keyboard-response","234","354074","0.0-13.0-2.7","lx4ndEBa7j","6500c32aeecc75706e1bcaf1","6617fad957f7c6a12ea16e26","6622ce61afefd392cfa1f4bb","
    <div id=""grid-container"">
        <!-- Grid items will be dynamically added here -->
    </div>    ","null","","","","","","","","","","","",""
"","null","html-keyboard-response","235","354777","0.0-13.0-0.8","lx4ndEBa7j","6500c32aeecc75706e1bcaf1","6617fad957f7c6a12ea16e26","6622ce61afefd392cfa1f4bb","fixation cross","null","","","","","","","","","","","",""
"","1146","html-keyboard-response","236","355923","0.0-13.0-1.8","lx4ndEBa7j","6500c32aeecc75706e1bcaf1","6617fad957f7c6a12ea16e26","6622ce61afefd392cfa1f4bb","image grid","p","","","","","Phylogenetic_Distractor_Threat_target","2500","ongrid","q","8","Phylogenetic","false","experimental"
"","null","html-keyboard-response","237","356088","0.0-13.0-2.8","lx4ndEBa7j","6500c32aeecc75706e1bcaf1","6617fad957f7c6a12ea16e26","6622ce61afefd392cfa1f4bb","
    <div id=""grid-container"">
        <!-- Grid items will be dynamically added here -->
    </div>    ","null","","","","","","","","","","","",""
"","null","html-keyboard-response","238","356805","0.0-13.0-0.9","lx4ndEBa7j","6500c32aeecc75706e1bcaf1","6617fad957f7c6a12ea16e26","6622ce61afefd392cfa1f4bb","fixation cross","null","","","","","","","","","","","",""
"","1077","html-keyboard-response","239","357883","0.0-13.0-1.9","lx4ndEBa7j","6500c32aeecc75706e1bcaf1","6617fad957f7c6a12ea16e26","6622ce61afefd392cfa1f4bb","image grid","p","","","","","Phylogenetic_Distractor_Threat_target","2500","ongrid","q","1","Phylogenetic","false","experimental"
"","null","html-keyboard-response","240","358035","0.0-13.0-2.9","lx4ndEBa7j","6500c32aeecc75706e1bcaf1","6617fad957f7c6a12ea16e26","6622ce61afefd392cfa1f4bb","
    <div id=""grid-container"">
        <!-- Grid items will be dynamically added here -->
    </div>    ","null","","","","","","","","","","","",""
"","null","html-keyboard-response","241","358753","0.0-13.0-0.10","lx4ndEBa7j","6500c32aeecc75706e1bcaf1","6617fad957f7c6a12ea16e26","6622ce61afefd392cfa1f4bb","fixation cross","null","","","","","","","","","","","",""
"","null","html-keyboard-response","242","361264","0.0-13.0-1.10","lx4ndEBa7j","6500c32aeecc75706e1bcaf1","6617fad957f7c6a12ea16e26","6622ce61afefd392cfa1f4bb","
        <div id=""grid-container"">
        <!-- Grid items will be dynamically added here -->
    </div>    ","null","","","","","","","","","","","",""
"","2614","html-keyboard-response","243","361380","0.0-13.0-2.10","lx4ndEBa7j","6500c32aeecc75706e1bcaf1","6617fad957f7c6a12ea16e26","6622ce61afefd392cfa1f4bb","mask grid","p","","","","","Phylogenetic_Distractor_Nonthreat_target","2500","onmask","p","1","Phylogenetic","true","experimental"
"","null","html-keyboard-response","244","362085","0.0-13.0-0.11","lx4ndEBa7j","6500c32aeecc75706e1bcaf1","6617fad957f7c6a12ea16e26","6622ce61afefd392cfa1f4bb","fixation cross","null","","","","","","","","","","","",""
"","1057","html-keyboard-response","245","363144","0.0-13.0-1.11","lx4ndEBa7j","6500c32aeecc75706e1bcaf1","6617fad957f7c6a12ea16e26","6622ce61afefd392cfa1f4bb","image grid"," ","","","","","Phylogenetic_Distractor_Nonthreat_target","2500","ongrid","p","9","Phylogenetic","false","experimental"
"","null","html-keyboard-response","246","363296","0.0-13.0-2.11","lx4ndEBa7j","6500c32aeecc75706e1bcaf1","6617fad957f7c6a12ea16e26","6622ce61afefd392cfa1f4bb","
    <div id=""grid-container"">
        <!-- Grid items will be dynamically added here -->
    </div>    ","null","","","","","","","","","","","",""
"","null","html-keyboard-response","247","364013","0.0-13.0-0.12","lx4ndEBa7j","6500c32aeecc75706e1bcaf1","6617fad957f7c6a12ea16e26","6622ce61afefd392cfa1f4bb","fixation cross","null","","","","","","","","","","","",""
"","852","html-keyboard-response","248","364866","0.0-13.0-1.12","lx4ndEBa7j","6500c32aeecc75706e1bcaf1","6617fad957f7c6a12ea16e26","6622ce61afefd392cfa1f4bb","image grid","p","","","","","Phylogenetic_Distractor_Threat_target","2500","ongrid","q","3","Phylogenetic","false","experimental"
"","null","html-keyboard-response","249","365027","0.0-13.0-2.12","lx4ndEBa7j","6500c32aeecc75706e1bcaf1","6617fad957f7c6a12ea16e26","6622ce61afefd392cfa1f4bb","
    <div id=""grid-container"">
        <!-- Grid items will be dynamically added here -->
    </div>    ","null","","","","","","","","","","","",""
"","null","html-keyboard-response","250","365745","0.0-13.0-0.13","lx4ndEBa7j","6500c32aeecc75706e1bcaf1","6617fad957f7c6a12ea16e26","6622ce61afefd392cfa1f4bb","fixation cross","null","","","","","","","","","","","",""
"","1961","html-keyboard-response","251","367707","0.0-13.0-1.13","lx4ndEBa7j","6500c32aeecc75706e1bcaf1","6617fad957f7c6a12ea16e26","6622ce61afefd392cfa1f4bb","image grid","p","","","","","Phylogenetic_Distractor_Nonthreat_target","2500","ongrid","p","7","Phylogenetic","true","experimental"
"","null","html-keyboard-response","252","367859","0.0-13.0-2.13","lx4ndEBa7j","6500c32aeecc75706e1bcaf1","6617fad957f7c6a12ea16e26","6622ce61afefd392cfa1f4bb","
    <div id=""grid-container"">
        <!-- Grid items will be dynamically added here -->
    </div>    ","null","","","","","","","","","","","",""
"","null","html-keyboard-response","253","368575","0.0-13.0-0.14","lx4ndEBa7j","6500c32aeecc75706e1bcaf1","6617fad957f7c6a12ea16e26","6622ce61afefd392cfa1f4bb","fixation cross","null","","","","","","","","","","","",""
"","1242","html-keyboard-response","254","369818","0.0-13.0-1.14","lx4ndEBa7j","6500c32aeecc75706e1bcaf1","6617fad957f7c6a12ea16e26","6622ce61afefd392cfa1f4bb","image grid","p","","","","","Phylogenetic_Distractor_Nonthreat_target","2500","ongrid","p","3","Phylogenetic","true","experimental"
"","null","html-keyboard-response","255","369972","0.0-13.0-2.14","lx4ndEBa7j","6500c32aeecc75706e1bcaf1","6617fad957f7c6a12ea16e26","6622ce61afefd392cfa1f4bb","
    <div id=""grid-container"">
        <!-- Grid items will be dynamically added here -->
    </div>    ","null","","","","","","","","","","","",""
"","null","html-keyboard-response","256","370692","0.0-13.0-0.15","lx4ndEBa7j","6500c32aeecc75706e1bcaf1","6617fad957f7c6a12ea16e26","6622ce61afefd392cfa1f4bb","fixation cross","null","","","","","","","","","","","",""
"","941","html-keyboard-response","257","371634","0.0-13.0-1.15","lx4ndEBa7j","6500c32aeecc75706e1bcaf1","6617fad957f7c6a12ea16e26","6622ce61afefd392cfa1f4bb","image grid","p","","","","","Phylogenetic_Distractor_Threat_target","2500","ongrid","q","4","Phylogenetic","false","experimental"
"","null","html-keyboard-response","258","371787","0.0-13.0-2.15","lx4ndEBa7j","6500c32aeecc75706e1bcaf1","6617fad957f7c6a12ea16e26","6622ce61afefd392cfa1f4bb","
    <div id=""grid-container"">
        <!-- Grid items will be dynamically added here -->
    </div>    ","null","","","","","","","","","","","",""
"","null","html-keyboard-response","259","372505","0.0-13.0-0.16","lx4ndEBa7j","6500c32aeecc75706e1bcaf1","6617fad957f7c6a12ea16e26","6622ce61afefd392cfa1f4bb","fixation cross","null","","","","","","","","","","","",""
"","1305","html-keyboard-response","260","373811","0.0-13.0-1.16","lx4ndEBa7j","6500c32aeecc75706e1bcaf1","6617fad957f7c6a12ea16e26","6622ce61afefd392cfa1f4bb","image grid","p","","","","","Phylogenetic_Distractor_Nonthreat_target","2500","ongrid","p","4","Phylogenetic","true","experimental"
"","null","html-keyboard-response","261","373966","0.0-13.0-2.16","lx4ndEBa7j","6500c32aeecc75706e1bcaf1","6617fad957f7c6a12ea16e26","6622ce61afefd392cfa1f4bb","
    <div id=""grid-container"">
        <!-- Grid items will be dynamically added here -->
    </div>    ","null","","","","","","","","","","","",""
"","null","html-keyboard-response","262","374685","0.0-13.0-0.17","lx4ndEBa7j","6500c32aeecc75706e1bcaf1","6617fad957f7c6a12ea16e26","6622ce61afefd392cfa1f4bb","fixation cross","null","","","","","","","","","","","",""
"","1334","html-keyboard-response","263","376021","0.0-13.0-1.17","lx4ndEBa7j","6500c32aeecc75706e1bcaf1","6617fad957f7c6a12ea16e26","6622ce61afefd392cfa1f4bb","image grid","p","","","","","Phylogenetic_Distractor_Nonthreat_target","2500","ongrid","p","1","Phylogenetic","true","experimental"
"","null","html-keyboard-response","264","376183","0.0-13.0-2.17","lx4ndEBa7j","6500c32aeecc75706e1bcaf1","6617fad957f7c6a12ea16e26","6622ce61afefd392cfa1f4bb","
    <div id=""grid-container"">
        <!-- Grid items will be dynamically added here -->
    </div>    ","null","","","","","","","","","","","",""
"","null","html-keyboard-response","265","376902","0.0-13.0-0.18","lx4ndEBa7j","6500c32aeecc75706e1bcaf1","6617fad957f7c6a12ea16e26","6622ce61afefd392cfa1f4bb","fixation cross","null","","","","","","","","","","","",""
"","970","html-keyboard-response","266","377872","0.0-13.0-1.18","lx4ndEBa7j","6500c32aeecc75706e1bcaf1","6617fad957f7c6a12ea16e26","6622ce61afefd392cfa1f4bb","image grid","p","","","","","Phylogenetic_Distractor_Threat_target","2500","ongrid","q","2","Phylogenetic","false","experimental"
"","null","html-keyboard-response","267","378029","0.0-13.0-2.18","lx4ndEBa7j","6500c32aeecc75706e1bcaf1","6617fad957f7c6a12ea16e26","6622ce61afefd392cfa1f4bb","
    <div id=""grid-container"">
        <!-- Grid items will be dynamically added here -->
    </div>    ","null","","","","","","","","","","","",""
"","null","html-keyboard-response","268","378745","0.0-13.0-0.19","lx4ndEBa7j","6500c32aeecc75706e1bcaf1","6617fad957f7c6a12ea16e26","6622ce61afefd392cfa1f4bb","fixation cross","null","","","","","","","","","","","",""
"","827","html-keyboard-response","269","379573","0.0-13.0-1.19","lx4ndEBa7j","6500c32aeecc75706e1bcaf1","6617fad957f7c6a12ea16e26","6622ce61afefd392cfa1f4bb","image grid","p","","","","","Phylogenetic_Distractor_Threat_target","2500","ongrid","q","2","Phylogenetic","false","experimental"
"","null","html-keyboard-response","270","379729","0.0-13.0-2.19","lx4ndEBa7j","6500c32aeecc75706e1bcaf1","6617fad957f7c6a12ea16e26","6622ce61afefd392cfa1f4bb","
    <div id=""grid-container"">
        <!-- Grid items will be dynamically added here -->
    </div>    ","null","","","","","","","","","","","",""
"","null","html-keyboard-response","271","380444","0.0-13.0-0.20","lx4ndEBa7j","6500c32aeecc75706e1bcaf1","6617fad957f7c6a12ea16e26","6622ce61afefd392cfa1f4bb","fixation cross","null","","","","","","","","","","","",""
"","808","html-keyboard-response","272","381253","0.0-13.0-1.20","lx4ndEBa7j","6500c32aeecc75706e1bcaf1","6617fad957f7c6a12ea16e26","6622ce61afefd392cfa1f4bb","image grid","p","","","","","Phylogenetic_Distractor_Threat_target","2500","ongrid","q","3","Phylogenetic","false","experimental"
"","null","html-keyboard-response","273","381409","0.0-13.0-2.20","lx4ndEBa7j","6500c32aeecc75706e1bcaf1","6617fad957f7c6a12ea16e26","6622ce61afefd392cfa1f4bb","
    <div id=""grid-container"">
        <!-- Grid items will be dynamically added here -->
    </div>    ","null","","","","","","","","","","","",""
"","null","html-keyboard-response","274","382112","0.0-13.0-0.21","lx4ndEBa7j","6500c32aeecc75706e1bcaf1","6617fad957f7c6a12ea16e26","6622ce61afefd392cfa1f4bb","fixation cross","null","","","","","","","","","","","",""
"","889","html-keyboard-response","275","383002","0.0-13.0-1.21","lx4ndEBa7j","6500c32aeecc75706e1bcaf1","6617fad957f7c6a12ea16e26","6622ce61afefd392cfa1f4bb","image grid","p","","","","","Phylogenetic_Distractor_Nonthreat_target","2500","ongrid","p","2","Phylogenetic","true","experimental"
"","null","html-keyboard-response","276","383157","0.0-13.0-2.21","lx4ndEBa7j","6500c32aeecc75706e1bcaf1","6617fad957f7c6a12ea16e26","6622ce61afefd392cfa1f4bb","
    <div id=""grid-container"">
        <!-- Grid items will be dynamically added here -->
    </div>    ","null","","","","","","","","","","","",""
"","null","html-keyboard-response","277","383875","0.0-13.0-0.22","lx4ndEBa7j","6500c32aeecc75706e1bcaf1","6617fad957f7c6a12ea16e26","6622ce61afefd392cfa1f4bb","fixation cross","null","","","","","","","","","","","",""
"","705","html-keyboard-response","278","384581","0.0-13.0-1.22","lx4ndEBa7j","6500c32aeecc75706e1bcaf1","6617fad957f7c6a12ea16e26","6622ce61afefd392cfa1f4bb","image grid","p","","","","","Phylogenetic_Distractor_Threat_target","2500","ongrid","q","2","Phylogenetic","false","experimental"
"","null","html-keyboard-response","279","384737","0.0-13.0-2.22","lx4ndEBa7j","6500c32aeecc75706e1bcaf1","6617fad957f7c6a12ea16e26","6622ce61afefd392cfa1f4bb","
    <div id=""grid-container"">
        <!-- Grid items will be dynamically added here -->
    </div>    ","null","","","","","","","","","","","",""
"","null","html-keyboard-response","280","385440","0.0-13.0-0.23","lx4ndEBa7j","6500c32aeecc75706e1bcaf1","6617fad957f7c6a12ea16e26","6622ce61afefd392cfa1f4bb","fixation cross","null","","","","","","","","","","","",""
"","910","html-keyboard-response","281","386351","0.0-13.0-1.23","lx4ndEBa7j","6500c32aeecc75706e1bcaf1","6617fad957f7c6a12ea16e26","6622ce61afefd392cfa1f4bb","image grid","p","","","","","Phylogenetic_Distractor_Threat_target","2500","ongrid","q","7","Phylogenetic","false","experimental"
"","null","html-keyboard-response","282","386504","0.0-13.0-2.23","lx4ndEBa7j","6500c32aeecc75706e1bcaf1","6617fad957f7c6a12ea16e26","6622ce61afefd392cfa1f4bb","
    <div id=""grid-container"">
        <!-- Grid items will be dynamically added here -->
    </div>    ","null","","","","","","","","","","","",""
"","null","html-keyboard-response","283","387222","0.0-13.0-0.24","lx4ndEBa7j","6500c32aeecc75706e1bcaf1","6617fad957f7c6a12ea16e26","6622ce61afefd392cfa1f4bb","fixation cross","null","","","","","","","","","","","",""
"","null","html-keyboard-response","284","389733","0.0-13.0-1.24","lx4ndEBa7j","6500c32aeecc75706e1bcaf1","6617fad957f7c6a12ea16e26","6622ce61afefd392cfa1f4bb","
        <div id=""grid-container"">
        <!-- Grid items will be dynamically added here -->
    </div>    ","null","","","","","","","","","","","",""
"","3457","html-keyboard-response","285","390691","0.0-13.0-2.24","lx4ndEBa7j","6500c32aeecc75706e1bcaf1","6617fad957f7c6a12ea16e26","6622ce61afefd392cfa1f4bb","mask grid"," ","","","","","Phylogenetic_Distractor_notarget","2500","onmask"," ","2","Phylogenetic","true","experimental"
"","null","html-keyboard-response","286","391406","0.0-13.0-0.25","lx4ndEBa7j","6500c32aeecc75706e1bcaf1","6617fad957f7c6a12ea16e26","6622ce61afefd392cfa1f4bb","fixation cross","null","","","","","","","","","","","",""
"","1549","html-keyboard-response","287","392956","0.0-13.0-1.25","lx4ndEBa7j","6500c32aeecc75706e1bcaf1","6617fad957f7c6a12ea16e26","6622ce61afefd392cfa1f4bb","image grid","p","","","","","Phylogenetic_Distractor_Nonthreat_target","2500","ongrid","p","3","Phylogenetic","true","experimental"
"","null","html-keyboard-response","288","393117","0.0-13.0-2.25","lx4ndEBa7j","6500c32aeecc75706e1bcaf1","6617fad957f7c6a12ea16e26","6622ce61afefd392cfa1f4bb","
    <div id=""grid-container"">
        <!-- Grid items will be dynamically added here -->
    </div>    ","null","","","","","","","","","","","",""
"","null","html-keyboard-response","289","393834","0.0-13.0-0.26","lx4ndEBa7j","6500c32aeecc75706e1bcaf1","6617fad957f7c6a12ea16e26","6622ce61afefd392cfa1f4bb","fixation cross","null","","","","","","","","","","","",""
"","1321","html-keyboard-response","290","395157","0.0-13.0-1.26","lx4ndEBa7j","6500c32aeecc75706e1bcaf1","6617fad957f7c6a12ea16e26","6622ce61afefd392cfa1f4bb","image grid","p","","","","","Phylogenetic_Distractor_Threat_target","2500","ongrid","q","6","Phylogenetic","false","experimental"
"","null","html-keyboard-response","291","395315","0.0-13.0-2.26","lx4ndEBa7j","6500c32aeecc75706e1bcaf1","6617fad957f7c6a12ea16e26","6622ce61afefd392cfa1f4bb","
    <div id=""grid-container"">
        <!-- Grid items will be dynamically added here -->
    </div>    ","null","","","","","","","","","","","",""
"","null","html-keyboard-response","292","396033","0.0-13.0-0.27","lx4ndEBa7j","6500c32aeecc75706e1bcaf1","6617fad957f7c6a12ea16e26","6622ce61afefd392cfa1f4bb","fixation cross","null","","","","","","","","","","","",""
"","1298","html-keyboard-response","293","397332","0.0-13.0-1.27","lx4ndEBa7j","6500c32aeecc75706e1bcaf1","6617fad957f7c6a12ea16e26","6622ce61afefd392cfa1f4bb","image grid","p","","","","","Phylogenetic_Distractor_Nonthreat_target","2500","ongrid","p","9","Phylogenetic","true","experimental"
"","null","html-keyboard-response","294","397495","0.0-13.0-2.27","lx4ndEBa7j","6500c32aeecc75706e1bcaf1","6617fad957f7c6a12ea16e26","6622ce61afefd392cfa1f4bb","
    <div id=""grid-container"">
        <!-- Grid items will be dynamically added here -->
    </div>    ","null","","","","","","","","","","","",""
"","null","html-keyboard-response","295","398197","0.0-13.0-0.28","lx4ndEBa7j","6500c32aeecc75706e1bcaf1","6617fad957f7c6a12ea16e26","6622ce61afefd392cfa1f4bb","fixation cross","null","","","","","","","","","","","",""
"","764","html-keyboard-response","296","398962","0.0-13.0-1.28","lx4ndEBa7j","6500c32aeecc75706e1bcaf1","6617fad957f7c6a12ea16e26","6622ce61afefd392cfa1f4bb","image grid"," ","","","","","Phylogenetic_Distractor_Nonthreat_target","2500","ongrid","p","8","Phylogenetic","false","experimental"
"","null","html-keyboard-response","297","399128","0.0-13.0-2.28","lx4ndEBa7j","6500c32aeecc75706e1bcaf1","6617fad957f7c6a12ea16e26","6622ce61afefd392cfa1f4bb","
    <div id=""grid-container"">
        <!-- Grid items will be dynamically added here -->
    </div>    ","null","","","","","","","","","","","",""
"","null","html-keyboard-response","298","399842","0.0-13.0-0.29","lx4ndEBa7j","6500c32aeecc75706e1bcaf1","6617fad957f7c6a12ea16e26","6622ce61afefd392cfa1f4bb","fixation cross","null","","","","","","","","","","","",""
"","1333","html-keyboard-response","299","401176","0.0-13.0-1.29","lx4ndEBa7j","6500c32aeecc75706e1bcaf1","6617fad957f7c6a12ea16e26","6622ce61afefd392cfa1f4bb","image grid","p","","","","","Phylogenetic_Distractor_Nonthreat_target","2500","ongrid","p","9","Phylogenetic","true","experimental"
"","null","html-keyboard-response","300","401341","0.0-13.0-2.29","lx4ndEBa7j","6500c32aeecc75706e1bcaf1","6617fad957f7c6a12ea16e26","6622ce61afefd392cfa1f4bb","
    <div id=""grid-container"">
        <!-- Grid items will be dynamically added here -->
    </div>    ","null","","","","","","","","","","","",""
"","null","html-keyboard-response","301","402043","0.0-13.0-0.30","lx4ndEBa7j","6500c32aeecc75706e1bcaf1","6617fad957f7c6a12ea16e26","6622ce61afefd392cfa1f4bb","fixation cross","null","","","","","","","","","","","",""
"","1130","html-keyboard-response","302","403175","0.0-13.0-1.30","lx4ndEBa7j","6500c32aeecc75706e1bcaf1","6617fad957f7c6a12ea16e26","6622ce61afefd392cfa1f4bb","image grid","p","","","","","Phylogenetic_Distractor_Nonthreat_target","2500","ongrid","p","7","Phylogenetic","true","experimental"
"","null","html-keyboard-response","303","403338","0.0-13.0-2.30","lx4ndEBa7j","6500c32aeecc75706e1bcaf1","6617fad957f7c6a12ea16e26","6622ce61afefd392cfa1f4bb","
    <div id=""grid-container"">
        <!-- Grid items will be dynamically added here -->
    </div>    ","null","","","","","","","","","","","",""
"","null","html-keyboard-response","304","404040","0.0-13.0-0.31","lx4ndEBa7j","6500c32aeecc75706e1bcaf1","6617fad957f7c6a12ea16e26","6622ce61afefd392cfa1f4bb","fixation cross","null","","","","","","","","","","","",""
"","1265","html-keyboard-response","305","405307","0.0-13.0-1.31","lx4ndEBa7j","6500c32aeecc75706e1bcaf1","6617fad957f7c6a12ea16e26","6622ce61afefd392cfa1f4bb","image grid","p","","","","","Phylogenetic_Distractor_Threat_target","2500","ongrid","q","6","Phylogenetic","false","experimental"
"","null","html-keyboard-response","306","405469","0.0-13.0-2.31","lx4ndEBa7j","6500c32aeecc75706e1bcaf1","6617fad957f7c6a12ea16e26","6622ce61afefd392cfa1f4bb","
    <div id=""grid-container"">
        <!-- Grid items will be dynamically added here -->
    </div>    ","null","","","","","","","","","","","",""
"","null","html-keyboard-response","307","406187","0.0-13.0-0.32","lx4ndEBa7j","6500c32aeecc75706e1bcaf1","6617fad957f7c6a12ea16e26","6622ce61afefd392cfa1f4bb","fixation cross","null","","","","","","","","","","","",""
"","1550","html-keyboard-response","308","407739","0.0-13.0-1.32","lx4ndEBa7j","6500c32aeecc75706e1bcaf1","6617fad957f7c6a12ea16e26","6622ce61afefd392cfa1f4bb","image grid","p","","","","","Phylogenetic_Distractor_Nonthreat_target","2500","ongrid","p","6","Phylogenetic","true","experimental"
"","null","html-keyboard-response","309","407900","0.0-13.0-2.32","lx4ndEBa7j","6500c32aeecc75706e1bcaf1","6617fad957f7c6a12ea16e26","6622ce61afefd392cfa1f4bb","
    <div id=""grid-container"">
        <!-- Grid items will be dynamically added here -->
    </div>    ","null","","","","","","","","","","","",""
"","null","html-keyboard-response","310","408617","0.0-13.0-0.33","lx4ndEBa7j","6500c32aeecc75706e1bcaf1","6617fad957f7c6a12ea16e26","6622ce61afefd392cfa1f4bb","fixation cross","null","","","","","","","","","","","",""
"","1433","html-keyboard-response","311","410051","0.0-13.0-1.33","lx4ndEBa7j","6500c32aeecc75706e1bcaf1","6617fad957f7c6a12ea16e26","6622ce61afefd392cfa1f4bb","image grid","p","","","","","Phylogenetic_Distractor_Nonthreat_target","2500","ongrid","p","8","Phylogenetic","true","experimental"
"","null","html-keyboard-response","312","410215","0.0-13.0-2.33","lx4ndEBa7j","6500c32aeecc75706e1bcaf1","6617fad957f7c6a12ea16e26","6622ce61afefd392cfa1f4bb","
    <div id=""grid-container"">
        <!-- Grid items will be dynamically added here -->
    </div>    ","null","","","","","","","","","","","",""
"","null","html-keyboard-response","313","410933","0.0-13.0-0.34","lx4ndEBa7j","6500c32aeecc75706e1bcaf1","6617fad957f7c6a12ea16e26","6622ce61afefd392cfa1f4bb","fixation cross","null","","","","","","","","","","","",""
"","1023","html-keyboard-response","314","411956","0.0-13.0-1.34","lx4ndEBa7j","6500c32aeecc75706e1bcaf1","6617fad957f7c6a12ea16e26","6622ce61afefd392cfa1f4bb","image grid","p","","","","","Phylogenetic_Distractor_Nonthreat_target","2500","ongrid","p","2","Phylogenetic","true","experimental"
"","null","html-keyboard-response","315","412111","0.0-13.0-2.34","lx4ndEBa7j","6500c32aeecc75706e1bcaf1","6617fad957f7c6a12ea16e26","6622ce61afefd392cfa1f4bb","
    <div id=""grid-container"">
        <!-- Grid items will be dynamically added here -->
    </div>    ","null","","","","","","","","","","","",""
"","null","html-keyboard-response","316","412830","0.0-13.0-0.35","lx4ndEBa7j","6500c32aeecc75706e1bcaf1","6617fad957f7c6a12ea16e26","6622ce61afefd392cfa1f4bb","fixation cross","null","","","","","","","","","","","",""
"","1841","html-keyboard-response","317","414672","0.0-13.0-1.35","lx4ndEBa7j","6500c32aeecc75706e1bcaf1","6617fad957f7c6a12ea16e26","6622ce61afefd392cfa1f4bb","image grid"," ","","","","","Phylogenetic_Distractor_notarget","2500","ongrid"," ","6","Phylogenetic","true","experimental"
"","null","html-keyboard-response","318","414824","0.0-13.0-2.35","lx4ndEBa7j","6500c32aeecc75706e1bcaf1","6617fad957f7c6a12ea16e26","6622ce61afefd392cfa1f4bb","
    <div id=""grid-container"">
        <!-- Grid items will be dynamically added here -->
    </div>    ","null","","","","","","","","","","","",""
"","null","html-keyboard-response","319","415544","0.0-13.0-0.36","lx4ndEBa7j","6500c32aeecc75706e1bcaf1","6617fad957f7c6a12ea16e26","6622ce61afefd392cfa1f4bb","fixation cross","null","","","","","","","","","","","",""
"","1320","html-keyboard-response","320","416865","0.0-13.0-1.36","lx4ndEBa7j","6500c32aeecc75706e1bcaf1","6617fad957f7c6a12ea16e26","6622ce61afefd392cfa1f4bb","image grid","p","","","","","Phylogenetic_Distractor_Nonthreat_target","2500","ongrid","p","1","Phylogenetic","true","experimental"
"","null","html-keyboard-response","321","417021","0.0-13.0-2.36","lx4ndEBa7j","6500c32aeecc75706e1bcaf1","6617fad957f7c6a12ea16e26","6622ce61afefd392cfa1f4bb","
    <div id=""grid-container"">
        <!-- Grid items will be dynamically added here -->
    </div>    ","null","","","","","","","","","","","",""
"","null","html-keyboard-response","322","417724","0.0-13.0-0.37","lx4ndEBa7j","6500c32aeecc75706e1bcaf1","6617fad957f7c6a12ea16e26","6622ce61afefd392cfa1f4bb","fixation cross","null","","","","","","","","","","","",""
"","789","html-keyboard-response","323","418513","0.0-13.0-1.37","lx4ndEBa7j","6500c32aeecc75706e1bcaf1","6617fad957f7c6a12ea16e26","6622ce61afefd392cfa1f4bb","image grid","p","","","","","Phylogenetic_Distractor_Threat_target","2500","ongrid","q","1","Phylogenetic","false","experimental"
"","null","html-keyboard-response","324","418672","0.0-13.0-2.37","lx4ndEBa7j","6500c32aeecc75706e1bcaf1","6617fad957f7c6a12ea16e26","6622ce61afefd392cfa1f4bb","
    <div id=""grid-container"">
        <!-- Grid items will be dynamically added here -->
    </div>    ","null","","","","","","","","","","","",""
"","null","html-keyboard-response","325","419374","0.0-13.0-0.38","lx4ndEBa7j","6500c32aeecc75706e1bcaf1","6617fad957f7c6a12ea16e26","6622ce61afefd392cfa1f4bb","fixation cross","null","","","","","","","","","","","",""
"","2100","html-keyboard-response","326","421475","0.0-13.0-1.38","lx4ndEBa7j","6500c32aeecc75706e1bcaf1","6617fad957f7c6a12ea16e26","6622ce61afefd392cfa1f4bb","image grid"," ","","","","","Phylogenetic_Distractor_notarget","2500","ongrid"," ","2","Phylogenetic","true","experimental"
"","null","html-keyboard-response","327","421634","0.0-13.0-2.38","lx4ndEBa7j","6500c32aeecc75706e1bcaf1","6617fad957f7c6a12ea16e26","6622ce61afefd392cfa1f4bb","
    <div id=""grid-container"">
        <!-- Grid items will be dynamically added here -->
    </div>    ","null","","","","","","","","","","","",""
"","null","html-keyboard-response","328","422354","0.0-13.0-0.39","lx4ndEBa7j","6500c32aeecc75706e1bcaf1","6617fad957f7c6a12ea16e26","6622ce61afefd392cfa1f4bb","fixation cross","null","","","","","","","","","","","",""
"","1083","html-keyboard-response","329","423437","0.0-13.0-1.39","lx4ndEBa7j","6500c32aeecc75706e1bcaf1","6617fad957f7c6a12ea16e26","6622ce61afefd392cfa1f4bb","image grid","p","","","","","Phylogenetic_Distractor_Nonthreat_target","2500","ongrid","p","3","Phylogenetic","true","experimental"
"","null","html-keyboard-response","330","423599","0.0-13.0-2.39","lx4ndEBa7j","6500c32aeecc75706e1bcaf1","6617fad957f7c6a12ea16e26","6622ce61afefd392cfa1f4bb","
    <div id=""grid-container"">
        <!-- Grid items will be dynamically added here -->
    </div>    ","null","","","","","","","","","","","",""
"","47211","html-keyboard-response","331","471011","0.0-14.0","lx4ndEBa7j","6500c32aeecc75706e1bcaf1","6617fad957f7c6a12ea16e26","6622ce61afefd392cfa1f4bb","break screen"," ","","","","","","","","","","","",""
"","null","html-keyboard-response","332","473525","0.0-15.0-0.0","lx4ndEBa7j","6500c32aeecc75706e1bcaf1","6617fad957f7c6a12ea16e26","6622ce61afefd392cfa1f4bb","fixation cross","null","","","","","","","","","","","",""
"","null","html-keyboard-response","333","474341","0.0-15.0-1.0","lx4ndEBa7j","6500c32aeecc75706e1bcaf1","6617fad957f7c6a12ea16e26","6622ce61afefd392cfa1f4bb","
        <div id=""grid-container"">
        <!-- Grid items will be dynamically added here -->
    </div>    ","null","","","","","","","","","","","",""
"","1441","html-keyboard-response","334","474983","0.0-15.0-2.0","lx4ndEBa7j","6500c32aeecc75706e1bcaf1","6617fad957f7c6a12ea16e26","6622ce61afefd392cfa1f4bb","mask grid","q","","","","","Ontogenetic_Distractor_Threat_target","800","onmask","q","3","Ontogenetic","true","experimental"
"","null","html-keyboard-response","335","475709","0.0-15.0-0.1","lx4ndEBa7j","6500c32aeecc75706e1bcaf1","6617fad957f7c6a12ea16e26","6622ce61afefd392cfa1f4bb","fixation cross","null","","","","","","","","","","","",""
"","null","html-keyboard-response","336","476520","0.0-15.0-1.1","lx4ndEBa7j","6500c32aeecc75706e1bcaf1","6617fad957f7c6a12ea16e26","6622ce61afefd392cfa1f4bb","
        <div id=""grid-container"">
        <!-- Grid items will be dynamically added here -->
    </div>    ","null","","","","","","","","","","","",""
"","2042","html-keyboard-response","337","477763","0.0-15.0-2.1","lx4ndEBa7j","6500c32aeecc75706e1bcaf1","6617fad957f7c6a12ea16e26","6622ce61afefd392cfa1f4bb","mask grid"," ","","","","","Ontogenetic_Distractor_notarget","800","onmask"," ","4","Ontogenetic","true","experimental"
"","null","html-keyboard-response","338","478473","0.0-15.0-0.2","lx4ndEBa7j","6500c32aeecc75706e1bcaf1","6617fad957f7c6a12ea16e26","6622ce61afefd392cfa1f4bb","fixation cross","null","","","","","","","","","","","",""
"","null","html-keyboard-response","339","479288","0.0-15.0-1.2","lx4ndEBa7j","6500c32aeecc75706e1bcaf1","6617fad957f7c6a12ea16e26","6622ce61afefd392cfa1f4bb","
        <div id=""grid-container"">
        <!-- Grid items will be dynamically added here -->
    </div>    ","null","","","","","","","","","","","",""
"","1375","html-keyboard-response","340","479864","0.0-15.0-2.2","lx4ndEBa7j","6500c32aeecc75706e1bcaf1","6617fad957f7c6a12ea16e26","6622ce61afefd392cfa1f4bb","mask grid","q","","","","","Ontogenetic_Distractor_Threat_target","800","onmask","q","6","Ontogenetic","true","experimental"
"","null","html-keyboard-response","341","480572","0.0-15.0-0.3","lx4ndEBa7j","6500c32aeecc75706e1bcaf1","6617fad957f7c6a12ea16e26","6622ce61afefd392cfa1f4bb","fixation cross","null","","","","","","","","","","","",""
"","null","html-keyboard-response","342","481388","0.0-15.0-1.3","lx4ndEBa7j","6500c32aeecc75706e1bcaf1","6617fad957f7c6a12ea16e26","6622ce61afefd392cfa1f4bb","
        <div id=""grid-container"">
        <!-- Grid items will be dynamically added here -->
    </div>    ","null","","","","","","","","","","","",""
"","1405","html-keyboard-response","343","481995","0.0-15.0-2.3","lx4ndEBa7j","6500c32aeecc75706e1bcaf1","6617fad957f7c6a12ea16e26","6622ce61afefd392cfa1f4bb","mask grid","q","","","","","Ontogenetic_Distractor_Threat_target","800","onmask","q","5","Ontogenetic","true","experimental"
"","null","html-keyboard-response","344","482702","0.0-15.0-0.4","lx4ndEBa7j","6500c32aeecc75706e1bcaf1","6617fad957f7c6a12ea16e26","6622ce61afefd392cfa1f4bb","fixation cross","null","","","","","","","","","","","",""
"","null","html-keyboard-response","345","483516","0.0-15.0-1.4","lx4ndEBa7j","6500c32aeecc75706e1bcaf1","6617fad957f7c6a12ea16e26","6622ce61afefd392cfa1f4bb","
        <div id=""grid-container"">
        <!-- Grid items will be dynamically added here -->
    </div>    ","null","","","","","","","","","","","",""
"","1841","html-keyboard-response","346","484557","0.0-15.0-2.4","lx4ndEBa7j","6500c32aeecc75706e1bcaf1","6617fad957f7c6a12ea16e26","6622ce61afefd392cfa1f4bb","mask grid","q","","","","","Ontogenetic_Distractor_notarget","800","onmask"," ","1","Ontogenetic","false","experimental"
"","null","html-keyboard-response","347","485280","0.0-15.0-0.5","lx4ndEBa7j","6500c32aeecc75706e1bcaf1","6617fad957f7c6a12ea16e26","6622ce61afefd392cfa1f4bb","fixation cross","null","","","","","","","","","","","",""
"","null","html-keyboard-response","348","486082","0.0-15.0-1.5","lx4ndEBa7j","6500c32aeecc75706e1bcaf1","6617fad957f7c6a12ea16e26","6622ce61afefd392cfa1f4bb","
        <div id=""grid-container"">
        <!-- Grid items will be dynamically added here -->
    </div>    ","null","","","","","","","","","","","",""
"","1545","html-keyboard-response","349","486827","0.0-15.0-2.5","lx4ndEBa7j","6500c32aeecc75706e1bcaf1","6617fad957f7c6a12ea16e26","6622ce61afefd392cfa1f4bb","mask grid","p","","","","","Ontogenetic_Distractor_Nonthreat_target","800","onmask","p","9","Ontogenetic","true","experimental"
"","null","html-keyboard-response","350","487561","0.0-15.0-0.6","lx4ndEBa7j","6500c32aeecc75706e1bcaf1","6617fad957f7c6a12ea16e26","6622ce61afefd392cfa1f4bb","fixation cross","null","","","","","","","","","","","",""
"","null","html-keyboard-response","351","488374","0.0-15.0-1.6","lx4ndEBa7j","6500c32aeecc75706e1bcaf1","6617fad957f7c6a12ea16e26","6622ce61afefd392cfa1f4bb","
        <div id=""grid-container"">
        <!-- Grid items will be dynamically added here -->
    </div>    ","null","","","","","","","","","","","",""
"","1557","html-keyboard-response","352","489131","0.0-15.0-2.6","lx4ndEBa7j","6500c32aeecc75706e1bcaf1","6617fad957f7c6a12ea16e26","6622ce61afefd392cfa1f4bb","mask grid","q","","","","","Ontogenetic_Distractor_Threat_target","800","onmask","q","4","Ontogenetic","true","experimental"
"","null","html-keyboard-response","353","489856","0.0-15.0-0.7","lx4ndEBa7j","6500c32aeecc75706e1bcaf1","6617fad957f7c6a12ea16e26","6622ce61afefd392cfa1f4bb","fixation cross","null","","","","","","","","","","","",""
"","null","html-keyboard-response","354","490671","0.0-15.0-1.7","lx4ndEBa7j","6500c32aeecc75706e1bcaf1","6617fad957f7c6a12ea16e26","6622ce61afefd392cfa1f4bb","
        <div id=""grid-container"">
        <!-- Grid items will be dynamically added here -->
    </div>    ","null","","","","","","","","","","","",""
"","1540","html-keyboard-response","355","491412","0.0-15.0-2.7","lx4ndEBa7j","6500c32aeecc75706e1bcaf1","6617fad957f7c6a12ea16e26","6622ce61afefd392cfa1f4bb","mask grid","q","","","","","Ontogenetic_Distractor_Threat_target","800","onmask","q","5","Ontogenetic","true","experimental"
"","null","html-keyboard-response","356","492139","0.0-15.0-0.8","lx4ndEBa7j","6500c32aeecc75706e1bcaf1","6617fad957f7c6a12ea16e26","6622ce61afefd392cfa1f4bb","fixation cross","null","","","","","","","","","","","",""
"","null","html-keyboard-response","357","492949","0.0-15.0-1.8","lx4ndEBa7j","6500c32aeecc75706e1bcaf1","6617fad957f7c6a12ea16e26","6622ce61afefd392cfa1f4bb","
        <div id=""grid-container"">
        <!-- Grid items will be dynamically added here -->
    </div>    ","null","","","","","","","","","","","",""
"","1834","html-keyboard-response","358","493984","0.0-15.0-2.8","lx4ndEBa7j","6500c32aeecc75706e1bcaf1","6617fad957f7c6a12ea16e26","6622ce61afefd392cfa1f4bb","mask grid","q","","","","","Ontogenetic_Distractor_Threat_target","800","onmask","q","4","Ontogenetic","true","experimental"
"","null","html-keyboard-response","359","494704","0.0-15.0-0.9","lx4ndEBa7j","6500c32aeecc75706e1bcaf1","6617fad957f7c6a12ea16e26","6622ce61afefd392cfa1f4bb","fixation cross","null","","","","","","","","","","","",""
"","null","html-keyboard-response","360","495521","0.0-15.0-1.9","lx4ndEBa7j","6500c32aeecc75706e1bcaf1","6617fad957f7c6a12ea16e26","6622ce61afefd392cfa1f4bb","
        <div id=""grid-container"">
        <!-- Grid items will be dynamically added here -->
    </div>    ","null","","","","","","","","","","","",""
"","1720","html-keyboard-response","361","496442","0.0-15.0-2.9","lx4ndEBa7j","6500c32aeecc75706e1bcaf1","6617fad957f7c6a12ea16e26","6622ce61afefd392cfa1f4bb","mask grid","p","","","","","Ontogenetic_Distractor_Nonthreat_target","800","onmask","p","1","Ontogenetic","true","experimental"
"","null","html-keyboard-response","362","497167","0.0-15.0-0.10","lx4ndEBa7j","6500c32aeecc75706e1bcaf1","6617fad957f7c6a12ea16e26","6622ce61afefd392cfa1f4bb","fixation cross","null","","","","","","","","","","","",""
"","null","html-keyboard-response","363","497979","0.0-15.0-1.10","lx4ndEBa7j","6500c32aeecc75706e1bcaf1","6617fad957f7c6a12ea16e26","6622ce61afefd392cfa1f4bb","
        <div id=""grid-container"">
        <!-- Grid items will be dynamically added here -->
    </div>    ","null","","","","","","","","","","","",""
"","1275","html-keyboard-response","364","498456","0.0-15.0-2.10","lx4ndEBa7j","6500c32aeecc75706e1bcaf1","6617fad957f7c6a12ea16e26","6622ce61afefd392cfa1f4bb","mask grid","p","","","","","Ontogenetic_Distractor_Nonthreat_target","800","onmask","p","9","Ontogenetic","true","experimental"
"","null","html-keyboard-response","365","499165","0.0-15.0-0.11","lx4ndEBa7j","6500c32aeecc75706e1bcaf1","6617fad957f7c6a12ea16e26","6622ce61afefd392cfa1f4bb","fixation cross","null","","","","","","","","","","","",""
"","null","html-keyboard-response","366","499977","0.0-15.0-1.11","lx4ndEBa7j","6500c32aeecc75706e1bcaf1","6617fad957f7c6a12ea16e26","6622ce61afefd392cfa1f4bb","
        <div id=""grid-container"">
        <!-- Grid items will be dynamically added here -->
    </div>    ","null","","","","","","","","","","","",""
"","854","html-keyboard-response","367","500032","0.0-15.0-2.11","lx4ndEBa7j","6500c32aeecc75706e1bcaf1","6617fad957f7c6a12ea16e26","6622ce61afefd392cfa1f4bb","mask grid","q","","","","","Ontogenetic_Distractor_Threat_target","800","onmask","q","4","Ontogenetic","true","experimental"
"","null","html-keyboard-response","368","500751","0.0-15.0-0.12","lx4ndEBa7j","6500c32aeecc75706e1bcaf1","6617fad957f7c6a12ea16e26","6622ce61afefd392cfa1f4bb","fixation cross","null","","","","","","","","","","","",""
"","null","html-keyboard-response","369","501559","0.0-15.0-1.12","lx4ndEBa7j","6500c32aeecc75706e1bcaf1","6617fad957f7c6a12ea16e26","6622ce61afefd392cfa1f4bb","
        <div id=""grid-container"">
        <!-- Grid items will be dynamically added here -->
    </div>    ","null","","","","","","","","","","","",""
