"success","rt","trial_type","trial_index","time_elapsed","internal_node_id","unique_identifier","subject_id","study_id","session_id","stimulus","response","timeout","failed_images","failed_audio","failed_video","task","time_manipulation","respondedwhen","correctresponse","targetimagelocation","blocktype","correct","roundtype"
"true","4344","fullscreen","0","5351","0.0-0.0","Wwc8LXevUt","650d7a81776dae5a035513ad","6617fad957f7c6a12ea16e26","6622cce2c6838027d30c7022","","","","","","","","","","","","","",""
"","25256","html-keyboard-response","1","30614","0.0-1.0","Wwc8LXevUt","650d7a81776dae5a035513ad","6617fad957f7c6a12ea16e26","6622cce2c6838027d30c7022","instruction screen 0"," ","","","","","","","","","","","",""
"true","","preload","2","41464","0.0-2.0","Wwc8LXevUt","650d7a81776dae5a035513ad","6617fad957f7c6a12ea16e26","6622cce2c6838027d30c7022","","","false","[]","[]","[]","","","","","","","",""
"","36434","html-keyboard-response","3","77901","0.0-3.0","Wwc8LXevUt","650d7a81776dae5a035513ad","6617fad957f7c6a12ea16e26","6622cce2c6838027d30c7022","instruction screen 1"," ","","","","","","","","","","","",""
"","12399","html-keyboard-response","4","90382","0.0-4.0","Wwc8LXevUt","650d7a81776dae5a035513ad","6617fad957f7c6a12ea16e26","6622cce2c6838027d30c7022","instruction screen 2","q","","","","","","","","","","","",""
"","8531","html-keyboard-response","5","98994","0.0-5.0","Wwc8LXevUt","650d7a81776dae5a035513ad","6617fad957f7c6a12ea16e26","6622cce2c6838027d30c7022","instruction screen 3","p","","","","","","","","","","","",""
"","8397","html-keyboard-response","6","107474","0.0-6.0","Wwc8LXevUt","650d7a81776dae5a035513ad","6617fad957f7c6a12ea16e26","6622cce2c6838027d30c7022","instruction screen 4"," ","","","","","","","","","","","",""
"","17386","html-keyboard-response","7","124942","0.0-7.0","Wwc8LXevUt","650d7a81776dae5a035513ad","6617fad957f7c6a12ea16e26","6622cce2c6838027d30c7022","instruction screen 5"," ","","","","","","","","","","","",""
"","null","html-keyboard-response","8","125535","0.0-8.0","Wwc8LXevUt","650d7a81776dae5a035513ad","6617fad957f7c6a12ea16e26","6622cce2c6838027d30c7022","fixation cross","null","","","","","","","","","","","",""
"","null","html-keyboard-response","9","126041","0.0-9.0-0.0","Wwc8LXevUt","650d7a81776dae5a035513ad","6617fad957f7c6a12ea16e26","6622cce2c6838027d30c7022","fixation cross","null","","","","","","","","","","","",""
"","2664","html-keyboard-response","10","128712","0.0-9.0-1.0","Wwc8LXevUt","650d7a81776dae5a035513ad","6617fad957f7c6a12ea16e26","6622cce2c6838027d30c7022","image grid","q","","","","","Phylogenetic_Distractor_Threat_target","3000","ongrid","q","3","Phylogenetic","true","practice"
"","null","html-keyboard-response","11","128871","0.0-9.0-2.0","Wwc8LXevUt","650d7a81776dae5a035513ad","6617fad957f7c6a12ea16e26","6622cce2c6838027d30c7022","
    <div id=""grid-container"">
        <!-- Grid items will be dynamically added here -->
    </div>    ","null","","","","","","","","","","","",""
"","null","html-keyboard-response","12","130082","0.0-9.0-3.0","Wwc8LXevUt","650d7a81776dae5a035513ad","6617fad957f7c6a12ea16e26","6622cce2c6838027d30c7022","feedback screen","null","","","","","","","","","","","",""
"","null","html-keyboard-response","13","130599","0.0-9.0-0.1","Wwc8LXevUt","650d7a81776dae5a035513ad","6617fad957f7c6a12ea16e26","6622cce2c6838027d30c7022","fixation cross","null","","","","","","","","","","","",""
"","1305","html-keyboard-response","14","131908","0.0-9.0-1.1","Wwc8LXevUt","650d7a81776dae5a035513ad","6617fad957f7c6a12ea16e26","6622cce2c6838027d30c7022","image grid","q","","","","","Phylogenetic_Distractor_Threat_target","2900","ongrid","q","6","Phylogenetic","true","practice"
"","null","html-keyboard-response","15","132062","0.0-9.0-2.1","Wwc8LXevUt","650d7a81776dae5a035513ad","6617fad957f7c6a12ea16e26","6622cce2c6838027d30c7022","
    <div id=""grid-container"">
        <!-- Grid items will be dynamically added here -->
    </div>    ","null","","","","","","","","","","","",""
"","null","html-keyboard-response","16","133270","0.0-9.0-3.1","Wwc8LXevUt","650d7a81776dae5a035513ad","6617fad957f7c6a12ea16e26","6622cce2c6838027d30c7022","feedback screen","null","","","","","","","","","","","",""
"","null","html-keyboard-response","17","133787","0.0-9.0-0.2","Wwc8LXevUt","650d7a81776dae5a035513ad","6617fad957f7c6a12ea16e26","6622cce2c6838027d30c7022","fixation cross","null","","","","","","","","","","","",""
"","1433","html-keyboard-response","18","135224","0.0-9.0-1.2","Wwc8LXevUt","650d7a81776dae5a035513ad","6617fad957f7c6a12ea16e26","6622cce2c6838027d30c7022","image grid","p","","","","","Phylogenetic_Distractor_Nonthreat_target","2800","ongrid","p","1","Phylogenetic","true","practice"
"","null","html-keyboard-response","19","135379","0.0-9.0-2.2","Wwc8LXevUt","650d7a81776dae5a035513ad","6617fad957f7c6a12ea16e26","6622cce2c6838027d30c7022","
    <div id=""grid-container"">
        <!-- Grid items will be dynamically added here -->
    </div>    ","null","","","","","","","","","","","",""
"","null","html-keyboard-response","20","136589","0.0-9.0-3.2","Wwc8LXevUt","650d7a81776dae5a035513ad","6617fad957f7c6a12ea16e26","6622cce2c6838027d30c7022","feedback screen","null","","","","","","","","","","","",""
"","null","html-keyboard-response","21","137103","0.0-9.0-0.3","Wwc8LXevUt","650d7a81776dae5a035513ad","6617fad957f7c6a12ea16e26","6622cce2c6838027d30c7022","fixation cross","null","","","","","","","","","","","",""
"","1820","html-keyboard-response","22","138925","0.0-9.0-1.3","Wwc8LXevUt","650d7a81776dae5a035513ad","6617fad957f7c6a12ea16e26","6622cce2c6838027d30c7022","image grid"," ","","","","","Ontogenetic_Distractor_notarget","2700","ongrid"," ","3","Phylogenetic","true","practice"
"","null","html-keyboard-response","23","139077","0.0-9.0-2.3","Wwc8LXevUt","650d7a81776dae5a035513ad","6617fad957f7c6a12ea16e26","6622cce2c6838027d30c7022","
    <div id=""grid-container"">
        <!-- Grid items will be dynamically added here -->
    </div>    ","null","","","","","","","","","","","",""
"","null","html-keyboard-response","24","140285","0.0-9.0-3.3","Wwc8LXevUt","650d7a81776dae5a035513ad","6617fad957f7c6a12ea16e26","6622cce2c6838027d30c7022","feedback screen","null","","","","","","","","","","","",""
"","null","html-keyboard-response","25","140794","0.0-9.0-0.4","Wwc8LXevUt","650d7a81776dae5a035513ad","6617fad957f7c6a12ea16e26","6622cce2c6838027d30c7022","fixation cross","null","","","","","","","","","","","",""
"","2066","html-keyboard-response","26","142866","0.0-9.0-1.4","Wwc8LXevUt","650d7a81776dae5a035513ad","6617fad957f7c6a12ea16e26","6622cce2c6838027d30c7022","image grid","p","","","","","Phylogenetic_Distractor_Nonthreat_target","2600","ongrid","p","5","Phylogenetic","true","practice"
"","null","html-keyboard-response","27","143022","0.0-9.0-2.4","Wwc8LXevUt","650d7a81776dae5a035513ad","6617fad957f7c6a12ea16e26","6622cce2c6838027d30c7022","
    <div id=""grid-container"">
        <!-- Grid items will be dynamically added here -->
    </div>    ","null","","","","","","","","","","","",""
"","null","html-keyboard-response","28","144230","0.0-9.0-3.4","Wwc8LXevUt","650d7a81776dae5a035513ad","6617fad957f7c6a12ea16e26","6622cce2c6838027d30c7022","feedback screen","null","","","","","","","","","","","",""
"","null","html-keyboard-response","29","144747","0.0-9.0-0.5","Wwc8LXevUt","650d7a81776dae5a035513ad","6617fad957f7c6a12ea16e26","6622cce2c6838027d30c7022","fixation cross","null","","","","","","","","","","","",""
"","940","html-keyboard-response","30","145690","0.0-9.0-1.5","Wwc8LXevUt","650d7a81776dae5a035513ad","6617fad957f7c6a12ea16e26","6622cce2c6838027d30c7022","image grid","q","","","","","Phylogenetic_Distractor_Threat_target","2500","ongrid","q","4","Phylogenetic","true","practice"
"","null","html-keyboard-response","31","145846","0.0-9.0-2.5","Wwc8LXevUt","650d7a81776dae5a035513ad","6617fad957f7c6a12ea16e26","6622cce2c6838027d30c7022","
    <div id=""grid-container"">
        <!-- Grid items will be dynamically added here -->
    </div>    ","null","","","","","","","","","","","",""
"","null","html-keyboard-response","32","147051","0.0-9.0-3.5","Wwc8LXevUt","650d7a81776dae5a035513ad","6617fad957f7c6a12ea16e26","6622cce2c6838027d30c7022","feedback screen","null","","","","","","","","","","","",""
"","null","html-keyboard-response","33","147563","0.0-9.0-0.6","Wwc8LXevUt","650d7a81776dae5a035513ad","6617fad957f7c6a12ea16e26","6622cce2c6838027d30c7022","fixation cross","null","","","","","","","","","","","",""
"","1424","html-keyboard-response","34","148990","0.0-9.0-1.6","Wwc8LXevUt","650d7a81776dae5a035513ad","6617fad957f7c6a12ea16e26","6622cce2c6838027d30c7022","image grid"," ","","","","","Ontogenetic_Distractor_notarget","2400","ongrid"," ","1","Phylogenetic","true","practice"
"","null","html-keyboard-response","35","149147","0.0-9.0-2.6","Wwc8LXevUt","650d7a81776dae5a035513ad","6617fad957f7c6a12ea16e26","6622cce2c6838027d30c7022","
    <div id=""grid-container"">
        <!-- Grid items will be dynamically added here -->
    </div>    ","null","","","","","","","","","","","",""
"","null","html-keyboard-response","36","150354","0.0-9.0-3.6","Wwc8LXevUt","650d7a81776dae5a035513ad","6617fad957f7c6a12ea16e26","6622cce2c6838027d30c7022","feedback screen","null","","","","","","","","","","","",""
"","null","html-keyboard-response","37","150868","0.0-9.0-0.7","Wwc8LXevUt","650d7a81776dae5a035513ad","6617fad957f7c6a12ea16e26","6622cce2c6838027d30c7022","fixation cross","null","","","","","","","","","","","",""
"","1960","html-keyboard-response","38","152832","0.0-9.0-1.7","Wwc8LXevUt","650d7a81776dae5a035513ad","6617fad957f7c6a12ea16e26","6622cce2c6838027d30c7022","image grid","q","","","","","Ontogenetic_Distractor_Threat_target","2300","ongrid","q","1","Phylogenetic","true","practice"
"","null","html-keyboard-response","39","152987","0.0-9.0-2.7","Wwc8LXevUt","650d7a81776dae5a035513ad","6617fad957f7c6a12ea16e26","6622cce2c6838027d30c7022","
    <div id=""grid-container"">
        <!-- Grid items will be dynamically added here -->
    </div>    ","null","","","","","","","","","","","",""
"","null","html-keyboard-response","40","154197","0.0-9.0-3.7","Wwc8LXevUt","650d7a81776dae5a035513ad","6617fad957f7c6a12ea16e26","6622cce2c6838027d30c7022","feedback screen","null","","","","","","","","","","","",""
"","null","html-keyboard-response","41","154712","0.0-9.0-0.8","Wwc8LXevUt","650d7a81776dae5a035513ad","6617fad957f7c6a12ea16e26","6622cce2c6838027d30c7022","fixation cross","null","","","","","","","","","","","",""
"","1557","html-keyboard-response","42","156273","0.0-9.0-1.8","Wwc8LXevUt","650d7a81776dae5a035513ad","6617fad957f7c6a12ea16e26","6622cce2c6838027d30c7022","image grid","p","","","","","Phylogenetic_Distractor_Nonthreat_target","2200","ongrid","p","6","Phylogenetic","true","practice"
"","null","html-keyboard-response","43","156430","0.0-9.0-2.8","Wwc8LXevUt","650d7a81776dae5a035513ad","6617fad957f7c6a12ea16e26","6622cce2c6838027d30c7022","
    <div id=""grid-container"">
        <!-- Grid items will be dynamically added here -->
    </div>    ","null","","","","","","","","","","","",""
"","null","html-keyboard-response","44","157639","0.0-9.0-3.8","Wwc8LXevUt","650d7a81776dae5a035513ad","6617fad957f7c6a12ea16e26","6622cce2c6838027d30c7022","feedback screen","null","","","","","","","","","","","",""
"","null","html-keyboard-response","45","158155","0.0-9.0-0.9","Wwc8LXevUt","650d7a81776dae5a035513ad","6617fad957f7c6a12ea16e26","6622cce2c6838027d30c7022","fixation cross","null","","","","","","","","","","","",""
"","null","html-keyboard-response","46","160259","0.0-9.0-1.9","Wwc8LXevUt","650d7a81776dae5a035513ad","6617fad957f7c6a12ea16e26","6622cce2c6838027d30c7022","
        <div id=""grid-container"">
        <!-- Grid items will be dynamically added here -->
    </div>    ","null","","","","","","","","","","","",""
"","2169","html-keyboard-response","47","160330","0.0-9.0-2.9","Wwc8LXevUt","650d7a81776dae5a035513ad","6617fad957f7c6a12ea16e26","6622cce2c6838027d30c7022","mask grid","p","","","","","Phylogenetic_Distractor_Nonthreat_target","2100","onmask","p","5","Phylogenetic","true","practice"
"","null","html-keyboard-response","48","161534","0.0-9.0-3.9","Wwc8LXevUt","650d7a81776dae5a035513ad","6617fad957f7c6a12ea16e26","6622cce2c6838027d30c7022","feedback screen","null","","","","","","","","","","","",""
"","null","html-keyboard-response","49","162047","0.0-9.0-0.10","Wwc8LXevUt","650d7a81776dae5a035513ad","6617fad957f7c6a12ea16e26","6622cce2c6838027d30c7022","fixation cross","null","","","","","","","","","","","",""
"","null","html-keyboard-response","50","164050","0.0-9.0-1.10","Wwc8LXevUt","650d7a81776dae5a035513ad","6617fad957f7c6a12ea16e26","6622cce2c6838027d30c7022","
        <div id=""grid-container"">
        <!-- Grid items will be dynamically added here -->
    </div>    ","null","","","","","","","","","","","",""
"","2689","html-keyboard-response","51","164741","0.0-9.0-2.10","Wwc8LXevUt","650d7a81776dae5a035513ad","6617fad957f7c6a12ea16e26","6622cce2c6838027d30c7022","mask grid"," ","","","","","Phylogenetic_Distractor_notarget","2000","onmask"," ","7","Phylogenetic","true","practice"
"","null","html-keyboard-response","52","165948","0.0-9.0-3.10","Wwc8LXevUt","650d7a81776dae5a035513ad","6617fad957f7c6a12ea16e26","6622cce2c6838027d30c7022","feedback screen","null","","","","","","","","","","","",""
"","null","html-keyboard-response","53","166465","0.0-9.0-0.11","Wwc8LXevUt","650d7a81776dae5a035513ad","6617fad957f7c6a12ea16e26","6622cce2c6838027d30c7022","fixation cross","null","","","","","","","","","","","",""
"","1901","html-keyboard-response","54","168370","0.0-9.0-1.11","Wwc8LXevUt","650d7a81776dae5a035513ad","6617fad957f7c6a12ea16e26","6622cce2c6838027d30c7022","image grid","p","","","","","Ontogenetic_Distractor_Nonthreat_target","1900","ongrid","p","9","Phylogenetic","true","practice"
"","null","html-keyboard-response","55","168524","0.0-9.0-2.11","Wwc8LXevUt","650d7a81776dae5a035513ad","6617fad957f7c6a12ea16e26","6622cce2c6838027d30c7022","
    <div id=""grid-container"">
        <!-- Grid items will be dynamically added here -->
    </div>    ","null","","","","","","","","","","","",""
"","null","html-keyboard-response","56","169734","0.0-9.0-3.11","Wwc8LXevUt","650d7a81776dae5a035513ad","6617fad957f7c6a12ea16e26","6622cce2c6838027d30c7022","feedback screen","null","","","","","","","","","","","",""
"","null","html-keyboard-response","57","170248","0.0-9.0-0.12","Wwc8LXevUt","650d7a81776dae5a035513ad","6617fad957f7c6a12ea16e26","6622cce2c6838027d30c7022","fixation cross","null","","","","","","","","","","","",""
"","1133","html-keyboard-response","58","171385","0.0-9.0-1.12","Wwc8LXevUt","650d7a81776dae5a035513ad","6617fad957f7c6a12ea16e26","6622cce2c6838027d30c7022","image grid","q","","","","","Ontogenetic_Distractor_Threat_target","1800","ongrid","q","7","Phylogenetic","true","practice"
"","null","html-keyboard-response","59","171543","0.0-9.0-2.12","Wwc8LXevUt","650d7a81776dae5a035513ad","6617fad957f7c6a12ea16e26","6622cce2c6838027d30c7022","
    <div id=""grid-container"">
        <!-- Grid items will be dynamically added here -->
    </div>    ","null","","","","","","","","","","","",""
"","null","html-keyboard-response","60","172750","0.0-9.0-3.12","Wwc8LXevUt","650d7a81776dae5a035513ad","6617fad957f7c6a12ea16e26","6622cce2c6838027d30c7022","feedback screen","null","","","","","","","","","","","",""
"","null","html-keyboard-response","61","173264","0.0-9.0-0.13","Wwc8LXevUt","650d7a81776dae5a035513ad","6617fad957f7c6a12ea16e26","6622cce2c6838027d30c7022","fixation cross","null","","","","","","","","","","","",""
"","null","html-keyboard-response","62","174967","0.0-9.0-1.13","Wwc8LXevUt","650d7a81776dae5a035513ad","6617fad957f7c6a12ea16e26","6622cce2c6838027d30c7022","
        <div id=""grid-container"">
        <!-- Grid items will be dynamically added here -->
    </div>    ","null","","","","","","","","","","","",""
"","2882","html-keyboard-response","63","176153","0.0-9.0-2.13","Wwc8LXevUt","650d7a81776dae5a035513ad","6617fad957f7c6a12ea16e26","6622cce2c6838027d30c7022","mask grid"," ","","","","","Phylogenetic_Distractor_notarget","1700","onmask"," ","4","Phylogenetic","true","practice"
"","null","html-keyboard-response","64","177363","0.0-9.0-3.13","Wwc8LXevUt","650d7a81776dae5a035513ad","6617fad957f7c6a12ea16e26","6622cce2c6838027d30c7022","feedback screen","null","","","","","","","","","","","",""
"","null","html-keyboard-response","65","177878","0.0-9.0-0.14","Wwc8LXevUt","650d7a81776dae5a035513ad","6617fad957f7c6a12ea16e26","6622cce2c6838027d30c7022","fixation cross","null","","","","","","","","","","","",""
"","828","html-keyboard-response","66","178711","0.0-9.0-1.14","Wwc8LXevUt","650d7a81776dae5a035513ad","6617fad957f7c6a12ea16e26","6622cce2c6838027d30c7022","image grid","q","","","","","Ontogenetic_Distractor_Threat_target","1600","ongrid","q","4","Phylogenetic","true","practice"
"","null","html-keyboard-response","67","178866","0.0-9.0-2.14","Wwc8LXevUt","650d7a81776dae5a035513ad","6617fad957f7c6a12ea16e26","6622cce2c6838027d30c7022","
    <div id=""grid-container"">
        <!-- Grid items will be dynamically added here -->
    </div>    ","null","","","","","","","","","","","",""
"","null","html-keyboard-response","68","180071","0.0-9.0-3.14","Wwc8LXevUt","650d7a81776dae5a035513ad","6617fad957f7c6a12ea16e26","6622cce2c6838027d30c7022","feedback screen","null","","","","","","","","","","","",""
"","null","html-keyboard-response","69","180581","0.0-9.0-0.15","Wwc8LXevUt","650d7a81776dae5a035513ad","6617fad957f7c6a12ea16e26","6622cce2c6838027d30c7022","fixation cross","null","","","","","","","","","","","",""
"","1106","html-keyboard-response","70","181690","0.0-9.0-1.15","Wwc8LXevUt","650d7a81776dae5a035513ad","6617fad957f7c6a12ea16e26","6622cce2c6838027d30c7022","image grid","p","","","","","Ontogenetic_Distractor_Nonthreat_target","1500","ongrid","p","7","Phylogenetic","true","practice"
"","null","html-keyboard-response","71","181844","0.0-9.0-2.15","Wwc8LXevUt","650d7a81776dae5a035513ad","6617fad957f7c6a12ea16e26","6622cce2c6838027d30c7022","
    <div id=""grid-container"">
        <!-- Grid items will be dynamically added here -->
    </div>    ","null","","","","","","","","","","","",""
"","null","html-keyboard-response","72","183051","0.0-9.0-3.15","Wwc8LXevUt","650d7a81776dae5a035513ad","6617fad957f7c6a12ea16e26","6622cce2c6838027d30c7022","feedback screen","null","","","","","","","","","","","",""
"","null","html-keyboard-response","73","183569","0.0-9.0-0.16","Wwc8LXevUt","650d7a81776dae5a035513ad","6617fad957f7c6a12ea16e26","6622cce2c6838027d30c7022","fixation cross","null","","","","","","","","","","","",""
"","834","html-keyboard-response","74","184407","0.0-9.0-1.16","Wwc8LXevUt","650d7a81776dae5a035513ad","6617fad957f7c6a12ea16e26","6622cce2c6838027d30c7022","image grid","q","","","","","Ontogenetic_Distractor_Threat_target","1400","ongrid","q","8","Phylogenetic","true","practice"
"","null","html-keyboard-response","75","184565","0.0-9.0-2.16","Wwc8LXevUt","650d7a81776dae5a035513ad","6617fad957f7c6a12ea16e26","6622cce2c6838027d30c7022","
    <div id=""grid-container"">
        <!-- Grid items will be dynamically added here -->
    </div>    ","null","","","","","","","","","","","",""
"","null","html-keyboard-response","76","185772","0.0-9.0-3.16","Wwc8LXevUt","650d7a81776dae5a035513ad","6617fad957f7c6a12ea16e26","6622cce2c6838027d30c7022","feedback screen","null","","","","","","","","","","","",""
"","null","html-keyboard-response","77","186287","0.0-9.0-0.17","Wwc8LXevUt","650d7a81776dae5a035513ad","6617fad957f7c6a12ea16e26","6622cce2c6838027d30c7022","fixation cross","null","","","","","","","","","","","",""
"","961","html-keyboard-response","78","187252","0.0-9.0-1.17","Wwc8LXevUt","650d7a81776dae5a035513ad","6617fad957f7c6a12ea16e26","6622cce2c6838027d30c7022","image grid","p","","","","","Ontogenetic_Distractor_Nonthreat_target","1300","ongrid","p","2","Phylogenetic","true","practice"
"","null","html-keyboard-response","79","187409","0.0-9.0-2.17","Wwc8LXevUt","650d7a81776dae5a035513ad","6617fad957f7c6a12ea16e26","6622cce2c6838027d30c7022","
    <div id=""grid-container"">
        <!-- Grid items will be dynamically added here -->
    </div>    ","null","","","","","","","","","","","",""
"","null","html-keyboard-response","80","188616","0.0-9.0-3.17","Wwc8LXevUt","650d7a81776dae5a035513ad","6617fad957f7c6a12ea16e26","6622cce2c6838027d30c7022","feedback screen","null","","","","","","","","","","","",""
"","null","html-keyboard-response","81","189135","0.0-9.0-0.18","Wwc8LXevUt","650d7a81776dae5a035513ad","6617fad957f7c6a12ea16e26","6622cce2c6838027d30c7022","fixation cross","null","","","","","","","","","","","",""
"","761","html-keyboard-response","82","189898","0.0-9.0-1.18","Wwc8LXevUt","650d7a81776dae5a035513ad","6617fad957f7c6a12ea16e26","6622cce2c6838027d30c7022","image grid","q","","","","","Phylogenetic_Distractor_Threat_target","1200","ongrid","q","2","Phylogenetic","true","practice"
"","null","html-keyboard-response","83","190052","0.0-9.0-2.18","Wwc8LXevUt","650d7a81776dae5a035513ad","6617fad957f7c6a12ea16e26","6622cce2c6838027d30c7022","
    <div id=""grid-container"">
        <!-- Grid items will be dynamically added here -->
    </div>    ","null","","","","","","","","","","","",""
"","null","html-keyboard-response","84","191260","0.0-9.0-3.18","Wwc8LXevUt","650d7a81776dae5a035513ad","6617fad957f7c6a12ea16e26","6622cce2c6838027d30c7022","feedback screen","null","","","","","","","","","","","",""
"","null","html-keyboard-response","85","191775","0.0-9.0-0.19","Wwc8LXevUt","650d7a81776dae5a035513ad","6617fad957f7c6a12ea16e26","6622cce2c6838027d30c7022","fixation cross","null","","","","","","","","","","","",""
"","976","html-keyboard-response","86","192757","0.0-9.0-1.19","Wwc8LXevUt","650d7a81776dae5a035513ad","6617fad957f7c6a12ea16e26","6622cce2c6838027d30c7022","image grid","p","","","","","Ontogenetic_Distractor_Nonthreat_target","1100","ongrid","p","9","Phylogenetic","true","practice"
"","null","html-keyboard-response","87","192914","0.0-9.0-2.19","Wwc8LXevUt","650d7a81776dae5a035513ad","6617fad957f7c6a12ea16e26","6622cce2c6838027d30c7022","
    <div id=""grid-container"">
        <!-- Grid items will be dynamically added here -->
    </div>    ","null","","","","","","","","","","","",""
"","null","html-keyboard-response","88","194121","0.0-9.0-3.19","Wwc8LXevUt","650d7a81776dae5a035513ad","6617fad957f7c6a12ea16e26","6622cce2c6838027d30c7022","feedback screen","null","","","","","","","","","","","",""
"","39698","html-keyboard-response","89","233904","0.0-10.0","Wwc8LXevUt","650d7a81776dae5a035513ad","6617fad957f7c6a12ea16e26","6622cce2c6838027d30c7022","pre-experimental_briefing"," ","","","","","","","","","","","",""
"","null","html-keyboard-response","90","236493","0.0-11.0-0.0","Wwc8LXevUt","650d7a81776dae5a035513ad","6617fad957f7c6a12ea16e26","6622cce2c6838027d30c7022","fixation cross","null","","","","","","","","","","","",""
"","null","html-keyboard-response","91","237298","0.0-11.0-1.0","Wwc8LXevUt","650d7a81776dae5a035513ad","6617fad957f7c6a12ea16e26","6622cce2c6838027d30c7022","
        <div id=""grid-container"">
        <!-- Grid items will be dynamically added here -->
    </div>    ","null","","","","","","","","","","","",""
"","1009","html-keyboard-response","92","237513","0.0-11.0-2.0","Wwc8LXevUt","650d7a81776dae5a035513ad","6617fad957f7c6a12ea16e26","6622cce2c6838027d30c7022","mask grid","q","","","","","Phylogenetic_Distractor_Threat_target","800","onmask","q","3","Phylogenetic","true","experimental"
"","null","html-keyboard-response","93","238219","0.0-11.0-0.1","Wwc8LXevUt","650d7a81776dae5a035513ad","6617fad957f7c6a12ea16e26","6622cce2c6838027d30c7022","fixation cross","null","","","","","","","","","","","",""
"","null","html-keyboard-response","94","239024","0.0-11.0-1.1","Wwc8LXevUt","650d7a81776dae5a035513ad","6617fad957f7c6a12ea16e26","6622cce2c6838027d30c7022","
        <div id=""grid-container"">
        <!-- Grid items will be dynamically added here -->
    </div>    ","null","","","","","","","","","","","",""
"","925","html-keyboard-response","95","239151","0.0-11.0-2.1","Wwc8LXevUt","650d7a81776dae5a035513ad","6617fad957f7c6a12ea16e26","6622cce2c6838027d30c7022","mask grid","p","","","","","Phylogenetic_Distractor_Nonthreat_target","800","onmask","p","5","Phylogenetic","true","experimental"
"","null","html-keyboard-response","96","239856","0.0-11.0-0.2","Wwc8LXevUt","650d7a81776dae5a035513ad","6617fad957f7c6a12ea16e26","6622cce2c6838027d30c7022","fixation cross","null","","","","","","","","","","","",""
"","637","html-keyboard-response","97","240498","0.0-11.0-1.2","Wwc8LXevUt","650d7a81776dae5a035513ad","6617fad957f7c6a12ea16e26","6622cce2c6838027d30c7022","image grid","p","","","","","Phylogenetic_Distractor_Nonthreat_target","800","ongrid","p","8","Phylogenetic","true","experimental"
"","null","html-keyboard-response","98","240655","0.0-11.0-2.2","Wwc8LXevUt","650d7a81776dae5a035513ad","6617fad957f7c6a12ea16e26","6622cce2c6838027d30c7022","
    <div id=""grid-container"">
        <!-- Grid items will be dynamically added here -->
    </div>    ","null","","","","","","","","","","","",""
"","null","html-keyboard-response","99","241359","0.0-11.0-0.3","Wwc8LXevUt","650d7a81776dae5a035513ad","6617fad957f7c6a12ea16e26","6622cce2c6838027d30c7022","fixation cross","null","","","","","","","","","","","",""
"","null","html-keyboard-response","100","242164","0.0-11.0-1.3","Wwc8LXevUt","650d7a81776dae5a035513ad","6617fad957f7c6a12ea16e26","6622cce2c6838027d30c7022","
        <div id=""grid-container"">
        <!-- Grid items will be dynamically added here -->
    </div>    ","null","","","","","","","","","","","",""
"","839","html-keyboard-response","101","242205","0.0-11.0-2.3","Wwc8LXevUt","650d7a81776dae5a035513ad","6617fad957f7c6a12ea16e26","6622cce2c6838027d30c7022","mask grid","p","","","","","Phylogenetic_Distractor_Nonthreat_target","800","onmask","p","2","Phylogenetic","true","experimental"
"","null","html-keyboard-response","102","242909","0.0-11.0-0.4","Wwc8LXevUt","650d7a81776dae5a035513ad","6617fad957f7c6a12ea16e26","6622cce2c6838027d30c7022","fixation cross","null","","","","","","","","","","","",""
"","null","html-keyboard-response","103","243712","0.0-11.0-1.4","Wwc8LXevUt","650d7a81776dae5a035513ad","6617fad957f7c6a12ea16e26","6622cce2c6838027d30c7022","
        <div id=""grid-container"">
        <!-- Grid items will be dynamically added here -->
    </div>    ","null","","","","","","","","","","","",""
"","2620","html-keyboard-response","104","245536","0.0-11.0-2.4","Wwc8LXevUt","650d7a81776dae5a035513ad","6617fad957f7c6a12ea16e26","6622cce2c6838027d30c7022","mask grid"," ","","","","","Phylogenetic_Distractor_Nonthreat_target","800","onmask","p","9","Phylogenetic","false","experimental"
"","null","html-keyboard-response","105","246243","0.0-11.0-0.5","Wwc8LXevUt","650d7a81776dae5a035513ad","6617fad957f7c6a12ea16e26","6622cce2c6838027d30c7022","fixation cross","null","","","","","","","","","","","",""
"","null","html-keyboard-response","106","247048","0.0-11.0-1.5","Wwc8LXevUt","650d7a81776dae5a035513ad","6617fad957f7c6a12ea16e26","6622cce2c6838027d30c7022","
        <div id=""grid-container"">
        <!-- Grid items will be dynamically added here -->
    </div>    ","null","","","","","","","","","","","",""
"","846","html-keyboard-response","107","247097","0.0-11.0-2.5","Wwc8LXevUt","650d7a81776dae5a035513ad","6617fad957f7c6a12ea16e26","6622cce2c6838027d30c7022","mask grid"," ","","","","","Phylogenetic_Distractor_notarget","800","onmask"," ","4","Phylogenetic","true","experimental"
"","null","html-keyboard-response","108","247801","0.0-11.0-0.6","Wwc8LXevUt","650d7a81776dae5a035513ad","6617fad957f7c6a12ea16e26","6622cce2c6838027d30c7022","fixation cross","null","","","","","","","","","","","",""
"","null","html-keyboard-response","109","248607","0.0-11.0-1.6","Wwc8LXevUt","650d7a81776dae5a035513ad","6617fad957f7c6a12ea16e26","6622cce2c6838027d30c7022","
        <div id=""grid-container"">
        <!-- Grid items will be dynamically added here -->
    </div>    ","null","","","","","","","","","","","",""
"","927","html-keyboard-response","110","248738","0.0-11.0-2.6","Wwc8LXevUt","650d7a81776dae5a035513ad","6617fad957f7c6a12ea16e26","6622cce2c6838027d30c7022","mask grid","p","","","","","Phylogenetic_Distractor_Nonthreat_target","800","onmask","p","7","Phylogenetic","true","experimental"
"","null","html-keyboard-response","111","249444","0.0-11.0-0.7","Wwc8LXevUt","650d7a81776dae5a035513ad","6617fad957f7c6a12ea16e26","6622cce2c6838027d30c7022","fixation cross","null","","","","","","","","","","","",""
"","null","html-keyboard-response","112","250249","0.0-11.0-1.7","Wwc8LXevUt","650d7a81776dae5a035513ad","6617fad957f7c6a12ea16e26","6622cce2c6838027d30c7022","
        <div id=""grid-container"">
        <!-- Grid items will be dynamically added here -->
    </div>    ","null","","","","","","","","","","","",""
"","976","html-keyboard-response","113","250427","0.0-11.0-2.7","Wwc8LXevUt","650d7a81776dae5a035513ad","6617fad957f7c6a12ea16e26","6622cce2c6838027d30c7022","mask grid","q","","","","","Phylogenetic_Distractor_Threat_target","800","onmask","q","7","Phylogenetic","true","experimental"
"","416","html-keyboard-response","114","251136","0.0-11.0-0.8","Wwc8LXevUt","650d7a81776dae5a035513ad","6617fad957f7c6a12ea16e26","6622cce2c6838027d30c7022","fixation cross","q","","","","","","","","","","","",""
"","682","html-keyboard-response","115","251822","0.0-11.0-1.8","Wwc8LXevUt","650d7a81776dae5a035513ad","6617fad957f7c6a12ea16e26","6622cce2c6838027d30c7022","image grid","q","","","","","Phylogenetic_Distractor_Threat_target","800","ongrid","q","4","Phylogenetic","true","experimental"
"","null","html-keyboard-response","116","251979","0.0-11.0-2.8","Wwc8LXevUt","650d7a81776dae5a035513ad","6617fad957f7c6a12ea16e26","6622cce2c6838027d30c7022","
    <div id=""grid-container"">
        <!-- Grid items will be dynamically added here -->
    </div>    ","null","","","","","","","","","","","",""
"","null","html-keyboard-response","117","252684","0.0-11.0-0.9","Wwc8LXevUt","650d7a81776dae5a035513ad","6617fad957f7c6a12ea16e26","6622cce2c6838027d30c7022","fixation cross","null","","","","","","","","","","","",""
"","null","html-keyboard-response","118","253489","0.0-11.0-1.9","Wwc8LXevUt","650d7a81776dae5a035513ad","6617fad957f7c6a12ea16e26","6622cce2c6838027d30c7022","
        <div id=""grid-container"">
        <!-- Grid items will be dynamically added here -->
    </div>    ","null","","","","","","","","","","","",""
"","922","html-keyboard-response","119","253615","0.0-11.0-2.9","Wwc8LXevUt","650d7a81776dae5a035513ad","6617fad957f7c6a12ea16e26","6622cce2c6838027d30c7022","mask grid","p","","","","","Phylogenetic_Distractor_Nonthreat_target","800","onmask","p","4","Phylogenetic","true","experimental"
"","null","html-keyboard-response","120","254322","0.0-11.0-0.10","Wwc8LXevUt","650d7a81776dae5a035513ad","6617fad957f7c6a12ea16e26","6622cce2c6838027d30c7022","fixation cross","null","","","","","","","","","","","",""
"","null","html-keyboard-response","121","255127","0.0-11.0-1.10","Wwc8LXevUt","650d7a81776dae5a035513ad","6617fad957f7c6a12ea16e26","6622cce2c6838027d30c7022","
        <div id=""grid-container"">
        <!-- Grid items will be dynamically added here -->
    </div>    ","null","","","","","","","","","","","",""
"","1295","html-keyboard-response","122","255625","0.0-11.0-2.10","Wwc8LXevUt","650d7a81776dae5a035513ad","6617fad957f7c6a12ea16e26","6622cce2c6838027d30c7022","mask grid","p","","","","","Phylogenetic_Distractor_Nonthreat_target","800","onmask","p","6","Phylogenetic","true","experimental"
"","null","html-keyboard-response","123","256333","0.0-11.0-0.11","Wwc8LXevUt","650d7a81776dae5a035513ad","6617fad957f7c6a12ea16e26","6622cce2c6838027d30c7022","fixation cross","null","","","","","","","","","","","",""
"","null","html-keyboard-response","124","257138","0.0-11.0-1.11","Wwc8LXevUt","650d7a81776dae5a035513ad","6617fad957f7c6a12ea16e26","6622cce2c6838027d30c7022","
        <div id=""grid-container"">
        <!-- Grid items will be dynamically added here -->
    </div>    ","null","","","","","","","","","","","",""
"","838","html-keyboard-response","125","257179","0.0-11.0-2.11","Wwc8LXevUt","650d7a81776dae5a035513ad","6617fad957f7c6a12ea16e26","6622cce2c6838027d30c7022","mask grid","q","","","","","Phylogenetic_Distractor_Nonthreat_target","800","onmask","p","1","Phylogenetic","false","experimental"
"","null","html-keyboard-response","126","257884","0.0-11.0-0.12","Wwc8LXevUt","650d7a81776dae5a035513ad","6617fad957f7c6a12ea16e26","6622cce2c6838027d30c7022","fixation cross","null","","","","","","","","","","","",""
"","684","html-keyboard-response","127","258573","0.0-11.0-1.12","Wwc8LXevUt","650d7a81776dae5a035513ad","6617fad957f7c6a12ea16e26","6622cce2c6838027d30c7022","image grid","q","","","","","Phylogenetic_Distractor_Threat_target","800","ongrid","q","4","Phylogenetic","true","experimental"
"","null","html-keyboard-response","128","258730","0.0-11.0-2.12","Wwc8LXevUt","650d7a81776dae5a035513ad","6617fad957f7c6a12ea16e26","6622cce2c6838027d30c7022","
    <div id=""grid-container"">
        <!-- Grid items will be dynamically added here -->
    </div>    ","null","","","","","","","","","","","",""
"","null","html-keyboard-response","129","259433","0.0-11.0-0.13","Wwc8LXevUt","650d7a81776dae5a035513ad","6617fad957f7c6a12ea16e26","6622cce2c6838027d30c7022","fixation cross","null","","","","","","","","","","","",""
"","null","html-keyboard-response","130","260240","0.0-11.0-1.13","Wwc8LXevUt","650d7a81776dae5a035513ad","6617fad957f7c6a12ea16e26","6622cce2c6838027d30c7022","
        <div id=""grid-container"">
        <!-- Grid items will be dynamically added here -->
    </div>    ","null","","","","","","","","","","","",""
"","839","html-keyboard-response","131","260280","0.0-11.0-2.13","Wwc8LXevUt","650d7a81776dae5a035513ad","6617fad957f7c6a12ea16e26","6622cce2c6838027d30c7022","mask grid","p","","","","","Phylogenetic_Distractor_Nonthreat_target","800","onmask","p","5","Phylogenetic","true","experimental"
"","null","html-keyboard-response","132","260985","0.0-11.0-0.14","Wwc8LXevUt","650d7a81776dae5a035513ad","6617fad957f7c6a12ea16e26","6622cce2c6838027d30c7022","fixation cross","null","","","","","","","","","","","",""
"","null","html-keyboard-response","133","261790","0.0-11.0-1.14","Wwc8LXevUt","650d7a81776dae5a035513ad","6617fad957f7c6a12ea16e26","6622cce2c6838027d30c7022","
        <div id=""grid-container"">
        <!-- Grid items will be dynamically added here -->
    </div>    ","null","","","","","","","","","","","",""
"","1153","html-keyboard-response","134","262146","0.0-11.0-2.14","Wwc8LXevUt","650d7a81776dae5a035513ad","6617fad957f7c6a12ea16e26","6622cce2c6838027d30c7022","mask grid","p","","","","","Phylogenetic_Distractor_Nonthreat_target","800","onmask","p","1","Phylogenetic","true","experimental"
"","null","html-keyboard-response","135","262853","0.0-11.0-0.15","Wwc8LXevUt","650d7a81776dae5a035513ad","6617fad957f7c6a12ea16e26","6622cce2c6838027d30c7022","fixation cross","null","","","","","","","","","","","",""
"","null","html-keyboard-response","136","263659","0.0-11.0-1.15","Wwc8LXevUt","650d7a81776dae5a035513ad","6617fad957f7c6a12ea16e26","6622cce2c6838027d30c7022","
        <div id=""grid-container"">
        <!-- Grid items will be dynamically added here -->
    </div>    ","null","","","","","","","","","","","",""
"","867","html-keyboard-response","137","263729","0.0-11.0-2.15","Wwc8LXevUt","650d7a81776dae5a035513ad","6617fad957f7c6a12ea16e26","6622cce2c6838027d30c7022","mask grid","q","","","","","Phylogenetic_Distractor_Threat_target","800","onmask","q","5","Phylogenetic","true","experimental"
"","null","html-keyboard-response","138","264434","0.0-11.0-0.16","Wwc8LXevUt","650d7a81776dae5a035513ad","6617fad957f7c6a12ea16e26","6622cce2c6838027d30c7022","fixation cross","null","","","","","","","","","","","",""
"","null","html-keyboard-response","139","265238","0.0-11.0-1.16","Wwc8LXevUt","650d7a81776dae5a035513ad","6617fad957f7c6a12ea16e26","6622cce2c6838027d30c7022","
        <div id=""grid-container"">
        <!-- Grid items will be dynamically added here -->
    </div>    ","null","","","","","","","","","","","",""
"","908","html-keyboard-response","140","265349","0.0-11.0-2.16","Wwc8LXevUt","650d7a81776dae5a035513ad","6617fad957f7c6a12ea16e26","6622cce2c6838027d30c7022","mask grid","p","","","","","Phylogenetic_Distractor_Nonthreat_target","800","onmask","p","6","Phylogenetic","true","experimental"
"","null","html-keyboard-response","141","266056","0.0-11.0-0.17","Wwc8LXevUt","650d7a81776dae5a035513ad","6617fad957f7c6a12ea16e26","6622cce2c6838027d30c7022","fixation cross","null","","","","","","","","","","","",""
"","null","html-keyboard-response","142","266861","0.0-11.0-1.17","Wwc8LXevUt","650d7a81776dae5a035513ad","6617fad957f7c6a12ea16e26","6622cce2c6838027d30c7022","
        <div id=""grid-container"">
        <!-- Grid items will be dynamically added here -->
    </div>    ","null","","","","","","","","","","","",""
"","893","html-keyboard-response","143","266958","0.0-11.0-2.17","Wwc8LXevUt","650d7a81776dae5a035513ad","6617fad957f7c6a12ea16e26","6622cce2c6838027d30c7022","mask grid","q","","","","","Phylogenetic_Distractor_Threat_target","800","onmask","q","7","Phylogenetic","true","experimental"
"","null","html-keyboard-response","144","267663","0.0-11.0-0.18","Wwc8LXevUt","650d7a81776dae5a035513ad","6617fad957f7c6a12ea16e26","6622cce2c6838027d30c7022","fixation cross","null","","","","","","","","","","","",""
"","null","html-keyboard-response","145","268468","0.0-11.0-1.18","Wwc8LXevUt","650d7a81776dae5a035513ad","6617fad957f7c6a12ea16e26","6622cce2c6838027d30c7022","
        <div id=""grid-container"">
        <!-- Grid items will be dynamically added here -->
    </div>    ","null","","","","","","","","","","","",""
"","841","html-keyboard-response","146","268512","0.0-11.0-2.18","Wwc8LXevUt","650d7a81776dae5a035513ad","6617fad957f7c6a12ea16e26","6622cce2c6838027d30c7022","mask grid","q","","","","","Phylogenetic_Distractor_Threat_target","800","onmask","q","4","Phylogenetic","true","experimental"
"","null","html-keyboard-response","147","269217","0.0-11.0-0.19","Wwc8LXevUt","650d7a81776dae5a035513ad","6617fad957f7c6a12ea16e26","6622cce2c6838027d30c7022","fixation cross","null","","","","","","","","","","","",""
"","701","html-keyboard-response","148","269922","0.0-11.0-1.19","Wwc8LXevUt","650d7a81776dae5a035513ad","6617fad957f7c6a12ea16e26","6622cce2c6838027d30c7022","image grid","q","","","","","Phylogenetic_Distractor_Threat_target","800","ongrid","q","2","Phylogenetic","true","experimental"
"","null","html-keyboard-response","149","270077","0.0-11.0-2.19","Wwc8LXevUt","650d7a81776dae5a035513ad","6617fad957f7c6a12ea16e26","6622cce2c6838027d30c7022","
    <div id=""grid-container"">
        <!-- Grid items will be dynamically added here -->
    </div>    ","null","","","","","","","","","","","",""
"","null","html-keyboard-response","150","270781","0.0-11.0-0.20","Wwc8LXevUt","650d7a81776dae5a035513ad","6617fad957f7c6a12ea16e26","6622cce2c6838027d30c7022","fixation cross","null","","","","","","","","","","","",""
"","null","html-keyboard-response","151","271585","0.0-11.0-1.20","Wwc8LXevUt","650d7a81776dae5a035513ad","6617fad957f7c6a12ea16e26","6622cce2c6838027d30c7022","
        <div id=""grid-container"">
        <!-- Grid items will be dynamically added here -->
    </div>    ","null","","","","","","","","","","","",""
"","872","html-keyboard-response","152","271660","0.0-11.0-2.20","Wwc8LXevUt","650d7a81776dae5a035513ad","6617fad957f7c6a12ea16e26","6622cce2c6838027d30c7022","mask grid","p","","","","","Phylogenetic_Distractor_notarget","800","onmask"," ","8","Phylogenetic","false","experimental"
"","454","html-keyboard-response","153","272367","0.0-11.0-0.21","Wwc8LXevUt","650d7a81776dae5a035513ad","6617fad957f7c6a12ea16e26","6622cce2c6838027d30c7022","fixation cross"," ","","","","","","","","","","","",""
"","780","html-keyboard-response","154","273151","0.0-11.0-1.21","Wwc8LXevUt","650d7a81776dae5a035513ad","6617fad957f7c6a12ea16e26","6622cce2c6838027d30c7022","image grid","q","","","","","Phylogenetic_Distractor_Threat_target","800","ongrid","q","9","Phylogenetic","true","experimental"
"","null","html-keyboard-response","155","273310","0.0-11.0-2.21","Wwc8LXevUt","650d7a81776dae5a035513ad","6617fad957f7c6a12ea16e26","6622cce2c6838027d30c7022","
    <div id=""grid-container"">
        <!-- Grid items will be dynamically added here -->
    </div>    ","null","","","","","","","","","","","",""
"","null","html-keyboard-response","156","274015","0.0-11.0-0.22","Wwc8LXevUt","650d7a81776dae5a035513ad","6617fad957f7c6a12ea16e26","6622cce2c6838027d30c7022","fixation cross","null","","","","","","","","","","","",""
"","null","html-keyboard-response","157","274819","0.0-11.0-1.22","Wwc8LXevUt","650d7a81776dae5a035513ad","6617fad957f7c6a12ea16e26","6622cce2c6838027d30c7022","
        <div id=""grid-container"">
        <!-- Grid items will be dynamically added here -->
    </div>    ","null","","","","","","","","","","","",""
"","840","html-keyboard-response","158","274861","0.0-11.0-2.22","Wwc8LXevUt","650d7a81776dae5a035513ad","6617fad957f7c6a12ea16e26","6622cce2c6838027d30c7022","mask grid","p","","","","","Phylogenetic_Distractor_Nonthreat_target","800","onmask","p","4","Phylogenetic","true","experimental"
"","null","html-keyboard-response","159","275566","0.0-11.0-0.23","Wwc8LXevUt","650d7a81776dae5a035513ad","6617fad957f7c6a12ea16e26","6622cce2c6838027d30c7022","fixation cross","null","","","","","","","","","","","",""
"","null","html-keyboard-response","160","276370","0.0-11.0-1.23","Wwc8LXevUt","650d7a81776dae5a035513ad","6617fad957f7c6a12ea16e26","6622cce2c6838027d30c7022","
        <div id=""grid-container"">
        <!-- Grid items will be dynamically added here -->
    </div>    ","null","","","","","","","","","","","",""
"","1027","html-keyboard-response","161","276599","0.0-11.0-2.23","Wwc8LXevUt","650d7a81776dae5a035513ad","6617fad957f7c6a12ea16e26","6622cce2c6838027d30c7022","mask grid","q","","","","","Phylogenetic_Distractor_Threat_target","800","onmask","q","6","Phylogenetic","true","experimental"
"","null","html-keyboard-response","162","277306","0.0-11.0-0.24","Wwc8LXevUt","650d7a81776dae5a035513ad","6617fad957f7c6a12ea16e26","6622cce2c6838027d30c7022","fixation cross","null","","","","","","","","","","","",""
"","null","html-keyboard-response","163","278111","0.0-11.0-1.24","Wwc8LXevUt","650d7a81776dae5a035513ad","6617fad957f7c6a12ea16e26","6622cce2c6838027d30c7022","
        <div id=""grid-container"">
        <!-- Grid items will be dynamically added here -->
    </div>    ","null","","","","","","","","","","","",""
"","989","html-keyboard-response","164","278304","0.0-11.0-2.24","Wwc8LXevUt","650d7a81776dae5a035513ad","6617fad957f7c6a12ea16e26","6622cce2c6838027d30c7022","mask grid","p","","","","","Phylogenetic_Distractor_Threat_target","800","onmask","q","4","Phylogenetic","false","experimental"
"","null","html-keyboard-response","165","279014","0.0-11.0-0.25","Wwc8LXevUt","650d7a81776dae5a035513ad","6617fad957f7c6a12ea16e26","6622cce2c6838027d30c7022","fixation cross","null","","","","","","","","","","","",""
"","706","html-keyboard-response","166","279723","0.0-11.0-1.25","Wwc8LXevUt","650d7a81776dae5a035513ad","6617fad957f7c6a12ea16e26","6622cce2c6838027d30c7022","image grid","q","","","","","Phylogenetic_Distractor_Threat_target","800","ongrid","q","1","Phylogenetic","true","experimental"
"","null","html-keyboard-response","167","279878","0.0-11.0-2.25","Wwc8LXevUt","650d7a81776dae5a035513ad","6617fad957f7c6a12ea16e26","6622cce2c6838027d30c7022","
    <div id=""grid-container"">
        <!-- Grid items will be dynamically added here -->
    </div>    ","null","","","","","","","","","","","",""
"","null","html-keyboard-response","168","280583","0.0-11.0-0.26","Wwc8LXevUt","650d7a81776dae5a035513ad","6617fad957f7c6a12ea16e26","6622cce2c6838027d30c7022","fixation cross","null","","","","","","","","","","","",""
"","null","html-keyboard-response","169","281388","0.0-11.0-1.26","Wwc8LXevUt","650d7a81776dae5a035513ad","6617fad957f7c6a12ea16e26","6622cce2c6838027d30c7022","
        <div id=""grid-container"">
        <!-- Grid items will be dynamically added here -->
    </div>    ","null","","","","","","","","","","","",""
"","843","html-keyboard-response","170","281434","0.0-11.0-2.26","Wwc8LXevUt","650d7a81776dae5a035513ad","6617fad957f7c6a12ea16e26","6622cce2c6838027d30c7022","mask grid","p","","","","","Phylogenetic_Distractor_Nonthreat_target","800","onmask","p","7","Phylogenetic","true","experimental"
"","null","html-keyboard-response","171","282139","0.0-11.0-0.27","Wwc8LXevUt","650d7a81776dae5a035513ad","6617fad957f7c6a12ea16e26","6622cce2c6838027d30c7022","fixation cross","null","","","","","","","","","","","",""
"","750","html-keyboard-response","172","282893","0.0-11.0-1.27","Wwc8LXevUt","650d7a81776dae5a035513ad","6617fad957f7c6a12ea16e26","6622cce2c6838027d30c7022","image grid","q","","","","","Phylogenetic_Distractor_Threat_target","800","ongrid","q","2","Phylogenetic","true","experimental"
"","null","html-keyboard-response","173","283052","0.0-11.0-2.27","Wwc8LXevUt","650d7a81776dae5a035513ad","6617fad957f7c6a12ea16e26","6622cce2c6838027d30c7022","
    <div id=""grid-container"">
        <!-- Grid items will be dynamically added here -->
    </div>    ","null","","","","","","","","","","","",""
"","null","html-keyboard-response","174","283758","0.0-11.0-0.28","Wwc8LXevUt","650d7a81776dae5a035513ad","6617fad957f7c6a12ea16e26","6622cce2c6838027d30c7022","fixation cross","null","","","","","","","","","","","",""
"","644","html-keyboard-response","175","284409","0.0-11.0-1.28","Wwc8LXevUt","650d7a81776dae5a035513ad","6617fad957f7c6a12ea16e26","6622cce2c6838027d30c7022","image grid","q","","","","","Phylogenetic_Distractor_Threat_target","800","ongrid","q","5","Phylogenetic","true","experimental"
"","null","html-keyboard-response","176","284563","0.0-11.0-2.28","Wwc8LXevUt","650d7a81776dae5a035513ad","6617fad957f7c6a12ea16e26","6622cce2c6838027d30c7022","
    <div id=""grid-container"">
        <!-- Grid items will be dynamically added here -->
    </div>    ","null","","","","","","","","","","","",""
"","null","html-keyboard-response","177","285266","0.0-11.0-0.29","Wwc8LXevUt","650d7a81776dae5a035513ad","6617fad957f7c6a12ea16e26","6622cce2c6838027d30c7022","fixation cross","null","","","","","","","","","","","",""
"","728","html-keyboard-response","178","285997","0.0-11.0-1.29","Wwc8LXevUt","650d7a81776dae5a035513ad","6617fad957f7c6a12ea16e26","6622cce2c6838027d30c7022","image grid","p","","","","","Phylogenetic_Distractor_Nonthreat_target","800","ongrid","p","3","Phylogenetic","true","experimental"
"","null","html-keyboard-response","179","286154","0.0-11.0-2.29","Wwc8LXevUt","650d7a81776dae5a035513ad","6617fad957f7c6a12ea16e26","6622cce2c6838027d30c7022","
    <div id=""grid-container"">
        <!-- Grid items will be dynamically added here -->
    </div>    ","null","","","","","","","","","","","",""
"","null","html-keyboard-response","180","286859","0.0-11.0-0.30","Wwc8LXevUt","650d7a81776dae5a035513ad","6617fad957f7c6a12ea16e26","6622cce2c6838027d30c7022","fixation cross","null","","","","","","","","","","","",""
"","652","html-keyboard-response","181","287515","0.0-11.0-1.30","Wwc8LXevUt","650d7a81776dae5a035513ad","6617fad957f7c6a12ea16e26","6622cce2c6838027d30c7022","image grid","q","","","","","Phylogenetic_Distractor_Threat_target","800","ongrid","q","6","Phylogenetic","true","experimental"
"","null","html-keyboard-response","182","287671","0.0-11.0-2.30","Wwc8LXevUt","650d7a81776dae5a035513ad","6617fad957f7c6a12ea16e26","6622cce2c6838027d30c7022","
    <div id=""grid-container"">
        <!-- Grid items will be dynamically added here -->
    </div>    ","null","","","","","","","","","","","",""
"","null","html-keyboard-response","183","288375","0.0-11.0-0.31","Wwc8LXevUt","650d7a81776dae5a035513ad","6617fad957f7c6a12ea16e26","6622cce2c6838027d30c7022","fixation cross","null","","","","","","","","","","","",""
"","null","html-keyboard-response","184","289179","0.0-11.0-1.31","Wwc8LXevUt","650d7a81776dae5a035513ad","6617fad957f7c6a12ea16e26","6622cce2c6838027d30c7022","
        <div id=""grid-container"">
        <!-- Grid items will be dynamically added here -->
    </div>    ","null","","","","","","","","","","","",""
"","839","html-keyboard-response","185","289221","0.0-11.0-2.31","Wwc8LXevUt","650d7a81776dae5a035513ad","6617fad957f7c6a12ea16e26","6622cce2c6838027d30c7022","mask grid"," ","","","","","Phylogenetic_Distractor_notarget","800","onmask"," ","7","Phylogenetic","true","experimental"
"","null","html-keyboard-response","186","289929","0.0-11.0-0.32","Wwc8LXevUt","650d7a81776dae5a035513ad","6617fad957f7c6a12ea16e26","6622cce2c6838027d30c7022","fixation cross","null","","","","","","","","","","","",""
"","743","html-keyboard-response","187","290678","0.0-11.0-1.32","Wwc8LXevUt","650d7a81776dae5a035513ad","6617fad957f7c6a12ea16e26","6622cce2c6838027d30c7022","image grid","q","","","","","Phylogenetic_Distractor_Threat_target","800","ongrid","q","7","Phylogenetic","true","experimental"
"","null","html-keyboard-response","188","290835","0.0-11.0-2.32","Wwc8LXevUt","650d7a81776dae5a035513ad","6617fad957f7c6a12ea16e26","6622cce2c6838027d30c7022","
    <div id=""grid-container"">
        <!-- Grid items will be dynamically added here -->
    </div>    ","null","","","","","","","","","","","",""
"","null","html-keyboard-response","189","291539","0.0-11.0-0.33","Wwc8LXevUt","650d7a81776dae5a035513ad","6617fad957f7c6a12ea16e26","6622cce2c6838027d30c7022","fixation cross","null","","","","","","","","","","","",""
"","null","html-keyboard-response","190","292345","0.0-11.0-1.33","Wwc8LXevUt","650d7a81776dae5a035513ad","6617fad957f7c6a12ea16e26","6622cce2c6838027d30c7022","
        <div id=""grid-container"">
        <!-- Grid items will be dynamically added here -->
    </div>    ","null","","","","","","","","","","","",""
"","845","html-keyboard-response","191","292392","0.0-11.0-2.33","Wwc8LXevUt","650d7a81776dae5a035513ad","6617fad957f7c6a12ea16e26","6622cce2c6838027d30c7022","mask grid","p","","","","","Phylogenetic_Distractor_Nonthreat_target","800","onmask","p","5","Phylogenetic","true","experimental"
"","null","html-keyboard-response","192","293097","0.0-11.0-0.34","Wwc8LXevUt","650d7a81776dae5a035513ad","6617fad957f7c6a12ea16e26","6622cce2c6838027d30c7022","fixation cross","null","","","","","","","","","","","",""
"","null","html-keyboard-response","193","293902","0.0-11.0-1.34","Wwc8LXevUt","650d7a81776dae5a035513ad","6617fad957f7c6a12ea16e26","6622cce2c6838027d30c7022","
        <div id=""grid-container"">
        <!-- Grid items will be dynamically added here -->
    </div>    ","null","","","","","","","","","","","",""
"","1056","html-keyboard-response","194","294164","0.0-11.0-2.34","Wwc8LXevUt","650d7a81776dae5a035513ad","6617fad957f7c6a12ea16e26","6622cce2c6838027d30c7022","mask grid","p","","","","","Phylogenetic_Distractor_Nonthreat_target","800","onmask","p","5","Phylogenetic","true","experimental"
"","null","html-keyboard-response","195","294873","0.0-11.0-0.35","Wwc8LXevUt","650d7a81776dae5a035513ad","6617fad957f7c6a12ea16e26","6622cce2c6838027d30c7022","fixation cross","null","","","","","","","","","","","",""
"","547","html-keyboard-response","196","295425","0.0-11.0-1.35","Wwc8LXevUt","650d7a81776dae5a035513ad","6617fad957f7c6a12ea16e26","6622cce2c6838027d30c7022","image grid","q","","","","","Phylogenetic_Distractor_Threat_target","800","ongrid","q","4","Phylogenetic","true","experimental"
"","null","html-keyboard-response","197","295583","0.0-11.0-2.35","Wwc8LXevUt","650d7a81776dae5a035513ad","6617fad957f7c6a12ea16e26","6622cce2c6838027d30c7022","
    <div id=""grid-container"">
        <!-- Grid items will be dynamically added here -->
    </div>    ","null","","","","","","","","","","","",""
"","null","html-keyboard-response","198","296287","0.0-11.0-0.36","Wwc8LXevUt","650d7a81776dae5a035513ad","6617fad957f7c6a12ea16e26","6622cce2c6838027d30c7022","fixation cross","null","","","","","","","","","","","",""
"","672","html-keyboard-response","199","296960","0.0-11.0-1.36","Wwc8LXevUt","650d7a81776dae5a035513ad","6617fad957f7c6a12ea16e26","6622cce2c6838027d30c7022","image grid","p","","","","","Phylogenetic_Distractor_Threat_target","800","ongrid","q","2","Phylogenetic","false","experimental"
"","null","html-keyboard-response","200","297116","0.0-11.0-2.36","Wwc8LXevUt","650d7a81776dae5a035513ad","6617fad957f7c6a12ea16e26","6622cce2c6838027d30c7022","
    <div id=""grid-container"">
        <!-- Grid items will be dynamically added here -->
    </div>    ","null","","","","","","","","","","","",""
"","null","html-keyboard-response","201","297820","0.0-11.0-0.37","Wwc8LXevUt","650d7a81776dae5a035513ad","6617fad957f7c6a12ea16e26","6622cce2c6838027d30c7022","fixation cross","null","","","","","","","","","","","",""
"","null","html-keyboard-response","202","298625","0.0-11.0-1.37","Wwc8LXevUt","650d7a81776dae5a035513ad","6617fad957f7c6a12ea16e26","6622cce2c6838027d30c7022","
        <div id=""grid-container"">
        <!-- Grid items will be dynamically added here -->
    </div>    ","null","","","","","","","","","","","",""
"","881","html-keyboard-response","203","298709","0.0-11.0-2.37","Wwc8LXevUt","650d7a81776dae5a035513ad","6617fad957f7c6a12ea16e26","6622cce2c6838027d30c7022","mask grid","p","","","","","Phylogenetic_Distractor_Nonthreat_target","800","onmask","p","8","Phylogenetic","true","experimental"
"","null","html-keyboard-response","204","299413","0.0-11.0-0.38","Wwc8LXevUt","650d7a81776dae5a035513ad","6617fad957f7c6a12ea16e26","6622cce2c6838027d30c7022","fixation cross","null","","","","","","","","","","","",""
"","733","html-keyboard-response","205","300152","0.0-11.0-1.38","Wwc8LXevUt","650d7a81776dae5a035513ad","6617fad957f7c6a12ea16e26","6622cce2c6838027d30c7022","image grid","p","","","","","Phylogenetic_Distractor_notarget","800","ongrid"," ","1","Phylogenetic","false","experimental"
"","null","html-keyboard-response","206","300310","0.0-11.0-2.38","Wwc8LXevUt","650d7a81776dae5a035513ad","6617fad957f7c6a12ea16e26","6622cce2c6838027d30c7022","
    <div id=""grid-container"">
        <!-- Grid items will be dynamically added here -->
    </div>    ","null","","","","","","","","","","","",""
"","null","html-keyboard-response","207","301013","0.0-11.0-0.39","Wwc8LXevUt","650d7a81776dae5a035513ad","6617fad957f7c6a12ea16e26","6622cce2c6838027d30c7022","fixation cross","null","","","","","","","","","","","",""
"","null","html-keyboard-response","208","301818","0.0-11.0-1.39","Wwc8LXevUt","650d7a81776dae5a035513ad","6617fad957f7c6a12ea16e26","6622cce2c6838027d30c7022","
        <div id=""grid-container"">
        <!-- Grid items will be dynamically added here -->
    </div>    ","null","","","","","","","","","","","",""
"","1159","html-keyboard-response","209","302181","0.0-11.0-2.39","Wwc8LXevUt","650d7a81776dae5a035513ad","6617fad957f7c6a12ea16e26","6622cce2c6838027d30c7022","mask grid","p","","","","","Phylogenetic_Distractor_Nonthreat_target","800","onmask","p","1","Phylogenetic","true","experimental"
"","19782","html-keyboard-response","210","322247","0.0-12.0","Wwc8LXevUt","650d7a81776dae5a035513ad","6617fad957f7c6a12ea16e26","6622cce2c6838027d30c7022","break screen"," ","","","","","","","","","","","",""
"","null","html-keyboard-response","211","324833","0.0-13.0-0.0","Wwc8LXevUt","650d7a81776dae5a035513ad","6617fad957f7c6a12ea16e26","6622cce2c6838027d30c7022","fixation cross","null","","","","","","","","","","","",""
"","1211","html-keyboard-response","212","326047","0.0-13.0-1.0","Wwc8LXevUt","650d7a81776dae5a035513ad","6617fad957f7c6a12ea16e26","6622cce2c6838027d30c7022","image grid","p","","","","","Ontogenetic_Distractor_Nonthreat_target","2500","ongrid","p","3","Ontogenetic","true","experimental"
"","null","html-keyboard-response","213","326207","0.0-13.0-2.0","Wwc8LXevUt","650d7a81776dae5a035513ad","6617fad957f7c6a12ea16e26","6622cce2c6838027d30c7022","
    <div id=""grid-container"">
        <!-- Grid items will be dynamically added here -->
    </div>    ","null","","","","","","","","","","","",""
"","null","html-keyboard-response","214","326911","0.0-13.0-0.1","Wwc8LXevUt","650d7a81776dae5a035513ad","6617fad957f7c6a12ea16e26","6622cce2c6838027d30c7022","fixation cross","null","","","","","","","","","","","",""
"","1114","html-keyboard-response","215","328028","0.0-13.0-1.1","Wwc8LXevUt","650d7a81776dae5a035513ad","6617fad957f7c6a12ea16e26","6622cce2c6838027d30c7022","image grid","p","","","","","Ontogenetic_Distractor_Nonthreat_target","2500","ongrid","p","7","Ontogenetic","true","experimental"
"","null","html-keyboard-response","216","328185","0.0-13.0-2.1","Wwc8LXevUt","650d7a81776dae5a035513ad","6617fad957f7c6a12ea16e26","6622cce2c6838027d30c7022","
    <div id=""grid-container"">
        <!-- Grid items will be dynamically added here -->
    </div>    ","null","","","","","","","","","","","",""
"","null","html-keyboard-response","217","328888","0.0-13.0-0.2","Wwc8LXevUt","650d7a81776dae5a035513ad","6617fad957f7c6a12ea16e26","6622cce2c6838027d30c7022","fixation cross","null","","","","","","","","","","","",""
"","1019","html-keyboard-response","218","329911","0.0-13.0-1.2","Wwc8LXevUt","650d7a81776dae5a035513ad","6617fad957f7c6a12ea16e26","6622cce2c6838027d30c7022","image grid","p","","","","","Ontogenetic_Distractor_Nonthreat_target","2500","ongrid","p","4","Ontogenetic","true","experimental"
"","null","html-keyboard-response","219","330071","0.0-13.0-2.2","Wwc8LXevUt","650d7a81776dae5a035513ad","6617fad957f7c6a12ea16e26","6622cce2c6838027d30c7022","
    <div id=""grid-container"">
        <!-- Grid items will be dynamically added here -->
    </div>    ","null","","","","","","","","","","","",""
"","null","html-keyboard-response","220","330775","0.0-13.0-0.3","Wwc8LXevUt","650d7a81776dae5a035513ad","6617fad957f7c6a12ea16e26","6622cce2c6838027d30c7022","fixation cross","null","","","","","","","","","","","",""
"","1305","html-keyboard-response","221","332085","0.0-13.0-1.3","Wwc8LXevUt","650d7a81776dae5a035513ad","6617fad957f7c6a12ea16e26","6622cce2c6838027d30c7022","image grid","q","","","","","Ontogenetic_Distractor_Threat_target","2500","ongrid","q","5","Ontogenetic","true","experimental"
"","null","html-keyboard-response","222","332244","0.0-13.0-2.3","Wwc8LXevUt","650d7a81776dae5a035513ad","6617fad957f7c6a12ea16e26","6622cce2c6838027d30c7022","
    <div id=""grid-container"">
        <!-- Grid items will be dynamically added here -->
    </div>    ","null","","","","","","","","","","","",""
"","null","html-keyboard-response","223","332947","0.0-13.0-0.4","Wwc8LXevUt","650d7a81776dae5a035513ad","6617fad957f7c6a12ea16e26","6622cce2c6838027d30c7022","fixation cross","null","","","","","","","","","","","",""
"","887","html-keyboard-response","224","333840","0.0-13.0-1.4","Wwc8LXevUt","650d7a81776dae5a035513ad","6617fad957f7c6a12ea16e26","6622cce2c6838027d30c7022","image grid","q","","","","","Ontogenetic_Distractor_Threat_target","2500","ongrid","q","5","Ontogenetic","true","experimental"
"","null","html-keyboard-response","225","333996","0.0-13.0-2.4","Wwc8LXevUt","650d7a81776dae5a035513ad","6617fad957f7c6a12ea16e26","6622cce2c6838027d30c7022","
    <div id=""grid-container"">
        <!-- Grid items will be dynamically added here -->
    </div>    ","null","","","","","","","","","","","",""
"","null","html-keyboard-response","226","334701","0.0-13.0-0.5","Wwc8LXevUt","650d7a81776dae5a035513ad","6617fad957f7c6a12ea16e26","6622cce2c6838027d30c7022","fixation cross","null","","","","","","","","","","","",""
"","1100","html-keyboard-response","227","335805","0.0-13.0-1.5","Wwc8LXevUt","650d7a81776dae5a035513ad","6617fad957f7c6a12ea16e26","6622cce2c6838027d30c7022","image grid","q","","","","","Ontogenetic_Distractor_Threat_target","2500","ongrid","q","1","Ontogenetic","true","experimental"
"","null","html-keyboard-response","228","335963","0.0-13.0-2.5","Wwc8LXevUt","650d7a81776dae5a035513ad","6617fad957f7c6a12ea16e26","6622cce2c6838027d30c7022","
    <div id=""grid-container"">
        <!-- Grid items will be dynamically added here -->
    </div>    ","null","","","","","","","","","","","",""
"","null","html-keyboard-response","229","336668","0.0-13.0-0.6","Wwc8LXevUt","650d7a81776dae5a035513ad","6617fad957f7c6a12ea16e26","6622cce2c6838027d30c7022","fixation cross","null","","","","","","","","","","","",""
"","797","html-keyboard-response","230","337469","0.0-13.0-1.6","Wwc8LXevUt","650d7a81776dae5a035513ad","6617fad957f7c6a12ea16e26","6622cce2c6838027d30c7022","image grid"," ","","","","","Ontogenetic_Distractor_notarget","2500","ongrid"," ","3","Ontogenetic","true","experimental"
"","null","html-keyboard-response","231","337627","0.0-13.0-2.6","Wwc8LXevUt","650d7a81776dae5a035513ad","6617fad957f7c6a12ea16e26","6622cce2c6838027d30c7022","
    <div id=""grid-container"">
        <!-- Grid items will be dynamically added here -->
    </div>    ","null","","","","","","","","","","","",""
"","null","html-keyboard-response","232","338330","0.0-13.0-0.7","Wwc8LXevUt","650d7a81776dae5a035513ad","6617fad957f7c6a12ea16e26","6622cce2c6838027d30c7022","fixation cross","null","","","","","","","","","","","",""
"","946","html-keyboard-response","233","339282","0.0-13.0-1.7","Wwc8LXevUt","650d7a81776dae5a035513ad","6617fad957f7c6a12ea16e26","6622cce2c6838027d30c7022","image grid","q","","","","","Ontogenetic_Distractor_Threat_target","2500","ongrid","q","4","Ontogenetic","true","experimental"
"","null","html-keyboard-response","234","339440","0.0-13.0-2.7","Wwc8LXevUt","650d7a81776dae5a035513ad","6617fad957f7c6a12ea16e26","6622cce2c6838027d30c7022","
    <div id=""grid-container"">
        <!-- Grid items will be dynamically added here -->
    </div>    ","null","","","","","","","","","","","",""
"","null","html-keyboard-response","235","340144","0.0-13.0-0.8","Wwc8LXevUt","650d7a81776dae5a035513ad","6617fad957f7c6a12ea16e26","6622cce2c6838027d30c7022","fixation cross","null","","","","","","","","","","","",""
"","806","html-keyboard-response","236","340953","0.0-13.0-1.8","Wwc8LXevUt","650d7a81776dae5a035513ad","6617fad957f7c6a12ea16e26","6622cce2c6838027d30c7022","image grid","q","","","","","Ontogenetic_Distractor_Threat_target","2500","ongrid","q","6","Ontogenetic","true","experimental"
"","null","html-keyboard-response","237","341108","0.0-13.0-2.8","Wwc8LXevUt","650d7a81776dae5a035513ad","6617fad957f7c6a12ea16e26","6622cce2c6838027d30c7022","
    <div id=""grid-container"">
        <!-- Grid items will be dynamically added here -->
    </div>    ","null","","","","","","","","","","","",""
"","null","html-keyboard-response","238","341813","0.0-13.0-0.9","Wwc8LXevUt","650d7a81776dae5a035513ad","6617fad957f7c6a12ea16e26","6622cce2c6838027d30c7022","fixation cross","null","","","","","","","","","","","",""
"","1070","html-keyboard-response","239","342886","0.0-13.0-1.9","Wwc8LXevUt","650d7a81776dae5a035513ad","6617fad957f7c6a12ea16e26","6622cce2c6838027d30c7022","image grid"," ","","","","","Ontogenetic_Distractor_notarget","2500","ongrid"," ","3","Ontogenetic","true","experimental"
"","null","html-keyboard-response","240","343043","0.0-13.0-2.9","Wwc8LXevUt","650d7a81776dae5a035513ad","6617fad957f7c6a12ea16e26","6622cce2c6838027d30c7022","
    <div id=""grid-container"">
        <!-- Grid items will be dynamically added here -->
    </div>    ","null","","","","","","","","","","","",""
"","null","html-keyboard-response","241","343749","0.0-13.0-0.10","Wwc8LXevUt","650d7a81776dae5a035513ad","6617fad957f7c6a12ea16e26","6622cce2c6838027d30c7022","fixation cross","null","","","","","","","","","","","",""
"","972","html-keyboard-response","242","344724","0.0-13.0-1.10","Wwc8LXevUt","650d7a81776dae5a035513ad","6617fad957f7c6a12ea16e26","6622cce2c6838027d30c7022","image grid","p","","","","","Ontogenetic_Distractor_Nonthreat_target","2500","ongrid","p","7","Ontogenetic","true","experimental"
"","null","html-keyboard-response","243","344882","0.0-13.0-2.10","Wwc8LXevUt","650d7a81776dae5a035513ad","6617fad957f7c6a12ea16e26","6622cce2c6838027d30c7022","
    <div id=""grid-container"">
        <!-- Grid items will be dynamically added here -->
    </div>    ","null","","","","","","","","","","","",""
"","null","html-keyboard-response","244","345586","0.0-13.0-0.11","Wwc8LXevUt","650d7a81776dae5a035513ad","6617fad957f7c6a12ea16e26","6622cce2c6838027d30c7022","fixation cross","null","","","","","","","","","","","",""
"","868","html-keyboard-response","245","346459","0.0-13.0-1.11","Wwc8LXevUt","650d7a81776dae5a035513ad","6617fad957f7c6a12ea16e26","6622cce2c6838027d30c7022","image grid","q","","","","","Ontogenetic_Distractor_Threat_target","2500","ongrid","q","6","Ontogenetic","true","experimental"
"","null","html-keyboard-response","246","346619","0.0-13.0-2.11","Wwc8LXevUt","650d7a81776dae5a035513ad","6617fad957f7c6a12ea16e26","6622cce2c6838027d30c7022","
    <div id=""grid-container"">
        <!-- Grid items will be dynamically added here -->
    </div>    ","null","","","","","","","","","","","",""
"","null","html-keyboard-response","247","347323","0.0-13.0-0.12","Wwc8LXevUt","650d7a81776dae5a035513ad","6617fad957f7c6a12ea16e26","6622cce2c6838027d30c7022","fixation cross","null","","","","","","","","","","","",""
"","1018","html-keyboard-response","248","348345","0.0-13.0-1.12","Wwc8LXevUt","650d7a81776dae5a035513ad","6617fad957f7c6a12ea16e26","6622cce2c6838027d30c7022","image grid"," ","","","","","Ontogenetic_Distractor_notarget","2500","ongrid"," ","7","Ontogenetic","true","experimental"
"","null","html-keyboard-response","249","348503","0.0-13.0-2.12","Wwc8LXevUt","650d7a81776dae5a035513ad","6617fad957f7c6a12ea16e26","6622cce2c6838027d30c7022","
    <div id=""grid-container"">
        <!-- Grid items will be dynamically added here -->
    </div>    ","null","","","","","","","","","","","",""
"","null","html-keyboard-response","250","349209","0.0-13.0-0.13","Wwc8LXevUt","650d7a81776dae5a035513ad","6617fad957f7c6a12ea16e26","6622cce2c6838027d30c7022","fixation cross","null","","","","","","","","","","","",""
"","1037","html-keyboard-response","251","350250","0.0-13.0-1.13","Wwc8LXevUt","650d7a81776dae5a035513ad","6617fad957f7c6a12ea16e26","6622cce2c6838027d30c7022","image grid","q","","","","","Ontogenetic_Distractor_Threat_target","2500","ongrid","q","2","Ontogenetic","true","experimental"
"","null","html-keyboard-response","252","350410","0.0-13.0-2.13","Wwc8LXevUt","650d7a81776dae5a035513ad","6617fad957f7c6a12ea16e26","6622cce2c6838027d30c7022","
    <div id=""grid-container"">
        <!-- Grid items will be dynamically added here -->
    </div>    ","null","","","","","","","","","","","",""
"","null","html-keyboard-response","253","351115","0.0-13.0-0.14","Wwc8LXevUt","650d7a81776dae5a035513ad","6617fad957f7c6a12ea16e26","6622cce2c6838027d30c7022","fixation cross","null","","","","","","","","","","","",""
"","988","html-keyboard-response","254","352106","0.0-13.0-1.14","Wwc8LXevUt","650d7a81776dae5a035513ad","6617fad957f7c6a12ea16e26","6622cce2c6838027d30c7022","image grid","p","","","","","Ontogenetic_Distractor_Nonthreat_target","2500","ongrid","p","8","Ontogenetic","true","experimental"
"","null","html-keyboard-response","255","352264","0.0-13.0-2.14","Wwc8LXevUt","650d7a81776dae5a035513ad","6617fad957f7c6a12ea16e26","6622cce2c6838027d30c7022","
    <div id=""grid-container"">
        <!-- Grid items will be dynamically added here -->
    </div>    ","null","","","","","","","","","","","",""
"","null","html-keyboard-response","256","352969","0.0-13.0-0.15","Wwc8LXevUt","650d7a81776dae5a035513ad","6617fad957f7c6a12ea16e26","6622cce2c6838027d30c7022","fixation cross","null","","","","","","","","","","","",""
"","710","html-keyboard-response","257","353682","0.0-13.0-1.15","Wwc8LXevUt","650d7a81776dae5a035513ad","6617fad957f7c6a12ea16e26","6622cce2c6838027d30c7022","image grid","p","","","","","Ontogenetic_Distractor_Nonthreat_target","2500","ongrid","p","7","Ontogenetic","true","experimental"
"","null","html-keyboard-response","258","353842","0.0-13.0-2.15","Wwc8LXevUt","650d7a81776dae5a035513ad","6617fad957f7c6a12ea16e26","6622cce2c6838027d30c7022","
    <div id=""grid-container"">
        <!-- Grid items will be dynamically added here -->
    </div>    ","null","","","","","","","","","","","",""
"","null","html-keyboard-response","259","354548","0.0-13.0-0.16","Wwc8LXevUt","650d7a81776dae5a035513ad","6617fad957f7c6a12ea16e26","6622cce2c6838027d30c7022","fixation cross","null","","","","","","","","","","","",""
"","751","html-keyboard-response","260","355302","0.0-13.0-1.16","Wwc8LXevUt","650d7a81776dae5a035513ad","6617fad957f7c6a12ea16e26","6622cce2c6838027d30c7022","image grid","p","","","","","Ontogenetic_Distractor_notarget","2500","ongrid"," ","4","Ontogenetic","false","experimental"
"","null","html-keyboard-response","261","355460","0.0-13.0-2.16","Wwc8LXevUt","650d7a81776dae5a035513ad","6617fad957f7c6a12ea16e26","6622cce2c6838027d30c7022","
    <div id=""grid-container"">
        <!-- Grid items will be dynamically added here -->
    </div>    ","null","","","","","","","","","","","",""
"","null","html-keyboard-response","262","356164","0.0-13.0-0.17","Wwc8LXevUt","650d7a81776dae5a035513ad","6617fad957f7c6a12ea16e26","6622cce2c6838027d30c7022","fixation cross","null","","","","","","","","","","","",""
"","804","html-keyboard-response","263","356973","0.0-13.0-1.17","Wwc8LXevUt","650d7a81776dae5a035513ad","6617fad957f7c6a12ea16e26","6622cce2c6838027d30c7022","image grid","p","","","","","Ontogenetic_Distractor_Nonthreat_target","2500","ongrid","p","5","Ontogenetic","true","experimental"
"","null","html-keyboard-response","264","357130","0.0-13.0-2.17","Wwc8LXevUt","650d7a81776dae5a035513ad","6617fad957f7c6a12ea16e26","6622cce2c6838027d30c7022","
    <div id=""grid-container"">
        <!-- Grid items will be dynamically added here -->
    </div>    ","null","","","","","","","","","","","",""
"","null","html-keyboard-response","265","357836","0.0-13.0-0.18","Wwc8LXevUt","650d7a81776dae5a035513ad","6617fad957f7c6a12ea16e26","6622cce2c6838027d30c7022","fixation cross","null","","","","","","","","","","","",""
"","966","html-keyboard-response","266","358805","0.0-13.0-1.18","Wwc8LXevUt","650d7a81776dae5a035513ad","6617fad957f7c6a12ea16e26","6622cce2c6838027d30c7022","image grid","q","","","","","Ontogenetic_Distractor_Threat_target","2500","ongrid","q","3","Ontogenetic","true","experimental"
"","null","html-keyboard-response","267","358963","0.0-13.0-2.18","Wwc8LXevUt","650d7a81776dae5a035513ad","6617fad957f7c6a12ea16e26","6622cce2c6838027d30c7022","
    <div id=""grid-container"">
        <!-- Grid items will be dynamically added here -->
    </div>    ","null","","","","","","","","","","","",""
"","null","html-keyboard-response","268","359668","0.0-13.0-0.19","Wwc8LXevUt","650d7a81776dae5a035513ad","6617fad957f7c6a12ea16e26","6622cce2c6838027d30c7022","fixation cross","null","","","","","","","","","","","",""
"","1553","html-keyboard-response","269","361227","0.0-13.0-1.19","Wwc8LXevUt","650d7a81776dae5a035513ad","6617fad957f7c6a12ea16e26","6622cce2c6838027d30c7022","image grid"," ","","","","","Ontogenetic_Distractor_Threat_target","2500","ongrid","q","6","Ontogenetic","false","experimental"
"","null","html-keyboard-response","270","361381","0.0-13.0-2.19","Wwc8LXevUt","650d7a81776dae5a035513ad","6617fad957f7c6a12ea16e26","6622cce2c6838027d30c7022","
    <div id=""grid-container"">
        <!-- Grid items will be dynamically added here -->
    </div>    ","null","","","","","","","","","","","",""
"","null","html-keyboard-response","271","362085","0.0-13.0-0.20","Wwc8LXevUt","650d7a81776dae5a035513ad","6617fad957f7c6a12ea16e26","6622cce2c6838027d30c7022","fixation cross","null","","","","","","","","","","","",""
"","812","html-keyboard-response","272","362903","0.0-13.0-1.20","Wwc8LXevUt","650d7a81776dae5a035513ad","6617fad957f7c6a12ea16e26","6622cce2c6838027d30c7022","image grid","p","","","","","Ontogenetic_Distractor_Nonthreat_target","2500","ongrid","p","4","Ontogenetic","true","experimental"
"","null","html-keyboard-response","273","363060","0.0-13.0-2.20","Wwc8LXevUt","650d7a81776dae5a035513ad","6617fad957f7c6a12ea16e26","6622cce2c6838027d30c7022","
    <div id=""grid-container"">
        <!-- Grid items will be dynamically added here -->
    </div>    ","null","","","","","","","","","","","",""
"","null","html-keyboard-response","274","363764","0.0-13.0-0.21","Wwc8LXevUt","650d7a81776dae5a035513ad","6617fad957f7c6a12ea16e26","6622cce2c6838027d30c7022","fixation cross","null","","","","","","","","","","","",""
"","963","html-keyboard-response","275","364732","0.0-13.0-1.21","Wwc8LXevUt","650d7a81776dae5a035513ad","6617fad957f7c6a12ea16e26","6622cce2c6838027d30c7022","image grid","p","","","","","Ontogenetic_Distractor_Nonthreat_target","2500","ongrid","p","6","Ontogenetic","true","experimental"
"","null","html-keyboard-response","276","364889","0.0-13.0-2.21","Wwc8LXevUt","650d7a81776dae5a035513ad","6617fad957f7c6a12ea16e26","6622cce2c6838027d30c7022","
    <div id=""grid-container"">
        <!-- Grid items will be dynamically added here -->
    </div>    ","null","","","","","","","","","","","",""
"","null","html-keyboard-response","277","365593","0.0-13.0-0.22","Wwc8LXevUt","650d7a81776dae5a035513ad","6617fad957f7c6a12ea16e26","6622cce2c6838027d30c7022","fixation cross","null","","","","","","","","","","","",""
"","1043","html-keyboard-response","278","366640","0.0-13.0-1.22","Wwc8LXevUt","650d7a81776dae5a035513ad","6617fad957f7c6a12ea16e26","6622cce2c6838027d30c7022","image grid","q","","","","","Ontogenetic_Distractor_Threat_target","2500","ongrid","q","1","Ontogenetic","true","experimental"
"","null","html-keyboard-response","279","366799","0.0-13.0-2.22","Wwc8LXevUt","650d7a81776dae5a035513ad","6617fad957f7c6a12ea16e26","6622cce2c6838027d30c7022","
    <div id=""grid-container"">
        <!-- Grid items will be dynamically added here -->
    </div>    ","null","","","","","","","","","","","",""
"","null","html-keyboard-response","280","367504","0.0-13.0-0.23","Wwc8LXevUt","650d7a81776dae5a035513ad","6617fad957f7c6a12ea16e26","6622cce2c6838027d30c7022","fixation cross","null","","","","","","","","","","","",""
"","1072","html-keyboard-response","281","368582","0.0-13.0-1.23","Wwc8LXevUt","650d7a81776dae5a035513ad","6617fad957f7c6a12ea16e26","6622cce2c6838027d30c7022","image grid","q","","","","","Ontogenetic_Distractor_Threat_target","2500","ongrid","q","2","Ontogenetic","true","experimental"
"","null","html-keyboard-response","282","368746","0.0-13.0-2.23","Wwc8LXevUt","650d7a81776dae5a035513ad","6617fad957f7c6a12ea16e26","6622cce2c6838027d30c7022","
    <div id=""grid-container"">
        <!-- Grid items will be dynamically added here -->
    </div>    ","null","","","","","","","","","","","",""
"","null","html-keyboard-response","283","369449","0.0-13.0-0.24","Wwc8LXevUt","650d7a81776dae5a035513ad","6617fad957f7c6a12ea16e26","6622cce2c6838027d30c7022","fixation cross","null","","","","","","","","","","","",""
"","692","html-keyboard-response","284","370147","0.0-13.0-1.24","Wwc8LXevUt","650d7a81776dae5a035513ad","6617fad957f7c6a12ea16e26","6622cce2c6838027d30c7022","image grid","p","","","","","Ontogenetic_Distractor_Nonthreat_target","2500","ongrid","p","5","Ontogenetic","true","experimental"
"","null","html-keyboard-response","285","370303","0.0-13.0-2.24","Wwc8LXevUt","650d7a81776dae5a035513ad","6617fad957f7c6a12ea16e26","6622cce2c6838027d30c7022","
    <div id=""grid-container"">
        <!-- Grid items will be dynamically added here -->
    </div>    ","null","","","","","","","","","","","",""
"","null","html-keyboard-response","286","371009","0.0-13.0-0.25","Wwc8LXevUt","650d7a81776dae5a035513ad","6617fad957f7c6a12ea16e26","6622cce2c6838027d30c7022","fixation cross","null","","","","","","","","","","","",""
"","954","html-keyboard-response","287","371967","0.0-13.0-1.25","Wwc8LXevUt","650d7a81776dae5a035513ad","6617fad957f7c6a12ea16e26","6622cce2c6838027d30c7022","image grid","q","","","","","Ontogenetic_Distractor_Threat_target","2500","ongrid","q","9","Ontogenetic","true","experimental"
"","null","html-keyboard-response","288","372127","0.0-13.0-2.25","Wwc8LXevUt","650d7a81776dae5a035513ad","6617fad957f7c6a12ea16e26","6622cce2c6838027d30c7022","
    <div id=""grid-container"">
        <!-- Grid items will be dynamically added here -->
    </div>    ","null","","","","","","","","","","","",""
"","null","html-keyboard-response","289","372831","0.0-13.0-0.26","Wwc8LXevUt","650d7a81776dae5a035513ad","6617fad957f7c6a12ea16e26","6622cce2c6838027d30c7022","fixation cross","null","","","","","","","","","","","",""
"","716","html-keyboard-response","290","373551","0.0-13.0-1.26","Wwc8LXevUt","650d7a81776dae5a035513ad","6617fad957f7c6a12ea16e26","6622cce2c6838027d30c7022","image grid","p","","","","","Ontogenetic_Distractor_Nonthreat_target","2500","ongrid","p","7","Ontogenetic","true","experimental"
"","null","html-keyboard-response","291","373712","0.0-13.0-2.26","Wwc8LXevUt","650d7a81776dae5a035513ad","6617fad957f7c6a12ea16e26","6622cce2c6838027d30c7022","
    <div id=""grid-container"">
        <!-- Grid items will be dynamically added here -->
    </div>    ","null","","","","","","","","","","","",""
"","null","html-keyboard-response","292","374417","0.0-13.0-0.27","Wwc8LXevUt","650d7a81776dae5a035513ad","6617fad957f7c6a12ea16e26","6622cce2c6838027d30c7022","fixation cross","null","","","","","","","","","","","",""
"","770","html-keyboard-response","293","375189","0.0-13.0-1.27","Wwc8LXevUt","650d7a81776dae5a035513ad","6617fad957f7c6a12ea16e26","6622cce2c6838027d30c7022","image grid","p","","","","","Ontogenetic_Distractor_Nonthreat_target","2500","ongrid","p","9","Ontogenetic","true","experimental"
"","null","html-keyboard-response","294","375348","0.0-13.0-2.27","Wwc8LXevUt","650d7a81776dae5a035513ad","6617fad957f7c6a12ea16e26","6622cce2c6838027d30c7022","
    <div id=""grid-container"">
        <!-- Grid items will be dynamically added here -->
    </div>    ","null","","","","","","","","","","","",""
"","null","html-keyboard-response","295","376053","0.0-13.0-0.28","Wwc8LXevUt","650d7a81776dae5a035513ad","6617fad957f7c6a12ea16e26","6622cce2c6838027d30c7022","fixation cross","null","","","","","","","","","","","",""
"","1121","html-keyboard-response","296","377177","0.0-13.0-1.28","Wwc8LXevUt","650d7a81776dae5a035513ad","6617fad957f7c6a12ea16e26","6622cce2c6838027d30c7022","image grid","q","","","","","Ontogenetic_Distractor_Threat_target","2500","ongrid","q","1","Ontogenetic","true","experimental"
"","null","html-keyboard-response","297","377336","0.0-13.0-2.28","Wwc8LXevUt","650d7a81776dae5a035513ad","6617fad957f7c6a12ea16e26","6622cce2c6838027d30c7022","
    <div id=""grid-container"">
        <!-- Grid items will be dynamically added here -->
    </div>    ","null","","","","","","","","","","","",""
"","null","html-keyboard-response","298","378050","0.0-13.0-0.29","Wwc8LXevUt","650d7a81776dae5a035513ad","6617fad957f7c6a12ea16e26","6622cce2c6838027d30c7022","fixation cross","null","","","","","","","","","","","",""
"","942","html-keyboard-response","299","378998","0.0-13.0-1.29","Wwc8LXevUt","650d7a81776dae5a035513ad","6617fad957f7c6a12ea16e26","6622cce2c6838027d30c7022","image grid","p","","","","","Ontogenetic_Distractor_Nonthreat_target","2500","ongrid","p","1","Ontogenetic","true","experimental"
"","null","html-keyboard-response","300","379153","0.0-13.0-2.29","Wwc8LXevUt","650d7a81776dae5a035513ad","6617fad957f7c6a12ea16e26","6622cce2c6838027d30c7022","
    <div id=""grid-container"">
        <!-- Grid items will be dynamically added here -->
    </div>    ","null","","","","","","","","","","","",""
"","null","html-keyboard-response","301","379857","0.0-13.0-0.30","Wwc8LXevUt","650d7a81776dae5a035513ad","6617fad957f7c6a12ea16e26","6622cce2c6838027d30c7022","fixation cross","null","","","","","","","","","","","",""
"","781","html-keyboard-response","302","380642","0.0-13.0-1.30","Wwc8LXevUt","650d7a81776dae5a035513ad","6617fad957f7c6a12ea16e26","6622cce2c6838027d30c7022","image grid","p","","","","","Ontogenetic_Distractor_Nonthreat_target","2500","ongrid","p","8","Ontogenetic","true","experimental"
"","null","html-keyboard-response","303","380803","0.0-13.0-2.30","Wwc8LXevUt","650d7a81776dae5a035513ad","6617fad957f7c6a12ea16e26","6622cce2c6838027d30c7022","
    <div id=""grid-container"">
        <!-- Grid items will be dynamically added here -->
    </div>    ","null","","","","","","","","","","","",""
"","null","html-keyboard-response","304","381508","0.0-13.0-0.31","Wwc8LXevUt","650d7a81776dae5a035513ad","6617fad957f7c6a12ea16e26","6622cce2c6838027d30c7022","fixation cross","null","","","","","","","","","","","",""
"","810","html-keyboard-response","305","382322","0.0-13.0-1.31","Wwc8LXevUt","650d7a81776dae5a035513ad","6617fad957f7c6a12ea16e26","6622cce2c6838027d30c7022","image grid","q","","","","","Ontogenetic_Distractor_Threat_target","2500","ongrid","q","7","Ontogenetic","true","experimental"
"","null","html-keyboard-response","306","382481","0.0-13.0-2.31","Wwc8LXevUt","650d7a81776dae5a035513ad","6617fad957f7c6a12ea16e26","6622cce2c6838027d30c7022","
    <div id=""grid-container"">
        <!-- Grid items will be dynamically added here -->
    </div>    ","null","","","","","","","","","","","",""
"","null","html-keyboard-response","307","383184","0.0-13.0-0.32","Wwc8LXevUt","650d7a81776dae5a035513ad","6617fad957f7c6a12ea16e26","6622cce2c6838027d30c7022","fixation cross","null","","","","","","","","","","","",""
"","1374","html-keyboard-response","308","384562","0.0-13.0-1.32","Wwc8LXevUt","650d7a81776dae5a035513ad","6617fad957f7c6a12ea16e26","6622cce2c6838027d30c7022","image grid"," ","","","","","Ontogenetic_Distractor_Nonthreat_target","2500","ongrid","p","8","Ontogenetic","false","experimental"
"","null","html-keyboard-response","309","384723","0.0-13.0-2.32","Wwc8LXevUt","650d7a81776dae5a035513ad","6617fad957f7c6a12ea16e26","6622cce2c6838027d30c7022","
    <div id=""grid-container"">
        <!-- Grid items will be dynamically added here -->
    </div>    ","null","","","","","","","","","","","",""
"","null","html-keyboard-response","310","385428","0.0-13.0-0.33","Wwc8LXevUt","650d7a81776dae5a035513ad","6617fad957f7c6a12ea16e26","6622cce2c6838027d30c7022","fixation cross","null","","","","","","","","","","","",""
"","1005","html-keyboard-response","311","386438","0.0-13.0-1.33","Wwc8LXevUt","650d7a81776dae5a035513ad","6617fad957f7c6a12ea16e26","6622cce2c6838027d30c7022","image grid","p","","","","","Ontogenetic_Distractor_Nonthreat_target","2500","ongrid","p","4","Ontogenetic","true","experimental"
"","null","html-keyboard-response","312","386593","0.0-13.0-2.33","Wwc8LXevUt","650d7a81776dae5a035513ad","6617fad957f7c6a12ea16e26","6622cce2c6838027d30c7022","
    <div id=""grid-container"">
        <!-- Grid items will be dynamically added here -->
    </div>    ","null","","","","","","","","","","","",""
"","null","html-keyboard-response","313","387296","0.0-13.0-0.34","Wwc8LXevUt","650d7a81776dae5a035513ad","6617fad957f7c6a12ea16e26","6622cce2c6838027d30c7022","fixation cross","null","","","","","","","","","","","",""
"","777","html-keyboard-response","314","388077","0.0-13.0-1.34","Wwc8LXevUt","650d7a81776dae5a035513ad","6617fad957f7c6a12ea16e26","6622cce2c6838027d30c7022","image grid","p","","","","","Ontogenetic_Distractor_Nonthreat_target","2500","ongrid","p","3","Ontogenetic","true","experimental"
"","null","html-keyboard-response","315","388234","0.0-13.0-2.34","Wwc8LXevUt","650d7a81776dae5a035513ad","6617fad957f7c6a12ea16e26","6622cce2c6838027d30c7022","
    <div id=""grid-container"">
        <!-- Grid items will be dynamically added here -->
    </div>    ","null","","","","","","","","","","","",""
"","null","html-keyboard-response","316","388938","0.0-13.0-0.35","Wwc8LXevUt","650d7a81776dae5a035513ad","6617fad957f7c6a12ea16e26","6622cce2c6838027d30c7022","fixation cross","null","","","","","","","","","","","",""
"","1515","html-keyboard-response","317","390458","0.0-13.0-1.35","Wwc8LXevUt","650d7a81776dae5a035513ad","6617fad957f7c6a12ea16e26","6622cce2c6838027d30c7022","image grid","q","","","","","Ontogenetic_Distractor_Threat_target","2500","ongrid","q","2","Ontogenetic","true","experimental"
"","null","html-keyboard-response","318","390618","0.0-13.0-2.35","Wwc8LXevUt","650d7a81776dae5a035513ad","6617fad957f7c6a12ea16e26","6622cce2c6838027d30c7022","
    <div id=""grid-container"">
        <!-- Grid items will be dynamically added here -->
    </div>    ","null","","","","","","","","","","","",""
"","null","html-keyboard-response","319","391324","0.0-13.0-0.36","Wwc8LXevUt","650d7a81776dae5a035513ad","6617fad957f7c6a12ea16e26","6622cce2c6838027d30c7022","fixation cross","null","","","","","","","","","","","",""
"","892","html-keyboard-response","320","392219","0.0-13.0-1.36","Wwc8LXevUt","650d7a81776dae5a035513ad","6617fad957f7c6a12ea16e26","6622cce2c6838027d30c7022","image grid","q","","","","","Ontogenetic_Distractor_Threat_target","2500","ongrid","q","2","Ontogenetic","true","experimental"
"","null","html-keyboard-response","321","392380","0.0-13.0-2.36","Wwc8LXevUt","650d7a81776dae5a035513ad","6617fad957f7c6a12ea16e26","6622cce2c6838027d30c7022","
    <div id=""grid-container"">
        <!-- Grid items will be dynamically added here -->
    </div>    ","null","","","","","","","","","","","",""
"","null","html-keyboard-response","322","393082","0.0-13.0-0.37","Wwc8LXevUt","650d7a81776dae5a035513ad","6617fad957f7c6a12ea16e26","6622cce2c6838027d30c7022","fixation cross","null","","","","","","","","","","","",""
"","990","html-keyboard-response","323","394076","0.0-13.0-1.37","Wwc8LXevUt","650d7a81776dae5a035513ad","6617fad957f7c6a12ea16e26","6622cce2c6838027d30c7022","image grid","p","","","","","Ontogenetic_Distractor_Nonthreat_target","2500","ongrid","p","4","Ontogenetic","true","experimental"
"","null","html-keyboard-response","324","394235","0.0-13.0-2.37","Wwc8LXevUt","650d7a81776dae5a035513ad","6617fad957f7c6a12ea16e26","6622cce2c6838027d30c7022","
    <div id=""grid-container"">
        <!-- Grid items will be dynamically added here -->
    </div>    ","null","","","","","","","","","","","",""
"","null","html-keyboard-response","325","394940","0.0-13.0-0.38","Wwc8LXevUt","650d7a81776dae5a035513ad","6617fad957f7c6a12ea16e26","6622cce2c6838027d30c7022","fixation cross","null","","","","","","","","","","","",""
"","1078","html-keyboard-response","326","396022","0.0-13.0-1.38","Wwc8LXevUt","650d7a81776dae5a035513ad","6617fad957f7c6a12ea16e26","6622cce2c6838027d30c7022","image grid","q","","","","","Ontogenetic_Distractor_Threat_target","2500","ongrid","q","2","Ontogenetic","true","experimental"
"","null","html-keyboard-response","327","396177","0.0-13.0-2.38","Wwc8LXevUt","650d7a81776dae5a035513ad","6617fad957f7c6a12ea16e26","6622cce2c6838027d30c7022","
    <div id=""grid-container"">
        <!-- Grid items will be dynamically added here -->
    </div>    ","null","","","","","","","","","","","",""
"","null","html-keyboard-response","328","396883","0.0-13.0-0.39","Wwc8LXevUt","650d7a81776dae5a035513ad","6617fad957f7c6a12ea16e26","6622cce2c6838027d30c7022","fixation cross","null","","","","","","","","","","","",""
"","882","html-keyboard-response","329","397771","0.0-13.0-1.39","Wwc8LXevUt","650d7a81776dae5a035513ad","6617fad957f7c6a12ea16e26","6622cce2c6838027d30c7022","image grid","q","","","","","Ontogenetic_Distractor_Threat_target","2500","ongrid","q","4","Ontogenetic","true","experimental"
"","null","html-keyboard-response","330","397928","0.0-13.0-2.39","Wwc8LXevUt","650d7a81776dae5a035513ad","6617fad957f7c6a12ea16e26","6622cce2c6838027d30c7022","
    <div id=""grid-container"">
        <!-- Grid items will be dynamically added here -->
    </div>    ","null","","","","","","","","","","","",""
"","3952","html-keyboard-response","331","402089","0.0-14.0","Wwc8LXevUt","650d7a81776dae5a035513ad","6617fad957f7c6a12ea16e26","6622cce2c6838027d30c7022","break screen"," ","","","","","","","","","","","",""
"","null","html-keyboard-response","332","404594","0.0-15.0-0.0","Wwc8LXevUt","650d7a81776dae5a035513ad","6617fad957f7c6a12ea16e26","6622cce2c6838027d30c7022","fixation cross","null","","","","","","","","","","","",""
"","null","html-keyboard-response","333","405397","0.0-15.0-1.0","Wwc8LXevUt","650d7a81776dae5a035513ad","6617fad957f7c6a12ea16e26","6622cce2c6838027d30c7022","
        <div id=""grid-container"">
        <!-- Grid items will be dynamically added here -->
    </div>    ","null","","","","","","","","","","","",""
"","909","html-keyboard-response","334","405509","0.0-15.0-2.0","Wwc8LXevUt","650d7a81776dae5a035513ad","6617fad957f7c6a12ea16e26","6622cce2c6838027d30c7022","mask grid","q","","","","","Phylogenetic_Distractor_Threat_target","800","onmask","q","4","Phylogenetic","true","experimental"
"","null","html-keyboard-response","335","406217","0.0-15.0-0.1","Wwc8LXevUt","650d7a81776dae5a035513ad","6617fad957f7c6a12ea16e26","6622cce2c6838027d30c7022","fixation cross","null","","","","","","","","","","","",""
"","null","html-keyboard-response","336","407021","0.0-15.0-1.1","Wwc8LXevUt","650d7a81776dae5a035513ad","6617fad957f7c6a12ea16e26","6622cce2c6838027d30c7022","
        <div id=""grid-container"">
        <!-- Grid items will be dynamically added here -->
    </div>    ","null","","","","","","","","","","","",""
"","838","html-keyboard-response","337","407062","0.0-15.0-2.1","Wwc8LXevUt","650d7a81776dae5a035513ad","6617fad957f7c6a12ea16e26","6622cce2c6838027d30c7022","mask grid","p","","","","","Phylogenetic_Distractor_Nonthreat_target","800","onmask","p","1","Phylogenetic","true","experimental"
"","null","html-keyboard-response","338","407767","0.0-15.0-0.2","Wwc8LXevUt","650d7a81776dae5a035513ad","6617fad957f7c6a12ea16e26","6622cce2c6838027d30c7022","fixation cross","null","","","","","","","","","","","",""
"","788","html-keyboard-response","339","408559","0.0-15.0-1.2","Wwc8LXevUt","650d7a81776dae5a035513ad","6617fad957f7c6a12ea16e26","6622cce2c6838027d30c7022","image grid","p","","","","","Phylogenetic_Distractor_Nonthreat_target","800","ongrid","p","2","Phylogenetic","true","experimental"
"","null","html-keyboard-response","340","408719","0.0-15.0-2.2","Wwc8LXevUt","650d7a81776dae5a035513ad","6617fad957f7c6a12ea16e26","6622cce2c6838027d30c7022","
    <div id=""grid-container"">
        <!-- Grid items will be dynamically added here -->
    </div>    ","null","","","","","","","","","","","",""
"","null","html-keyboard-response","341","409422","0.0-15.0-0.3","Wwc8LXevUt","650d7a81776dae5a035513ad","6617fad957f7c6a12ea16e26","6622cce2c6838027d30c7022","fixation cross","null","","","","","","","","","","","",""
"","null","html-keyboard-response","342","410227","0.0-15.0-1.3","Wwc8LXevUt","650d7a81776dae5a035513ad","6617fad957f7c6a12ea16e26","6622cce2c6838027d30c7022","
        <div id=""grid-container"">
        <!-- Grid items will be dynamically added here -->
    </div>    ","null","","","","","","","","","","","",""
"","872","html-keyboard-response","343","410301","0.0-15.0-2.3","Wwc8LXevUt","650d7a81776dae5a035513ad","6617fad957f7c6a12ea16e26","6622cce2c6838027d30c7022","mask grid","p","","","","","Phylogenetic_Distractor_Nonthreat_target","800","onmask","p","2","Phylogenetic","true","experimental"
"","null","html-keyboard-response","344","411006","0.0-15.0-0.4","Wwc8LXevUt","650d7a81776dae5a035513ad","6617fad957f7c6a12ea16e26","6622cce2c6838027d30c7022","fixation cross","null","","","","","","","","","","","",""
"","null","html-keyboard-response","345","411811","0.0-15.0-1.4","Wwc8LXevUt","650d7a81776dae5a035513ad","6617fad957f7c6a12ea16e26","6622cce2c6838027d30c7022","
        <div id=""grid-container"">
        <!-- Grid items will be dynamically added here -->
    </div>    ","null","","","","","","","","","","","",""
"","1060","html-keyboard-response","346","412074","0.0-15.0-2.4","Wwc8LXevUt","650d7a81776dae5a035513ad","6617fad957f7c6a12ea16e26","6622cce2c6838027d30c7022","mask grid"," ","","","","","Phylogenetic_Distractor_notarget","800","onmask"," ","5","Phylogenetic","true","experimental"
"","null","html-keyboard-response","347","412783","0.0-15.0-0.5","Wwc8LXevUt","650d7a81776dae5a035513ad","6617fad957f7c6a12ea16e26","6622cce2c6838027d30c7022","fixation cross","null","","","","","","","","","","","",""
"","622","html-keyboard-response","348","413408","0.0-15.0-1.5","Wwc8LXevUt","650d7a81776dae5a035513ad","6617fad957f7c6a12ea16e26","6622cce2c6838027d30c7022","image grid","q","","","","","Phylogenetic_Distractor_Threat_target","800","ongrid","q","9","Phylogenetic","true","experimental"
"","null","html-keyboard-response","349","413561","0.0-15.0-2.5","Wwc8LXevUt","650d7a81776dae5a035513ad","6617fad957f7c6a12ea16e26","6622cce2c6838027d30c7022","
    <div id=""grid-container"">
        <!-- Grid items will be dynamically added here -->
    </div>    ","null","","","","","","","","","","","",""
"","null","html-keyboard-response","350","414267","0.0-15.0-0.6","Wwc8LXevUt","650d7a81776dae5a035513ad","6617fad957f7c6a12ea16e26","6622cce2c6838027d30c7022","fixation cross","null","","","","","","","","","","","",""
"","585","html-keyboard-response","351","414857","0.0-15.0-1.6","Wwc8LXevUt","650d7a81776dae5a035513ad","6617fad957f7c6a12ea16e26","6622cce2c6838027d30c7022","image grid","p","","","","","Phylogenetic_Distractor_notarget","800","ongrid"," ","5","Phylogenetic","false","experimental"
"","null","html-keyboard-response","352","415018","0.0-15.0-2.6","Wwc8LXevUt","650d7a81776dae5a035513ad","6617fad957f7c6a12ea16e26","6622cce2c6838027d30c7022","
    <div id=""grid-container"">
        <!-- Grid items will be dynamically added here -->
    </div>    ","null","","","","","","","","","","","",""
"","null","html-keyboard-response","353","415723","0.0-15.0-0.7","Wwc8LXevUt","650d7a81776dae5a035513ad","6617fad957f7c6a12ea16e26","6622cce2c6838027d30c7022","fixation cross","null","","","","","","","","","","","",""
"","577","html-keyboard-response","354","416305","0.0-15.0-1.7","Wwc8LXevUt","650d7a81776dae5a035513ad","6617fad957f7c6a12ea16e26","6622cce2c6838027d30c7022","image grid","q","","","","","Phylogenetic_Distractor_Threat_target","800","ongrid","q","9","Phylogenetic","true","experimental"
"","null","html-keyboard-response","355","416465","0.0-15.0-2.7","Wwc8LXevUt","650d7a81776dae5a035513ad","6617fad957f7c6a12ea16e26","6622cce2c6838027d30c7022","
    <div id=""grid-container"">
        <!-- Grid items will be dynamically added here -->
    </div>    ","null","","","","","","","","","","","",""
"","null","html-keyboard-response","356","417169","0.0-15.0-0.8","Wwc8LXevUt","650d7a81776dae5a035513ad","6617fad957f7c6a12ea16e26","6622cce2c6838027d30c7022","fixation cross","null","","","","","","","","","","","",""
"","737","html-keyboard-response","357","417909","0.0-15.0-1.8","Wwc8LXevUt","650d7a81776dae5a035513ad","6617fad957f7c6a12ea16e26","6622cce2c6838027d30c7022","image grid"," ","","","","","Phylogenetic_Distractor_Threat_target","800","ongrid","q","8","Phylogenetic","false","experimental"
"","null","html-keyboard-response","358","418068","0.0-15.0-2.8","Wwc8LXevUt","650d7a81776dae5a035513ad","6617fad957f7c6a12ea16e26","6622cce2c6838027d30c7022","
    <div id=""grid-container"">
        <!-- Grid items will be dynamically added here -->
    </div>    ","null","","","","","","","","","","","",""
"","null","html-keyboard-response","359","418772","0.0-15.0-0.9","Wwc8LXevUt","650d7a81776dae5a035513ad","6617fad957f7c6a12ea16e26","6622cce2c6838027d30c7022","fixation cross","null","","","","","","","","","","","",""
"","765","html-keyboard-response","360","419542","0.0-15.0-1.9","Wwc8LXevUt","650d7a81776dae5a035513ad","6617fad957f7c6a12ea16e26","6622cce2c6838027d30c7022","image grid","q","","","","","Phylogenetic_Distractor_Threat_target","800","ongrid","q","5","Phylogenetic","true","experimental"
"","null","html-keyboard-response","361","419702","0.0-15.0-2.9","Wwc8LXevUt","650d7a81776dae5a035513ad","6617fad957f7c6a12ea16e26","6622cce2c6838027d30c7022","
    <div id=""grid-container"">
        <!-- Grid items will be dynamically added here -->
    </div>    ","null","","","","","","","","","","","",""
"","null","html-keyboard-response","362","420408","0.0-15.0-0.10","Wwc8LXevUt","650d7a81776dae5a035513ad","6617fad957f7c6a12ea16e26","6622cce2c6838027d30c7022","fixation cross","null","","","","","","","","","","","",""
"","554","html-keyboard-response","363","420967","0.0-15.0-1.10","Wwc8LXevUt","650d7a81776dae5a035513ad","6617fad957f7c6a12ea16e26","6622cce2c6838027d30c7022","image grid","q","","","","","Phylogenetic_Distractor_Threat_target","800","ongrid","q","8","Phylogenetic","true","experimental"
"","null","html-keyboard-response","364","421124","0.0-15.0-2.10","Wwc8LXevUt","650d7a81776dae5a035513ad","6617fad957f7c6a12ea16e26","6622cce2c6838027d30c7022","
    <div id=""grid-container"">
        <!-- Grid items will be dynamically added here -->
    </div>    ","null","","","","","","","","","","","",""
"","null","html-keyboard-response","365","421828","0.0-15.0-0.11","Wwc8LXevUt","650d7a81776dae5a035513ad","6617fad957f7c6a12ea16e26","6622cce2c6838027d30c7022","fixation cross","null","","","","","","","","","","","",""
"","596","html-keyboard-response","366","422428","0.0-15.0-1.11","Wwc8LXevUt","650d7a81776dae5a035513ad","6617fad957f7c6a12ea16e26","6622cce2c6838027d30c7022","image grid","p","","","","","Phylogenetic_Distractor_Nonthreat_target","800","ongrid","p","5","Phylogenetic","true","experimental"
"","null","html-keyboard-response","367","422587","0.0-15.0-2.11","Wwc8LXevUt","650d7a81776dae5a035513ad","6617fad957f7c6a12ea16e26","6622cce2c6838027d30c7022","
    <div id=""grid-container"">
        <!-- Grid items will be dynamically added here -->
    </div>    ","null","","","","","","","","","","","",""
"","null","html-keyboard-response","368","423291","0.0-15.0-0.12","Wwc8LXevUt","650d7a81776dae5a035513ad","6617fad957f7c6a12ea16e26","6622cce2c6838027d30c7022","fixation cross","null","","","","","","","","","","","",""
"","null","html-keyboard-response","369","424097","0.0-15.0-1.12","Wwc8LXevUt","650d7a81776dae5a035513ad","6617fad957f7c6a12ea16e26","6622cce2c6838027d30c7022","
        <div id=""grid-container"">
        <!-- Grid items will be dynamically added here -->
    </div>    ","null","","","","","","","","","","","",""
