"success","rt","trial_type","trial_index","time_elapsed","internal_node_id","unique_identifier","subject_id","study_id","session_id","stimulus","response","timeout","failed_images","failed_audio","failed_video","task","respondedwhen","time_manipulation","correctresponse","targetimagelocation","blocktype","correct","roundtype"
"true","1577","fullscreen","0","2594","0.0-0.0","yNMX6MVtGs","66105c776fb388e117f927b3","6617fad957f7c6a12ea16e26","6622cde3a1eeca31c61db6fc","","","","","","","","","","","","","",""
"","6241","html-keyboard-response","1","8840","0.0-1.0","yNMX6MVtGs","66105c776fb388e117f927b3","6617fad957f7c6a12ea16e26","6622cde3a1eeca31c61db6fc","instruction screen 0"," ","","","","","","","","","","","",""
"true","","preload","2","11120","0.0-2.0","yNMX6MVtGs","66105c776fb388e117f927b3","6617fad957f7c6a12ea16e26","6622cde3a1eeca31c61db6fc","","","false","[]","[]","[]","","","","","","","",""
"","8193","html-keyboard-response","3","19314","0.0-3.0","yNMX6MVtGs","66105c776fb388e117f927b3","6617fad957f7c6a12ea16e26","6622cde3a1eeca31c61db6fc","instruction screen 1"," ","","","","","","","","","","","",""
"","8509","html-keyboard-response","4","27829","0.0-4.0","yNMX6MVtGs","66105c776fb388e117f927b3","6617fad957f7c6a12ea16e26","6622cde3a1eeca31c61db6fc","instruction screen 2","q","","","","","","","","","","","",""
"","6370","html-keyboard-response","5","34204","0.0-5.0","yNMX6MVtGs","66105c776fb388e117f927b3","6617fad957f7c6a12ea16e26","6622cde3a1eeca31c61db6fc","instruction screen 3","p","","","","","","","","","","","",""
"","4339","html-keyboard-response","6","38550","0.0-6.0","yNMX6MVtGs","66105c776fb388e117f927b3","6617fad957f7c6a12ea16e26","6622cde3a1eeca31c61db6fc","instruction screen 4"," ","","","","","","","","","","","",""
"","11091","html-keyboard-response","7","49646","0.0-7.0","yNMX6MVtGs","66105c776fb388e117f927b3","6617fad957f7c6a12ea16e26","6622cde3a1eeca31c61db6fc","instruction screen 5"," ","","","","","","","","","","","",""
"","null","html-keyboard-response","8","50156","0.0-8.0","yNMX6MVtGs","66105c776fb388e117f927b3","6617fad957f7c6a12ea16e26","6622cde3a1eeca31c61db6fc","fixation cross","null","","","","","","","","","","","",""
"","null","html-keyboard-response","9","50663","0.0-9.0-0.0","yNMX6MVtGs","66105c776fb388e117f927b3","6617fad957f7c6a12ea16e26","6622cde3a1eeca31c61db6fc","fixation cross","null","","","","","","","","","","","",""
"","null","html-keyboard-response","10","53677","0.0-9.0-1.0","yNMX6MVtGs","66105c776fb388e117f927b3","6617fad957f7c6a12ea16e26","6622cde3a1eeca31c61db6fc","
        <div id=""grid-container"">
        <!-- Grid items will be dynamically added here -->
    </div>    ","null","","","","","","","","","","","",""
"","5023","html-keyboard-response","11","55701","0.0-9.0-2.0","yNMX6MVtGs","66105c776fb388e117f927b3","6617fad957f7c6a12ea16e26","6622cde3a1eeca31c61db6fc","mask grid","q","","","","","Phylogenetic_Distractor_Threat_target","onmask","3000","q","5","Ontogenetic","true","practice"
"","null","html-keyboard-response","12","56923","0.0-9.0-3.0","yNMX6MVtGs","66105c776fb388e117f927b3","6617fad957f7c6a12ea16e26","6622cde3a1eeca31c61db6fc","feedback screen","null","","","","","","","","","","","",""
"","null","html-keyboard-response","13","57430","0.0-9.0-0.1","yNMX6MVtGs","66105c776fb388e117f927b3","6617fad957f7c6a12ea16e26","6622cde3a1eeca31c61db6fc","fixation cross","null","","","","","","","","","","","",""
"","null","html-keyboard-response","14","60339","0.0-9.0-1.1","yNMX6MVtGs","66105c776fb388e117f927b3","6617fad957f7c6a12ea16e26","6622cde3a1eeca31c61db6fc","
        <div id=""grid-container"">
        <!-- Grid items will be dynamically added here -->
    </div>    ","null","","","","","","","","","","","",""
"","3483","html-keyboard-response","15","60923","0.0-9.0-2.1","yNMX6MVtGs","66105c776fb388e117f927b3","6617fad957f7c6a12ea16e26","6622cde3a1eeca31c61db6fc","mask grid","p","","","","","Phylogenetic_Distractor_notarget","onmask","2900"," ","1","Ontogenetic","false","practice"
"","null","html-keyboard-response","16","62128","0.0-9.0-3.1","yNMX6MVtGs","66105c776fb388e117f927b3","6617fad957f7c6a12ea16e26","6622cde3a1eeca31c61db6fc","feedback screen","null","","","","","","","","","","","",""
"","null","html-keyboard-response","17","62637","0.0-9.0-0.2","yNMX6MVtGs","66105c776fb388e117f927b3","6617fad957f7c6a12ea16e26","6622cde3a1eeca31c61db6fc","fixation cross","null","","","","","","","","","","","",""
"","null","html-keyboard-response","18","65444","0.0-9.0-1.2","yNMX6MVtGs","66105c776fb388e117f927b3","6617fad957f7c6a12ea16e26","6622cde3a1eeca31c61db6fc","
        <div id=""grid-container"">
        <!-- Grid items will be dynamically added here -->
    </div>    ","null","","","","","","","","","","","",""
"","4012","html-keyboard-response","19","66657","0.0-9.0-2.2","yNMX6MVtGs","66105c776fb388e117f927b3","6617fad957f7c6a12ea16e26","6622cde3a1eeca31c61db6fc","mask grid"," ","","","","","Phylogenetic_Distractor_Nonthreat_target","onmask","2800","p","7","Ontogenetic","false","practice"
"","null","html-keyboard-response","20","67876","0.0-9.0-3.2","yNMX6MVtGs","66105c776fb388e117f927b3","6617fad957f7c6a12ea16e26","6622cde3a1eeca31c61db6fc","feedback screen","null","","","","","","","","","","","",""
"","null","html-keyboard-response","21","68383","0.0-9.0-0.3","yNMX6MVtGs","66105c776fb388e117f927b3","6617fad957f7c6a12ea16e26","6622cde3a1eeca31c61db6fc","fixation cross","null","","","","","","","","","","","",""
"","null","html-keyboard-response","22","71098","0.0-9.0-1.3","yNMX6MVtGs","66105c776fb388e117f927b3","6617fad957f7c6a12ea16e26","6622cde3a1eeca31c61db6fc","
        <div id=""grid-container"">
        <!-- Grid items will be dynamically added here -->
    </div>    ","null","","","","","","","","","","","",""
"","3290","html-keyboard-response","23","71689","0.0-9.0-2.3","yNMX6MVtGs","66105c776fb388e117f927b3","6617fad957f7c6a12ea16e26","6622cde3a1eeca31c61db6fc","mask grid","q","","","","","Phylogenetic_Distractor_Threat_target","onmask","2700","q","8","Ontogenetic","true","practice"
"","null","html-keyboard-response","24","72901","0.0-9.0-3.3","yNMX6MVtGs","66105c776fb388e117f927b3","6617fad957f7c6a12ea16e26","6622cde3a1eeca31c61db6fc","feedback screen","null","","","","","","","","","","","",""
"","null","html-keyboard-response","25","73422","0.0-9.0-0.4","yNMX6MVtGs","66105c776fb388e117f927b3","6617fad957f7c6a12ea16e26","6622cde3a1eeca31c61db6fc","fixation cross","null","","","","","","","","","","","",""
"","null","html-keyboard-response","26","76037","0.0-9.0-1.4","yNMX6MVtGs","66105c776fb388e117f927b3","6617fad957f7c6a12ea16e26","6622cde3a1eeca31c61db6fc","
        <div id=""grid-container"">
        <!-- Grid items will be dynamically added here -->
    </div>    ","null","","","","","","","","","","","",""
"","3007","html-keyboard-response","27","76445","0.0-9.0-2.4","yNMX6MVtGs","66105c776fb388e117f927b3","6617fad957f7c6a12ea16e26","6622cde3a1eeca31c61db6fc","mask grid","p","","","","","Ontogenetic_Distractor_notarget","onmask","2600"," ","9","Ontogenetic","false","practice"
"","null","html-keyboard-response","28","77669","0.0-9.0-3.4","yNMX6MVtGs","66105c776fb388e117f927b3","6617fad957f7c6a12ea16e26","6622cde3a1eeca31c61db6fc","feedback screen","null","","","","","","","","","","","",""
"","null","html-keyboard-response","29","78177","0.0-9.0-0.5","yNMX6MVtGs","66105c776fb388e117f927b3","6617fad957f7c6a12ea16e26","6622cde3a1eeca31c61db6fc","fixation cross","null","","","","","","","","","","","",""
"","null","html-keyboard-response","30","80686","0.0-9.0-1.5","yNMX6MVtGs","66105c776fb388e117f927b3","6617fad957f7c6a12ea16e26","6622cde3a1eeca31c61db6fc","
        <div id=""grid-container"">
        <!-- Grid items will be dynamically added here -->
    </div>    ","null","","","","","","","","","","","",""
"","2944","html-keyboard-response","31","81131","0.0-9.0-2.5","yNMX6MVtGs","66105c776fb388e117f927b3","6617fad957f7c6a12ea16e26","6622cde3a1eeca31c61db6fc","mask grid","p","","","","","Ontogenetic_Distractor_Nonthreat_target","onmask","2500","p","8","Ontogenetic","true","practice"
"","null","html-keyboard-response","32","82351","0.0-9.0-3.5","yNMX6MVtGs","66105c776fb388e117f927b3","6617fad957f7c6a12ea16e26","6622cde3a1eeca31c61db6fc","feedback screen","null","","","","","","","","","","","",""
"","null","html-keyboard-response","33","82858","0.0-9.0-0.6","yNMX6MVtGs","66105c776fb388e117f927b3","6617fad957f7c6a12ea16e26","6622cde3a1eeca31c61db6fc","fixation cross","null","","","","","","","","","","","",""
"","null","html-keyboard-response","34","85274","0.0-9.0-1.6","yNMX6MVtGs","66105c776fb388e117f927b3","6617fad957f7c6a12ea16e26","6622cde3a1eeca31c61db6fc","
        <div id=""grid-container"">
        <!-- Grid items will be dynamically added here -->
    </div>    ","null","","","","","","","","","","","",""
"","3043","html-keyboard-response","35","85918","0.0-9.0-2.6","yNMX6MVtGs","66105c776fb388e117f927b3","6617fad957f7c6a12ea16e26","6622cde3a1eeca31c61db6fc","mask grid","p","","","","","Ontogenetic_Distractor_Nonthreat_target","onmask","2400","p","1","Ontogenetic","true","practice"
"","null","html-keyboard-response","36","87138","0.0-9.0-3.6","yNMX6MVtGs","66105c776fb388e117f927b3","6617fad957f7c6a12ea16e26","6622cde3a1eeca31c61db6fc","feedback screen","null","","","","","","","","","","","",""
"","null","html-keyboard-response","37","87646","0.0-9.0-0.7","yNMX6MVtGs","66105c776fb388e117f927b3","6617fad957f7c6a12ea16e26","6622cde3a1eeca31c61db6fc","fixation cross","null","","","","","","","","","","","",""
"","null","html-keyboard-response","38","89954","0.0-9.0-1.7","yNMX6MVtGs","66105c776fb388e117f927b3","6617fad957f7c6a12ea16e26","6622cde3a1eeca31c61db6fc","
        <div id=""grid-container"">
        <!-- Grid items will be dynamically added here -->
    </div>    ","null","","","","","","","","","","","",""
"","2909","html-keyboard-response","39","90564","0.0-9.0-2.7","yNMX6MVtGs","66105c776fb388e117f927b3","6617fad957f7c6a12ea16e26","6622cde3a1eeca31c61db6fc","mask grid","p","","","","","Ontogenetic_Distractor_Nonthreat_target","onmask","2300","p","8","Ontogenetic","true","practice"
"","null","html-keyboard-response","40","91785","0.0-9.0-3.7","yNMX6MVtGs","66105c776fb388e117f927b3","6617fad957f7c6a12ea16e26","6622cde3a1eeca31c61db6fc","feedback screen","null","","","","","","","","","","","",""
"","null","html-keyboard-response","41","92295","0.0-9.0-0.8","yNMX6MVtGs","66105c776fb388e117f927b3","6617fad957f7c6a12ea16e26","6622cde3a1eeca31c61db6fc","fixation cross","null","","","","","","","","","","","",""
"","null","html-keyboard-response","42","94512","0.0-9.0-1.8","yNMX6MVtGs","66105c776fb388e117f927b3","6617fad957f7c6a12ea16e26","6622cde3a1eeca31c61db6fc","
        <div id=""grid-container"">
        <!-- Grid items will be dynamically added here -->
    </div>    ","null","","","","","","","","","","","",""
"","3113","html-keyboard-response","43","95426","0.0-9.0-2.8","yNMX6MVtGs","66105c776fb388e117f927b3","6617fad957f7c6a12ea16e26","6622cde3a1eeca31c61db6fc","mask grid","p","","","","","Phylogenetic_Distractor_Nonthreat_target","onmask","2200","p","2","Ontogenetic","true","practice"
"","null","html-keyboard-response","44","96643","0.0-9.0-3.8","yNMX6MVtGs","66105c776fb388e117f927b3","6617fad957f7c6a12ea16e26","6622cde3a1eeca31c61db6fc","feedback screen","null","","","","","","","","","","","",""
"","null","html-keyboard-response","45","97151","0.0-9.0-0.9","yNMX6MVtGs","66105c776fb388e117f927b3","6617fad957f7c6a12ea16e26","6622cde3a1eeca31c61db6fc","fixation cross","null","","","","","","","","","","","",""
"","null","html-keyboard-response","46","99264","0.0-9.0-1.9","yNMX6MVtGs","66105c776fb388e117f927b3","6617fad957f7c6a12ea16e26","6622cde3a1eeca31c61db6fc","
        <div id=""grid-container"">
        <!-- Grid items will be dynamically added here -->
    </div>    ","null","","","","","","","","","","","",""
"","3314","html-keyboard-response","47","100478","0.0-9.0-2.9","yNMX6MVtGs","66105c776fb388e117f927b3","6617fad957f7c6a12ea16e26","6622cde3a1eeca31c61db6fc","mask grid","p","","","","","Phylogenetic_Distractor_Nonthreat_target","onmask","2100","p","5","Ontogenetic","true","practice"
"","null","html-keyboard-response","48","101686","0.0-9.0-3.9","yNMX6MVtGs","66105c776fb388e117f927b3","6617fad957f7c6a12ea16e26","6622cde3a1eeca31c61db6fc","feedback screen","null","","","","","","","","","","","",""
"","null","html-keyboard-response","49","102194","0.0-9.0-0.10","yNMX6MVtGs","66105c776fb388e117f927b3","6617fad957f7c6a12ea16e26","6622cde3a1eeca31c61db6fc","fixation cross","null","","","","","","","","","","","",""
"","null","html-keyboard-response","50","104196","0.0-9.0-1.10","yNMX6MVtGs","66105c776fb388e117f927b3","6617fad957f7c6a12ea16e26","6622cde3a1eeca31c61db6fc","
        <div id=""grid-container"">
        <!-- Grid items will be dynamically added here -->
    </div>    ","null","","","","","","","","","","","",""
"","2551","html-keyboard-response","51","104748","0.0-9.0-2.10","yNMX6MVtGs","66105c776fb388e117f927b3","6617fad957f7c6a12ea16e26","6622cde3a1eeca31c61db6fc","mask grid","q","","","","","Phylogenetic_Distractor_Threat_target","onmask","2000","q","3","Ontogenetic","true","practice"
"","null","html-keyboard-response","52","105964","0.0-9.0-3.10","yNMX6MVtGs","66105c776fb388e117f927b3","6617fad957f7c6a12ea16e26","6622cde3a1eeca31c61db6fc","feedback screen","null","","","","","","","","","","","",""
"","null","html-keyboard-response","53","106474","0.0-9.0-0.11","yNMX6MVtGs","66105c776fb388e117f927b3","6617fad957f7c6a12ea16e26","6622cde3a1eeca31c61db6fc","fixation cross","null","","","","","","","","","","","",""
"","null","html-keyboard-response","54","108382","0.0-9.0-1.11","yNMX6MVtGs","66105c776fb388e117f927b3","6617fad957f7c6a12ea16e26","6622cde3a1eeca31c61db6fc","
        <div id=""grid-container"">
        <!-- Grid items will be dynamically added here -->
    </div>    ","null","","","","","","","","","","","",""
"","2375","html-keyboard-response","55","108858","0.0-9.0-2.11","yNMX6MVtGs","66105c776fb388e117f927b3","6617fad957f7c6a12ea16e26","6622cde3a1eeca31c61db6fc","mask grid","p","","","","","Ontogenetic_Distractor_Nonthreat_target","onmask","1900","p","4","Ontogenetic","true","practice"
"","null","html-keyboard-response","56","110089","0.0-9.0-3.11","yNMX6MVtGs","66105c776fb388e117f927b3","6617fad957f7c6a12ea16e26","6622cde3a1eeca31c61db6fc","feedback screen","null","","","","","","","","","","","",""
"","null","html-keyboard-response","57","110597","0.0-9.0-0.12","yNMX6MVtGs","66105c776fb388e117f927b3","6617fad957f7c6a12ea16e26","6622cde3a1eeca31c61db6fc","fixation cross","null","","","","","","","","","","","",""
"","null","html-keyboard-response","58","112412","0.0-9.0-1.12","yNMX6MVtGs","66105c776fb388e117f927b3","6617fad957f7c6a12ea16e26","6622cde3a1eeca31c61db6fc","
        <div id=""grid-container"">
        <!-- Grid items will be dynamically added here -->
    </div>    ","null","","","","","","","","","","","",""
"","2931","html-keyboard-response","59","113544","0.0-9.0-2.12","yNMX6MVtGs","66105c776fb388e117f927b3","6617fad957f7c6a12ea16e26","6622cde3a1eeca31c61db6fc","mask grid","p","","","","","Phylogenetic_Distractor_notarget","onmask","1800"," ","5","Ontogenetic","false","practice"
"","null","html-keyboard-response","60","114766","0.0-9.0-3.12","yNMX6MVtGs","66105c776fb388e117f927b3","6617fad957f7c6a12ea16e26","6622cde3a1eeca31c61db6fc","feedback screen","null","","","","","","","","","","","",""
"","null","html-keyboard-response","61","115277","0.0-9.0-0.13","yNMX6MVtGs","66105c776fb388e117f927b3","6617fad957f7c6a12ea16e26","6622cde3a1eeca31c61db6fc","fixation cross","null","","","","","","","","","","","",""
"","null","html-keyboard-response","62","116986","0.0-9.0-1.13","yNMX6MVtGs","66105c776fb388e117f927b3","6617fad957f7c6a12ea16e26","6622cde3a1eeca31c61db6fc","
        <div id=""grid-container"">
        <!-- Grid items will be dynamically added here -->
    </div>    ","null","","","","","","","","","","","",""
"","2256","html-keyboard-response","63","117543","0.0-9.0-2.13","yNMX6MVtGs","66105c776fb388e117f927b3","6617fad957f7c6a12ea16e26","6622cde3a1eeca31c61db6fc","mask grid","p","","","","","Phylogenetic_Distractor_Nonthreat_target","onmask","1700","p","6","Ontogenetic","true","practice"
"","null","html-keyboard-response","64","118772","0.0-9.0-3.13","yNMX6MVtGs","66105c776fb388e117f927b3","6617fad957f7c6a12ea16e26","6622cde3a1eeca31c61db6fc","feedback screen","null","","","","","","","","","","","",""
"","null","html-keyboard-response","65","119279","0.0-9.0-0.14","yNMX6MVtGs","66105c776fb388e117f927b3","6617fad957f7c6a12ea16e26","6622cde3a1eeca31c61db6fc","fixation cross","null","","","","","","","","","","","",""
"","null","html-keyboard-response","66","120895","0.0-9.0-1.14","yNMX6MVtGs","66105c776fb388e117f927b3","6617fad957f7c6a12ea16e26","6622cde3a1eeca31c61db6fc","
        <div id=""grid-container"">
        <!-- Grid items will be dynamically added here -->
    </div>    ","null","","","","","","","","","","","",""
"","2382","html-keyboard-response","67","121678","0.0-9.0-2.14","yNMX6MVtGs","66105c776fb388e117f927b3","6617fad957f7c6a12ea16e26","6622cde3a1eeca31c61db6fc","mask grid","q","","","","","Ontogenetic_Distractor_Threat_target","onmask","1600","q","2","Ontogenetic","true","practice"
"","null","html-keyboard-response","68","122896","0.0-9.0-3.14","yNMX6MVtGs","66105c776fb388e117f927b3","6617fad957f7c6a12ea16e26","6622cde3a1eeca31c61db6fc","feedback screen","null","","","","","","","","","","","",""
"","null","html-keyboard-response","69","123406","0.0-9.0-0.15","yNMX6MVtGs","66105c776fb388e117f927b3","6617fad957f7c6a12ea16e26","6622cde3a1eeca31c61db6fc","fixation cross","null","","","","","","","","","","","",""
"","null","html-keyboard-response","70","124911","0.0-9.0-1.15","yNMX6MVtGs","66105c776fb388e117f927b3","6617fad957f7c6a12ea16e26","6622cde3a1eeca31c61db6fc","
        <div id=""grid-container"">
        <!-- Grid items will be dynamically added here -->
    </div>    ","null","","","","","","","","","","","",""
"","2101","html-keyboard-response","71","125513","0.0-9.0-2.15","yNMX6MVtGs","66105c776fb388e117f927b3","6617fad957f7c6a12ea16e26","6622cde3a1eeca31c61db6fc","mask grid","q","","","","","Ontogenetic_Distractor_Threat_target","onmask","1500","q","7","Ontogenetic","true","practice"
"","null","html-keyboard-response","72","126741","0.0-9.0-3.15","yNMX6MVtGs","66105c776fb388e117f927b3","6617fad957f7c6a12ea16e26","6622cde3a1eeca31c61db6fc","feedback screen","null","","","","","","","","","","","",""
"","null","html-keyboard-response","73","127251","0.0-9.0-0.16","yNMX6MVtGs","66105c776fb388e117f927b3","6617fad957f7c6a12ea16e26","6622cde3a1eeca31c61db6fc","fixation cross","null","","","","","","","","","","","",""
"","null","html-keyboard-response","74","128654","0.0-9.0-1.16","yNMX6MVtGs","66105c776fb388e117f927b3","6617fad957f7c6a12ea16e26","6622cde3a1eeca31c61db6fc","
        <div id=""grid-container"">
        <!-- Grid items will be dynamically added here -->
    </div>    ","null","","","","","","","","","","","",""
"","2001","html-keyboard-response","75","129255","0.0-9.0-2.16","yNMX6MVtGs","66105c776fb388e117f927b3","6617fad957f7c6a12ea16e26","6622cde3a1eeca31c61db6fc","mask grid"," ","","","","","Ontogenetic_Distractor_notarget","onmask","1400"," ","2","Ontogenetic","true","practice"
"","null","html-keyboard-response","76","130464","0.0-9.0-3.16","yNMX6MVtGs","66105c776fb388e117f927b3","6617fad957f7c6a12ea16e26","6622cde3a1eeca31c61db6fc","feedback screen","null","","","","","","","","","","","",""
"","null","html-keyboard-response","77","130971","0.0-9.0-0.17","yNMX6MVtGs","66105c776fb388e117f927b3","6617fad957f7c6a12ea16e26","6622cde3a1eeca31c61db6fc","fixation cross","null","","","","","","","","","","","",""
"","null","html-keyboard-response","78","132279","0.0-9.0-1.17","yNMX6MVtGs","66105c776fb388e117f927b3","6617fad957f7c6a12ea16e26","6622cde3a1eeca31c61db6fc","
        <div id=""grid-container"">
        <!-- Grid items will be dynamically added here -->
    </div>    ","null","","","","","","","","","","","",""
"","2200","html-keyboard-response","79","133180","0.0-9.0-2.17","yNMX6MVtGs","66105c776fb388e117f927b3","6617fad957f7c6a12ea16e26","6622cde3a1eeca31c61db6fc","mask grid","q","","","","","Ontogenetic_Distractor_Threat_target","onmask","1300","q","1","Ontogenetic","true","practice"
"","null","html-keyboard-response","80","134389","0.0-9.0-3.17","yNMX6MVtGs","66105c776fb388e117f927b3","6617fad957f7c6a12ea16e26","6622cde3a1eeca31c61db6fc","feedback screen","null","","","","","","","","","","","",""
"","null","html-keyboard-response","81","134897","0.0-9.0-0.18","yNMX6MVtGs","66105c776fb388e117f927b3","6617fad957f7c6a12ea16e26","6622cde3a1eeca31c61db6fc","fixation cross","null","","","","","","","","","","","",""
"","null","html-keyboard-response","82","136111","0.0-9.0-1.18","yNMX6MVtGs","66105c776fb388e117f927b3","6617fad957f7c6a12ea16e26","6622cde3a1eeca31c61db6fc","
        <div id=""grid-container"">
        <!-- Grid items will be dynamically added here -->
    </div>    ","null","","","","","","","","","","","",""
"","1727","html-keyboard-response","83","136639","0.0-9.0-2.18","yNMX6MVtGs","66105c776fb388e117f927b3","6617fad957f7c6a12ea16e26","6622cde3a1eeca31c61db6fc","mask grid","q","","","","","Phylogenetic_Distractor_Threat_target","onmask","1200","q","4","Ontogenetic","true","practice"
"","null","html-keyboard-response","84","137864","0.0-9.0-3.18","yNMX6MVtGs","66105c776fb388e117f927b3","6617fad957f7c6a12ea16e26","6622cde3a1eeca31c61db6fc","feedback screen","null","","","","","","","","","","","",""
"","null","html-keyboard-response","85","138373","0.0-9.0-0.19","yNMX6MVtGs","66105c776fb388e117f927b3","6617fad957f7c6a12ea16e26","6622cde3a1eeca31c61db6fc","fixation cross","null","","","","","","","","","","","",""
"","null","html-keyboard-response","86","139484","0.0-9.0-1.19","yNMX6MVtGs","66105c776fb388e117f927b3","6617fad957f7c6a12ea16e26","6622cde3a1eeca31c61db6fc","
        <div id=""grid-container"">
        <!-- Grid items will be dynamically added here -->
    </div>    ","null","","","","","","","","","","","",""
"","2003","html-keyboard-response","87","140387","0.0-9.0-2.19","yNMX6MVtGs","66105c776fb388e117f927b3","6617fad957f7c6a12ea16e26","6622cde3a1eeca31c61db6fc","mask grid","q","","","","","Ontogenetic_Distractor_Threat_target","onmask","1100","q","8","Ontogenetic","true","practice"
"","null","html-keyboard-response","88","141594","0.0-9.0-3.19","yNMX6MVtGs","66105c776fb388e117f927b3","6617fad957f7c6a12ea16e26","6622cde3a1eeca31c61db6fc","feedback screen","null","","","","","","","","","","","",""
"","7179","html-keyboard-response","89","148798","0.0-10.0","yNMX6MVtGs","66105c776fb388e117f927b3","6617fad957f7c6a12ea16e26","6622cde3a1eeca31c61db6fc","pre-experimental_briefing"," ","","","","","","","","","","","",""
"","null","html-keyboard-response","90","151339","0.0-11.0-0.0","yNMX6MVtGs","66105c776fb388e117f927b3","6617fad957f7c6a12ea16e26","6622cde3a1eeca31c61db6fc","fixation cross","null","","","","","","","","","","","",""
"","null","html-keyboard-response","91","152143","0.0-11.0-1.0","yNMX6MVtGs","66105c776fb388e117f927b3","6617fad957f7c6a12ea16e26","6622cde3a1eeca31c61db6fc","
        <div id=""grid-container"">
        <!-- Grid items will be dynamically added here -->
    </div>    ","null","","","","","","","","","","","",""
"","2495","html-keyboard-response","92","153839","0.0-11.0-2.0","yNMX6MVtGs","66105c776fb388e117f927b3","6617fad957f7c6a12ea16e26","6622cde3a1eeca31c61db6fc","mask grid"," ","","","","","Ontogenetic_Distractor_Threat_target","onmask","800","q","3","Ontogenetic","false","experimental"
"","null","html-keyboard-response","93","154549","0.0-11.0-0.1","yNMX6MVtGs","66105c776fb388e117f927b3","6617fad957f7c6a12ea16e26","6622cde3a1eeca31c61db6fc","fixation cross","null","","","","","","","","","","","",""
"","null","html-keyboard-response","94","155365","0.0-11.0-1.1","yNMX6MVtGs","66105c776fb388e117f927b3","6617fad957f7c6a12ea16e26","6622cde3a1eeca31c61db6fc","
        <div id=""grid-container"">
        <!-- Grid items will be dynamically added here -->
    </div>    ","null","","","","","","","","","","","",""
"","1469","html-keyboard-response","95","156034","0.0-11.0-2.1","yNMX6MVtGs","66105c776fb388e117f927b3","6617fad957f7c6a12ea16e26","6622cde3a1eeca31c61db6fc","mask grid","p","","","","","Ontogenetic_Distractor_Nonthreat_target","onmask","800","p","2","Ontogenetic","true","experimental"
"","null","html-keyboard-response","96","156753","0.0-11.0-0.2","yNMX6MVtGs","66105c776fb388e117f927b3","6617fad957f7c6a12ea16e26","6622cde3a1eeca31c61db6fc","fixation cross","null","","","","","","","","","","","",""
"","null","html-keyboard-response","97","157556","0.0-11.0-1.2","yNMX6MVtGs","66105c776fb388e117f927b3","6617fad957f7c6a12ea16e26","6622cde3a1eeca31c61db6fc","
        <div id=""grid-container"">
        <!-- Grid items will be dynamically added here -->
    </div>    ","null","","","","","","","","","","","",""
"","1389","html-keyboard-response","98","158145","0.0-11.0-2.2","yNMX6MVtGs","66105c776fb388e117f927b3","6617fad957f7c6a12ea16e26","6622cde3a1eeca31c61db6fc","mask grid","p","","","","","Ontogenetic_Distractor_Nonthreat_target","onmask","800","p","8","Ontogenetic","true","experimental"
"","null","html-keyboard-response","99","158863","0.0-11.0-0.3","yNMX6MVtGs","66105c776fb388e117f927b3","6617fad957f7c6a12ea16e26","6622cde3a1eeca31c61db6fc","fixation cross","null","","","","","","","","","","","",""
"","null","html-keyboard-response","100","159677","0.0-11.0-1.3","yNMX6MVtGs","66105c776fb388e117f927b3","6617fad957f7c6a12ea16e26","6622cde3a1eeca31c61db6fc","
        <div id=""grid-container"">
        <!-- Grid items will be dynamically added here -->
    </div>    ","null","","","","","","","","","","","",""
"","1408","html-keyboard-response","101","160286","0.0-11.0-2.3","yNMX6MVtGs","66105c776fb388e117f927b3","6617fad957f7c6a12ea16e26","6622cde3a1eeca31c61db6fc","mask grid","p","","","","","Ontogenetic_Distractor_Nonthreat_target","onmask","800","p","2","Ontogenetic","true","experimental"
"","null","html-keyboard-response","102","161007","0.0-11.0-0.4","yNMX6MVtGs","66105c776fb388e117f927b3","6617fad957f7c6a12ea16e26","6622cde3a1eeca31c61db6fc","fixation cross","null","","","","","","","","","","","",""
"","null","html-keyboard-response","103","161823","0.0-11.0-1.4","yNMX6MVtGs","66105c776fb388e117f927b3","6617fad957f7c6a12ea16e26","6622cde3a1eeca31c61db6fc","
        <div id=""grid-container"">
        <!-- Grid items will be dynamically added here -->
    </div>    ","null","","","","","","","","","","","",""
"","1442","html-keyboard-response","104","162465","0.0-11.0-2.4","yNMX6MVtGs","66105c776fb388e117f927b3","6617fad957f7c6a12ea16e26","6622cde3a1eeca31c61db6fc","mask grid","p","","","","","Ontogenetic_Distractor_Nonthreat_target","onmask","800","p","8","Ontogenetic","true","experimental"
"","null","html-keyboard-response","105","163179","0.0-11.0-0.5","yNMX6MVtGs","66105c776fb388e117f927b3","6617fad957f7c6a12ea16e26","6622cde3a1eeca31c61db6fc","fixation cross","null","","","","","","","","","","","",""
"","null","html-keyboard-response","106","163983","0.0-11.0-1.5","yNMX6MVtGs","66105c776fb388e117f927b3","6617fad957f7c6a12ea16e26","6622cde3a1eeca31c61db6fc","
        <div id=""grid-container"">
        <!-- Grid items will be dynamically added here -->
    </div>    ","null","","","","","","","","","","","",""
"","1943","html-keyboard-response","107","165126","0.0-11.0-2.5","yNMX6MVtGs","66105c776fb388e117f927b3","6617fad957f7c6a12ea16e26","6622cde3a1eeca31c61db6fc","mask grid","p","","","","","Ontogenetic_Distractor_notarget","onmask","800"," ","4","Ontogenetic","false","experimental"
"","null","html-keyboard-response","108","165851","0.0-11.0-0.6","yNMX6MVtGs","66105c776fb388e117f927b3","6617fad957f7c6a12ea16e26","6622cde3a1eeca31c61db6fc","fixation cross","null","","","","","","","","","","","",""
"","null","html-keyboard-response","109","166652","0.0-11.0-1.6","yNMX6MVtGs","66105c776fb388e117f927b3","6617fad957f7c6a12ea16e26","6622cde3a1eeca31c61db6fc","
        <div id=""grid-container"">
        <!-- Grid items will be dynamically added here -->
    </div>    ","null","","","","","","","","","","","",""
"","1525","html-keyboard-response","110","167378","0.0-11.0-2.6","yNMX6MVtGs","66105c776fb388e117f927b3","6617fad957f7c6a12ea16e26","6622cde3a1eeca31c61db6fc","mask grid","q","","","","","Ontogenetic_Distractor_Threat_target","onmask","800","q","1","Ontogenetic","true","experimental"
"","null","html-keyboard-response","111","168101","0.0-11.0-0.7","yNMX6MVtGs","66105c776fb388e117f927b3","6617fad957f7c6a12ea16e26","6622cde3a1eeca31c61db6fc","fixation cross","null","","","","","","","","","","","",""
"","null","html-keyboard-response","112","168918","0.0-11.0-1.7","yNMX6MVtGs","66105c776fb388e117f927b3","6617fad957f7c6a12ea16e26","6622cde3a1eeca31c61db6fc","
        <div id=""grid-container"">
        <!-- Grid items will be dynamically added here -->
    </div>    ","null","","","","","","","","","","","",""
"","1765","html-keyboard-response","113","169883","0.0-11.0-2.7","yNMX6MVtGs","66105c776fb388e117f927b3","6617fad957f7c6a12ea16e26","6622cde3a1eeca31c61db6fc","mask grid","p","","","","","Ontogenetic_Distractor_Nonthreat_target","onmask","800","p","9","Ontogenetic","true","experimental"
"","null","html-keyboard-response","114","170596","0.0-11.0-0.8","yNMX6MVtGs","66105c776fb388e117f927b3","6617fad957f7c6a12ea16e26","6622cde3a1eeca31c61db6fc","fixation cross","null","","","","","","","","","","","",""
"","null","html-keyboard-response","115","171398","0.0-11.0-1.8","yNMX6MVtGs","66105c776fb388e117f927b3","6617fad957f7c6a12ea16e26","6622cde3a1eeca31c61db6fc","
        <div id=""grid-container"">
        <!-- Grid items will be dynamically added here -->
    </div>    ","null","","","","","","","","","","","",""
"","2422","html-keyboard-response","116","173021","0.0-11.0-2.8","yNMX6MVtGs","66105c776fb388e117f927b3","6617fad957f7c6a12ea16e26","6622cde3a1eeca31c61db6fc","mask grid","p","","","","","Ontogenetic_Distractor_Nonthreat_target","onmask","800","p","9","Ontogenetic","true","experimental"
"","null","html-keyboard-response","117","173737","0.0-11.0-0.9","yNMX6MVtGs","66105c776fb388e117f927b3","6617fad957f7c6a12ea16e26","6622cde3a1eeca31c61db6fc","fixation cross","null","","","","","","","","","","","",""
"","null","html-keyboard-response","118","174539","0.0-11.0-1.9","yNMX6MVtGs","66105c776fb388e117f927b3","6617fad957f7c6a12ea16e26","6622cde3a1eeca31c61db6fc","
        <div id=""grid-container"">
        <!-- Grid items will be dynamically added here -->
    </div>    ","null","","","","","","","","","","","",""
"","1346","html-keyboard-response","119","175085","0.0-11.0-2.9","yNMX6MVtGs","66105c776fb388e117f927b3","6617fad957f7c6a12ea16e26","6622cde3a1eeca31c61db6fc","mask grid","p","","","","","Ontogenetic_Distractor_Nonthreat_target","onmask","800","p","6","Ontogenetic","true","experimental"
"","null","html-keyboard-response","120","175803","0.0-11.0-0.10","yNMX6MVtGs","66105c776fb388e117f927b3","6617fad957f7c6a12ea16e26","6622cde3a1eeca31c61db6fc","fixation cross","null","","","","","","","","","","","",""
"","null","html-keyboard-response","121","176606","0.0-11.0-1.10","yNMX6MVtGs","66105c776fb388e117f927b3","6617fad957f7c6a12ea16e26","6622cde3a1eeca31c61db6fc","
        <div id=""grid-container"">
        <!-- Grid items will be dynamically added here -->
    </div>    ","null","","","","","","","","","","","",""
"","1970","html-keyboard-response","122","177777","0.0-11.0-2.10","yNMX6MVtGs","66105c776fb388e117f927b3","6617fad957f7c6a12ea16e26","6622cde3a1eeca31c61db6fc","mask grid","p","","","","","Ontogenetic_Distractor_Nonthreat_target","onmask","800","p","1","Ontogenetic","true","experimental"
"","null","html-keyboard-response","123","178502","0.0-11.0-0.11","yNMX6MVtGs","66105c776fb388e117f927b3","6617fad957f7c6a12ea16e26","6622cde3a1eeca31c61db6fc","fixation cross","null","","","","","","","","","","","",""
"","null","html-keyboard-response","124","179306","0.0-11.0-1.11","yNMX6MVtGs","66105c776fb388e117f927b3","6617fad957f7c6a12ea16e26","6622cde3a1eeca31c61db6fc","
        <div id=""grid-container"">
        <!-- Grid items will be dynamically added here -->
    </div>    ","null","","","","","","","","","","","",""
"","1997","html-keyboard-response","125","180503","0.0-11.0-2.11","yNMX6MVtGs","66105c776fb388e117f927b3","6617fad957f7c6a12ea16e26","6622cde3a1eeca31c61db6fc","mask grid","p","","","","","Ontogenetic_Distractor_Nonthreat_target","onmask","800","p","1","Ontogenetic","true","experimental"
"","null","html-keyboard-response","126","181229","0.0-11.0-0.12","yNMX6MVtGs","66105c776fb388e117f927b3","6617fad957f7c6a12ea16e26","6622cde3a1eeca31c61db6fc","fixation cross","null","","","","","","","","","","","",""
"","null","html-keyboard-response","127","182044","0.0-11.0-1.12","yNMX6MVtGs","66105c776fb388e117f927b3","6617fad957f7c6a12ea16e26","6622cde3a1eeca31c61db6fc","
        <div id=""grid-container"">
        <!-- Grid items will be dynamically added here -->
    </div>    ","null","","","","","","","","","","","",""
"","1504","html-keyboard-response","128","182749","0.0-11.0-2.12","yNMX6MVtGs","66105c776fb388e117f927b3","6617fad957f7c6a12ea16e26","6622cde3a1eeca31c61db6fc","mask grid","p","","","","","Ontogenetic_Distractor_Nonthreat_target","onmask","800","p","2","Ontogenetic","true","experimental"
"","null","html-keyboard-response","129","183461","0.0-11.0-0.13","yNMX6MVtGs","66105c776fb388e117f927b3","6617fad957f7c6a12ea16e26","6622cde3a1eeca31c61db6fc","fixation cross","null","","","","","","","","","","","",""
"","null","html-keyboard-response","130","184274","0.0-11.0-1.13","yNMX6MVtGs","66105c776fb388e117f927b3","6617fad957f7c6a12ea16e26","6622cde3a1eeca31c61db6fc","
        <div id=""grid-container"">
        <!-- Grid items will be dynamically added here -->
    </div>    ","null","","","","","","","","","","","",""
"","2452","html-keyboard-response","131","185927","0.0-11.0-2.13","yNMX6MVtGs","66105c776fb388e117f927b3","6617fad957f7c6a12ea16e26","6622cde3a1eeca31c61db6fc","mask grid","p","","","","","Ontogenetic_Distractor_Threat_target","onmask","800","q","9","Ontogenetic","false","experimental"
"","null","html-keyboard-response","132","186643","0.0-11.0-0.14","yNMX6MVtGs","66105c776fb388e117f927b3","6617fad957f7c6a12ea16e26","6622cde3a1eeca31c61db6fc","fixation cross","null","","","","","","","","","","","",""
"","null","html-keyboard-response","133","187448","0.0-11.0-1.14","yNMX6MVtGs","66105c776fb388e117f927b3","6617fad957f7c6a12ea16e26","6622cde3a1eeca31c61db6fc","
        <div id=""grid-container"">
        <!-- Grid items will be dynamically added here -->
    </div>    ","null","","","","","","","","","","","",""
"","1522","html-keyboard-response","134","188171","0.0-11.0-2.14","yNMX6MVtGs","66105c776fb388e117f927b3","6617fad957f7c6a12ea16e26","6622cde3a1eeca31c61db6fc","mask grid","q","","","","","Ontogenetic_Distractor_Threat_target","onmask","800","q","9","Ontogenetic","true","experimental"
"","null","html-keyboard-response","135","188883","0.0-11.0-0.15","yNMX6MVtGs","66105c776fb388e117f927b3","6617fad957f7c6a12ea16e26","6622cde3a1eeca31c61db6fc","fixation cross","null","","","","","","","","","","","",""
"","null","html-keyboard-response","136","189699","0.0-11.0-1.15","yNMX6MVtGs","66105c776fb388e117f927b3","6617fad957f7c6a12ea16e26","6622cde3a1eeca31c61db6fc","
        <div id=""grid-container"">
        <!-- Grid items will be dynamically added here -->
    </div>    ","null","","","","","","","","","","","",""
"","1633","html-keyboard-response","137","190533","0.0-11.0-2.15","yNMX6MVtGs","66105c776fb388e117f927b3","6617fad957f7c6a12ea16e26","6622cde3a1eeca31c61db6fc","mask grid","q","","","","","Ontogenetic_Distractor_Threat_target","onmask","800","q","9","Ontogenetic","true","experimental"
"","null","html-keyboard-response","138","191248","0.0-11.0-0.16","yNMX6MVtGs","66105c776fb388e117f927b3","6617fad957f7c6a12ea16e26","6622cde3a1eeca31c61db6fc","fixation cross","null","","","","","","","","","","","",""
"","null","html-keyboard-response","139","192063","0.0-11.0-1.16","yNMX6MVtGs","66105c776fb388e117f927b3","6617fad957f7c6a12ea16e26","6622cde3a1eeca31c61db6fc","
        <div id=""grid-container"">
        <!-- Grid items will be dynamically added here -->
    </div>    ","null","","","","","","","","","","","",""
"","1555","html-keyboard-response","140","192819","0.0-11.0-2.16","yNMX6MVtGs","66105c776fb388e117f927b3","6617fad957f7c6a12ea16e26","6622cde3a1eeca31c61db6fc","mask grid","q","","","","","Ontogenetic_Distractor_Threat_target","onmask","800","q","9","Ontogenetic","true","experimental"
"","null","html-keyboard-response","141","193539","0.0-11.0-0.17","yNMX6MVtGs","66105c776fb388e117f927b3","6617fad957f7c6a12ea16e26","6622cde3a1eeca31c61db6fc","fixation cross","null","","","","","","","","","","","",""
"","null","html-keyboard-response","142","194341","0.0-11.0-1.17","yNMX6MVtGs","66105c776fb388e117f927b3","6617fad957f7c6a12ea16e26","6622cde3a1eeca31c61db6fc","
        <div id=""grid-container"">
        <!-- Grid items will be dynamically added here -->
    </div>    ","null","","","","","","","","","","","",""
"","2705","html-keyboard-response","143","196247","0.0-11.0-2.17","yNMX6MVtGs","66105c776fb388e117f927b3","6617fad957f7c6a12ea16e26","6622cde3a1eeca31c61db6fc","mask grid","q","","","","","Ontogenetic_Distractor_Threat_target","onmask","800","q","1","Ontogenetic","true","experimental"
"","null","html-keyboard-response","144","196957","0.0-11.0-0.18","yNMX6MVtGs","66105c776fb388e117f927b3","6617fad957f7c6a12ea16e26","6622cde3a1eeca31c61db6fc","fixation cross","null","","","","","","","","","","","",""
"","null","html-keyboard-response","145","197772","0.0-11.0-1.18","yNMX6MVtGs","66105c776fb388e117f927b3","6617fad957f7c6a12ea16e26","6622cde3a1eeca31c61db6fc","
        <div id=""grid-container"">
        <!-- Grid items will be dynamically added here -->
    </div>    ","null","","","","","","","","","","","",""
"","1594","html-keyboard-response","146","198567","0.0-11.0-2.18","yNMX6MVtGs","66105c776fb388e117f927b3","6617fad957f7c6a12ea16e26","6622cde3a1eeca31c61db6fc","mask grid","p","","","","","Ontogenetic_Distractor_Nonthreat_target","onmask","800","p","8","Ontogenetic","true","experimental"
"","null","html-keyboard-response","147","199278","0.0-11.0-0.19","yNMX6MVtGs","66105c776fb388e117f927b3","6617fad957f7c6a12ea16e26","6622cde3a1eeca31c61db6fc","fixation cross","null","","","","","","","","","","","",""
"","null","html-keyboard-response","148","200094","0.0-11.0-1.19","yNMX6MVtGs","66105c776fb388e117f927b3","6617fad957f7c6a12ea16e26","6622cde3a1eeca31c61db6fc","
        <div id=""grid-container"">
        <!-- Grid items will be dynamically added here -->
    </div>    ","null","","","","","","","","","","","",""
"","1818","html-keyboard-response","149","201113","0.0-11.0-2.19","yNMX6MVtGs","66105c776fb388e117f927b3","6617fad957f7c6a12ea16e26","6622cde3a1eeca31c61db6fc","mask grid","q","","","","","Ontogenetic_Distractor_Threat_target","onmask","800","q","3","Ontogenetic","true","experimental"
"","null","html-keyboard-response","150","201836","0.0-11.0-0.20","yNMX6MVtGs","66105c776fb388e117f927b3","6617fad957f7c6a12ea16e26","6622cde3a1eeca31c61db6fc","fixation cross","null","","","","","","","","","","","",""
"","null","html-keyboard-response","151","202648","0.0-11.0-1.20","yNMX6MVtGs","66105c776fb388e117f927b3","6617fad957f7c6a12ea16e26","6622cde3a1eeca31c61db6fc","
        <div id=""grid-container"">
        <!-- Grid items will be dynamically added here -->
    </div>    ","null","","","","","","","","","","","",""
"","2186","html-keyboard-response","152","204035","0.0-11.0-2.20","yNMX6MVtGs","66105c776fb388e117f927b3","6617fad957f7c6a12ea16e26","6622cde3a1eeca31c61db6fc","mask grid","q","","","","","Ontogenetic_Distractor_Threat_target","onmask","800","q","1","Ontogenetic","true","experimental"
"","null","html-keyboard-response","153","204754","0.0-11.0-0.21","yNMX6MVtGs","66105c776fb388e117f927b3","6617fad957f7c6a12ea16e26","6622cde3a1eeca31c61db6fc","fixation cross","null","","","","","","","","","","","",""
"","null","html-keyboard-response","154","205570","0.0-11.0-1.21","yNMX6MVtGs","66105c776fb388e117f927b3","6617fad957f7c6a12ea16e26","6622cde3a1eeca31c61db6fc","
        <div id=""grid-container"">
        <!-- Grid items will be dynamically added here -->
    </div>    ","null","","","","","","","","","","","",""
"","1815","html-keyboard-response","155","206586","0.0-11.0-2.21","yNMX6MVtGs","66105c776fb388e117f927b3","6617fad957f7c6a12ea16e26","6622cde3a1eeca31c61db6fc","mask grid","q","","","","","Ontogenetic_Distractor_Threat_target","onmask","800","q","6","Ontogenetic","true","experimental"
"","null","html-keyboard-response","156","207308","0.0-11.0-0.22","yNMX6MVtGs","66105c776fb388e117f927b3","6617fad957f7c6a12ea16e26","6622cde3a1eeca31c61db6fc","fixation cross","null","","","","","","","","","","","",""
"","null","html-keyboard-response","157","208112","0.0-11.0-1.22","yNMX6MVtGs","66105c776fb388e117f927b3","6617fad957f7c6a12ea16e26","6622cde3a1eeca31c61db6fc","
        <div id=""grid-container"">
        <!-- Grid items will be dynamically added here -->
    </div>    ","null","","","","","","","","","","","",""
"","1674","html-keyboard-response","158","208987","0.0-11.0-2.22","yNMX6MVtGs","66105c776fb388e117f927b3","6617fad957f7c6a12ea16e26","6622cde3a1eeca31c61db6fc","mask grid","p","","","","","Ontogenetic_Distractor_Nonthreat_target","onmask","800","p","2","Ontogenetic","true","experimental"
"","null","html-keyboard-response","159","209699","0.0-11.0-0.23","yNMX6MVtGs","66105c776fb388e117f927b3","6617fad957f7c6a12ea16e26","6622cde3a1eeca31c61db6fc","fixation cross","null","","","","","","","","","","","",""
"","null","html-keyboard-response","160","210513","0.0-11.0-1.23","yNMX6MVtGs","66105c776fb388e117f927b3","6617fad957f7c6a12ea16e26","6622cde3a1eeca31c61db6fc","
        <div id=""grid-container"">
        <!-- Grid items will be dynamically added here -->
    </div>    ","null","","","","","","","","","","","",""
"","1503","html-keyboard-response","161","211217","0.0-11.0-2.23","yNMX6MVtGs","66105c776fb388e117f927b3","6617fad957f7c6a12ea16e26","6622cde3a1eeca31c61db6fc","mask grid","p","","","","","Ontogenetic_Distractor_Nonthreat_target","onmask","800","p","2","Ontogenetic","true","experimental"
"","null","html-keyboard-response","162","211929","0.0-11.0-0.24","yNMX6MVtGs","66105c776fb388e117f927b3","6617fad957f7c6a12ea16e26","6622cde3a1eeca31c61db6fc","fixation cross","null","","","","","","","","","","","",""
"","null","html-keyboard-response","163","212743","0.0-11.0-1.24","yNMX6MVtGs","66105c776fb388e117f927b3","6617fad957f7c6a12ea16e26","6622cde3a1eeca31c61db6fc","
        <div id=""grid-container"">
        <!-- Grid items will be dynamically added here -->
    </div>    ","null","","","","","","","","","","","",""
"","1449","html-keyboard-response","164","213393","0.0-11.0-2.24","yNMX6MVtGs","66105c776fb388e117f927b3","6617fad957f7c6a12ea16e26","6622cde3a1eeca31c61db6fc","mask grid","q","","","","","Ontogenetic_Distractor_Threat_target","onmask","800","q","7","Ontogenetic","true","experimental"
"","null","html-keyboard-response","165","214115","0.0-11.0-0.25","yNMX6MVtGs","66105c776fb388e117f927b3","6617fad957f7c6a12ea16e26","6622cde3a1eeca31c61db6fc","fixation cross","null","","","","","","","","","","","",""
"","null","html-keyboard-response","166","214917","0.0-11.0-1.25","yNMX6MVtGs","66105c776fb388e117f927b3","6617fad957f7c6a12ea16e26","6622cde3a1eeca31c61db6fc","
        <div id=""grid-container"">
        <!-- Grid items will be dynamically added here -->
    </div>    ","null","","","","","","","","","","","",""
"","1570","html-keyboard-response","167","215688","0.0-11.0-2.25","yNMX6MVtGs","66105c776fb388e117f927b3","6617fad957f7c6a12ea16e26","6622cde3a1eeca31c61db6fc","mask grid"," ","","","","","Ontogenetic_Distractor_notarget","onmask","800"," ","3","Ontogenetic","true","experimental"
"","null","html-keyboard-response","168","216411","0.0-11.0-0.26","yNMX6MVtGs","66105c776fb388e117f927b3","6617fad957f7c6a12ea16e26","6622cde3a1eeca31c61db6fc","fixation cross","null","","","","","","","","","","","",""
"","null","html-keyboard-response","169","217214","0.0-11.0-1.26","yNMX6MVtGs","66105c776fb388e117f927b3","6617fad957f7c6a12ea16e26","6622cde3a1eeca31c61db6fc","
        <div id=""grid-container"">
        <!-- Grid items will be dynamically added here -->
    </div>    ","null","","","","","","","","","","","",""
"","1535","html-keyboard-response","170","217949","0.0-11.0-2.26","yNMX6MVtGs","66105c776fb388e117f927b3","6617fad957f7c6a12ea16e26","6622cde3a1eeca31c61db6fc","mask grid","q","","","","","Ontogenetic_Distractor_Threat_target","onmask","800","q","1","Ontogenetic","true","experimental"
"","null","html-keyboard-response","171","218662","0.0-11.0-0.27","yNMX6MVtGs","66105c776fb388e117f927b3","6617fad957f7c6a12ea16e26","6622cde3a1eeca31c61db6fc","fixation cross","null","","","","","","","","","","","",""
"","null","html-keyboard-response","172","219464","0.0-11.0-1.27","yNMX6MVtGs","66105c776fb388e117f927b3","6617fad957f7c6a12ea16e26","6622cde3a1eeca31c61db6fc","
        <div id=""grid-container"">
        <!-- Grid items will be dynamically added here -->
    </div>    ","null","","","","","","","","","","","",""
"","2962","html-keyboard-response","173","221627","0.0-11.0-2.27","yNMX6MVtGs","66105c776fb388e117f927b3","6617fad957f7c6a12ea16e26","6622cde3a1eeca31c61db6fc","mask grid"," ","","","","","Ontogenetic_Distractor_notarget","onmask","800"," ","1","Ontogenetic","true","experimental"
"","null","html-keyboard-response","174","222349","0.0-11.0-0.28","yNMX6MVtGs","66105c776fb388e117f927b3","6617fad957f7c6a12ea16e26","6622cde3a1eeca31c61db6fc","fixation cross","null","","","","","","","","","","","",""
"","null","html-keyboard-response","175","223166","0.0-11.0-1.28","yNMX6MVtGs","66105c776fb388e117f927b3","6617fad957f7c6a12ea16e26","6622cde3a1eeca31c61db6fc","
        <div id=""grid-container"">
        <!-- Grid items will be dynamically added here -->
    </div>    ","null","","","","","","","","","","","",""
"","1320","html-keyboard-response","176","223687","0.0-11.0-2.28","yNMX6MVtGs","66105c776fb388e117f927b3","6617fad957f7c6a12ea16e26","6622cde3a1eeca31c61db6fc","mask grid","q","","","","","Ontogenetic_Distractor_Threat_target","onmask","800","q","8","Ontogenetic","true","experimental"
"","null","html-keyboard-response","177","224400","0.0-11.0-0.29","yNMX6MVtGs","66105c776fb388e117f927b3","6617fad957f7c6a12ea16e26","6622cde3a1eeca31c61db6fc","fixation cross","null","","","","","","","","","","","",""
"","null","html-keyboard-response","178","225201","0.0-11.0-1.29","yNMX6MVtGs","66105c776fb388e117f927b3","6617fad957f7c6a12ea16e26","6622cde3a1eeca31c61db6fc","
        <div id=""grid-container"">
        <!-- Grid items will be dynamically added here -->
    </div>    ","null","","","","","","","","","","","",""
"","2291","html-keyboard-response","179","226692","0.0-11.0-2.29","yNMX6MVtGs","66105c776fb388e117f927b3","6617fad957f7c6a12ea16e26","6622cde3a1eeca31c61db6fc","mask grid","p","","","","","Ontogenetic_Distractor_Nonthreat_target","onmask","800","p","1","Ontogenetic","true","experimental"
"","null","html-keyboard-response","180","227412","0.0-11.0-0.30","yNMX6MVtGs","66105c776fb388e117f927b3","6617fad957f7c6a12ea16e26","6622cde3a1eeca31c61db6fc","fixation cross","null","","","","","","","","","","","",""
"","null","html-keyboard-response","181","228218","0.0-11.0-1.30","yNMX6MVtGs","66105c776fb388e117f927b3","6617fad957f7c6a12ea16e26","6622cde3a1eeca31c61db6fc","
        <div id=""grid-container"">
        <!-- Grid items will be dynamically added here -->
    </div>    ","null","","","","","","","","","","","",""
"","1726","html-keyboard-response","182","229145","0.0-11.0-2.30","yNMX6MVtGs","66105c776fb388e117f927b3","6617fad957f7c6a12ea16e26","6622cde3a1eeca31c61db6fc","mask grid","q","","","","","Ontogenetic_Distractor_Threat_target","onmask","800","q","7","Ontogenetic","true","experimental"
"","null","html-keyboard-response","183","229865","0.0-11.0-0.31","yNMX6MVtGs","66105c776fb388e117f927b3","6617fad957f7c6a12ea16e26","6622cde3a1eeca31c61db6fc","fixation cross","null","","","","","","","","","","","",""
"","null","html-keyboard-response","184","230672","0.0-11.0-1.31","yNMX6MVtGs","66105c776fb388e117f927b3","6617fad957f7c6a12ea16e26","6622cde3a1eeca31c61db6fc","
        <div id=""grid-container"">
        <!-- Grid items will be dynamically added here -->
    </div>    ","null","","","","","","","","","","","",""
"","1707","html-keyboard-response","185","231579","0.0-11.0-2.31","yNMX6MVtGs","66105c776fb388e117f927b3","6617fad957f7c6a12ea16e26","6622cde3a1eeca31c61db6fc","mask grid"," ","","","","","Ontogenetic_Distractor_Threat_target","onmask","800","q","3","Ontogenetic","false","experimental"
"","null","html-keyboard-response","186","232293","0.0-11.0-0.32","yNMX6MVtGs","66105c776fb388e117f927b3","6617fad957f7c6a12ea16e26","6622cde3a1eeca31c61db6fc","fixation cross","null","","","","","","","","","","","",""
"","null","html-keyboard-response","187","233109","0.0-11.0-1.32","yNMX6MVtGs","66105c776fb388e117f927b3","6617fad957f7c6a12ea16e26","6622cde3a1eeca31c61db6fc","
        <div id=""grid-container"">
        <!-- Grid items will be dynamically added here -->
    </div>    ","null","","","","","","","","","","","",""
"","1451","html-keyboard-response","188","233761","0.0-11.0-2.32","yNMX6MVtGs","66105c776fb388e117f927b3","6617fad957f7c6a12ea16e26","6622cde3a1eeca31c61db6fc","mask grid","p","","","","","Ontogenetic_Distractor_Nonthreat_target","onmask","800","p","7","Ontogenetic","true","experimental"
"","null","html-keyboard-response","189","234482","0.0-11.0-0.33","yNMX6MVtGs","66105c776fb388e117f927b3","6617fad957f7c6a12ea16e26","6622cde3a1eeca31c61db6fc","fixation cross","null","","","","","","","","","","","",""
"","null","html-keyboard-response","190","235298","0.0-11.0-1.33","yNMX6MVtGs","66105c776fb388e117f927b3","6617fad957f7c6a12ea16e26","6622cde3a1eeca31c61db6fc","
        <div id=""grid-container"">
        <!-- Grid items will be dynamically added here -->
    </div>    ","null","","","","","","","","","","","",""
"","1522","html-keyboard-response","191","236020","0.0-11.0-2.33","yNMX6MVtGs","66105c776fb388e117f927b3","6617fad957f7c6a12ea16e26","6622cde3a1eeca31c61db6fc","mask grid","q","","","","","Ontogenetic_Distractor_Threat_target","onmask","800","q","3","Ontogenetic","true","experimental"
"","null","html-keyboard-response","192","236731","0.0-11.0-0.34","yNMX6MVtGs","66105c776fb388e117f927b3","6617fad957f7c6a12ea16e26","6622cde3a1eeca31c61db6fc","fixation cross","null","","","","","","","","","","","",""
"","null","html-keyboard-response","193","237534","0.0-11.0-1.34","yNMX6MVtGs","66105c776fb388e117f927b3","6617fad957f7c6a12ea16e26","6622cde3a1eeca31c61db6fc","
        <div id=""grid-container"">
        <!-- Grid items will be dynamically added here -->
    </div>    ","null","","","","","","","","","","","",""
"","1426","html-keyboard-response","194","238161","0.0-11.0-2.34","yNMX6MVtGs","66105c776fb388e117f927b3","6617fad957f7c6a12ea16e26","6622cde3a1eeca31c61db6fc","mask grid","p","","","","","Ontogenetic_Distractor_Nonthreat_target","onmask","800","p","9","Ontogenetic","true","experimental"
"","null","html-keyboard-response","195","238877","0.0-11.0-0.35","yNMX6MVtGs","66105c776fb388e117f927b3","6617fad957f7c6a12ea16e26","6622cde3a1eeca31c61db6fc","fixation cross","null","","","","","","","","","","","",""
"","null","html-keyboard-response","196","239693","0.0-11.0-1.35","yNMX6MVtGs","66105c776fb388e117f927b3","6617fad957f7c6a12ea16e26","6622cde3a1eeca31c61db6fc","
        <div id=""grid-container"">
        <!-- Grid items will be dynamically added here -->
    </div>    ","null","","","","","","","","","","","",""
"","3012","html-keyboard-response","197","241906","0.0-11.0-2.35","yNMX6MVtGs","66105c776fb388e117f927b3","6617fad957f7c6a12ea16e26","6622cde3a1eeca31c61db6fc","mask grid"," ","","","","","Ontogenetic_Distractor_Nonthreat_target","onmask","800","p","8","Ontogenetic","false","experimental"
"","null","html-keyboard-response","198","242616","0.0-11.0-0.36","yNMX6MVtGs","66105c776fb388e117f927b3","6617fad957f7c6a12ea16e26","6622cde3a1eeca31c61db6fc","fixation cross","null","","","","","","","","","","","",""
"","null","html-keyboard-response","199","243432","0.0-11.0-1.36","yNMX6MVtGs","66105c776fb388e117f927b3","6617fad957f7c6a12ea16e26","6622cde3a1eeca31c61db6fc","
        <div id=""grid-container"">
        <!-- Grid items will be dynamically added here -->
    </div>    ","null","","","","","","","","","","","",""
"","1238","html-keyboard-response","200","243871","0.0-11.0-2.36","yNMX6MVtGs","66105c776fb388e117f927b3","6617fad957f7c6a12ea16e26","6622cde3a1eeca31c61db6fc","mask grid","q","","","","","Ontogenetic_Distractor_Threat_target","onmask","800","q","3","Ontogenetic","true","experimental"
"","null","html-keyboard-response","201","244587","0.0-11.0-0.37","yNMX6MVtGs","66105c776fb388e117f927b3","6617fad957f7c6a12ea16e26","6622cde3a1eeca31c61db6fc","fixation cross","null","","","","","","","","","","","",""
"","null","html-keyboard-response","202","245402","0.0-11.0-1.37","yNMX6MVtGs","66105c776fb388e117f927b3","6617fad957f7c6a12ea16e26","6622cde3a1eeca31c61db6fc","
        <div id=""grid-container"">
        <!-- Grid items will be dynamically added here -->
    </div>    ","null","","","","","","","","","","","",""
"","1307","html-keyboard-response","203","245910","0.0-11.0-2.37","yNMX6MVtGs","66105c776fb388e117f927b3","6617fad957f7c6a12ea16e26","6622cde3a1eeca31c61db6fc","mask grid","q","","","","","Ontogenetic_Distractor_Threat_target","onmask","800","q","7","Ontogenetic","true","experimental"
"","null","html-keyboard-response","204","246624","0.0-11.0-0.38","yNMX6MVtGs","66105c776fb388e117f927b3","6617fad957f7c6a12ea16e26","6622cde3a1eeca31c61db6fc","fixation cross","null","","","","","","","","","","","",""
"","null","html-keyboard-response","205","247440","0.0-11.0-1.38","yNMX6MVtGs","66105c776fb388e117f927b3","6617fad957f7c6a12ea16e26","6622cde3a1eeca31c61db6fc","
        <div id=""grid-container"">
        <!-- Grid items will be dynamically added here -->
    </div>    ","null","","","","","","","","","","","",""
"","1214","html-keyboard-response","206","247855","0.0-11.0-2.38","yNMX6MVtGs","66105c776fb388e117f927b3","6617fad957f7c6a12ea16e26","6622cde3a1eeca31c61db6fc","mask grid","p","","","","","Ontogenetic_Distractor_Nonthreat_target","onmask","800","p","1","Ontogenetic","true","experimental"
"","null","html-keyboard-response","207","248563","0.0-11.0-0.39","yNMX6MVtGs","66105c776fb388e117f927b3","6617fad957f7c6a12ea16e26","6622cde3a1eeca31c61db6fc","fixation cross","null","","","","","","","","","","","",""
"","null","html-keyboard-response","208","249368","0.0-11.0-1.39","yNMX6MVtGs","66105c776fb388e117f927b3","6617fad957f7c6a12ea16e26","6622cde3a1eeca31c61db6fc","
        <div id=""grid-container"">
        <!-- Grid items will be dynamically added here -->
    </div>    ","null","","","","","","","","","","","",""
"","2514","html-keyboard-response","209","251083","0.0-11.0-2.39","yNMX6MVtGs","66105c776fb388e117f927b3","6617fad957f7c6a12ea16e26","6622cde3a1eeca31c61db6fc","mask grid","p","","","","","Ontogenetic_Distractor_notarget","onmask","800"," ","2","Ontogenetic","false","experimental"
"","11254","html-keyboard-response","210","262570","0.0-12.0","yNMX6MVtGs","66105c776fb388e117f927b3","6617fad957f7c6a12ea16e26","6622cde3a1eeca31c61db6fc","break screen"," ","","","","","","","","","","","",""
"","null","html-keyboard-response","211","265115","0.0-13.0-0.0","yNMX6MVtGs","66105c776fb388e117f927b3","6617fad957f7c6a12ea16e26","6622cde3a1eeca31c61db6fc","fixation cross","null","","","","","","","","","","","",""
"","null","html-keyboard-response","212","267626","0.0-13.0-1.0","yNMX6MVtGs","66105c776fb388e117f927b3","6617fad957f7c6a12ea16e26","6622cde3a1eeca31c61db6fc","
        <div id=""grid-container"">
        <!-- Grid items will be dynamically added here -->
    </div>    ","null","","","","","","","","","","","",""
"","3342","html-keyboard-response","213","268469","0.0-13.0-2.0","yNMX6MVtGs","66105c776fb388e117f927b3","6617fad957f7c6a12ea16e26","6622cde3a1eeca31c61db6fc","mask grid","p","","","","","Phylogenetic_Distractor_Nonthreat_target","onmask","2500","p","2","Phylogenetic","true","experimental"
"","null","html-keyboard-response","214","269181","0.0-13.0-0.1","yNMX6MVtGs","66105c776fb388e117f927b3","6617fad957f7c6a12ea16e26","6622cde3a1eeca31c61db6fc","fixation cross","null","","","","","","","","","","","",""
"","null","html-keyboard-response","215","271690","0.0-13.0-1.1","yNMX6MVtGs","66105c776fb388e117f927b3","6617fad957f7c6a12ea16e26","6622cde3a1eeca31c61db6fc","
        <div id=""grid-container"">
        <!-- Grid items will be dynamically added here -->
    </div>    ","null","","","","","","","","","","","",""
"","2867","html-keyboard-response","216","272058","0.0-13.0-2.1","yNMX6MVtGs","66105c776fb388e117f927b3","6617fad957f7c6a12ea16e26","6622cde3a1eeca31c61db6fc","mask grid","q","","","","","Phylogenetic_Distractor_Threat_target","onmask","2500","q","6","Phylogenetic","true","experimental"
"","null","html-keyboard-response","217","272782","0.0-13.0-0.2","yNMX6MVtGs","66105c776fb388e117f927b3","6617fad957f7c6a12ea16e26","6622cde3a1eeca31c61db6fc","fixation cross","null","","","","","","","","","","","",""
"","null","html-keyboard-response","218","275289","0.0-13.0-1.2","yNMX6MVtGs","66105c776fb388e117f927b3","6617fad957f7c6a12ea16e26","6622cde3a1eeca31c61db6fc","
        <div id=""grid-container"">
        <!-- Grid items will be dynamically added here -->
    </div>    ","null","","","","","","","","","","","",""
"","3323","html-keyboard-response","219","276113","0.0-13.0-2.2","yNMX6MVtGs","66105c776fb388e117f927b3","6617fad957f7c6a12ea16e26","6622cde3a1eeca31c61db6fc","mask grid","q","","","","","Phylogenetic_Distractor_Threat_target","onmask","2500","q","3","Phylogenetic","true","experimental"
"","null","html-keyboard-response","220","276828","0.0-13.0-0.3","yNMX6MVtGs","66105c776fb388e117f927b3","6617fad957f7c6a12ea16e26","6622cde3a1eeca31c61db6fc","fixation cross","null","","","","","","","","","","","",""
"","null","html-keyboard-response","221","279335","0.0-13.0-1.3","yNMX6MVtGs","66105c776fb388e117f927b3","6617fad957f7c6a12ea16e26","6622cde3a1eeca31c61db6fc","
        <div id=""grid-container"">
        <!-- Grid items will be dynamically added here -->
    </div>    ","null","","","","","","","","","","","",""
"","3281","html-keyboard-response","222","280117","0.0-13.0-2.3","yNMX6MVtGs","66105c776fb388e117f927b3","6617fad957f7c6a12ea16e26","6622cde3a1eeca31c61db6fc","mask grid","p","","","","","Phylogenetic_Distractor_Nonthreat_target","onmask","2500","p","5","Phylogenetic","true","experimental"
"","null","html-keyboard-response","223","280831","0.0-13.0-0.4","yNMX6MVtGs","66105c776fb388e117f927b3","6617fad957f7c6a12ea16e26","6622cde3a1eeca31c61db6fc","fixation cross","null","","","","","","","","","","","",""
"","null","html-keyboard-response","224","283339","0.0-13.0-1.4","yNMX6MVtGs","66105c776fb388e117f927b3","6617fad957f7c6a12ea16e26","6622cde3a1eeca31c61db6fc","
        <div id=""grid-container"">
        <!-- Grid items will be dynamically added here -->
    </div>    ","null","","","","","","","","","","","",""
"","3257","html-keyboard-response","225","284097","0.0-13.0-2.4","yNMX6MVtGs","66105c776fb388e117f927b3","6617fad957f7c6a12ea16e26","6622cde3a1eeca31c61db6fc","mask grid","p","","","","","Phylogenetic_Distractor_Nonthreat_target","onmask","2500","p","3","Phylogenetic","true","experimental"
"","null","html-keyboard-response","226","284819","0.0-13.0-0.5","yNMX6MVtGs","66105c776fb388e117f927b3","6617fad957f7c6a12ea16e26","6622cde3a1eeca31c61db6fc","fixation cross","null","","","","","","","","","","","",""
"","null","html-keyboard-response","227","287324","0.0-13.0-1.5","yNMX6MVtGs","66105c776fb388e117f927b3","6617fad957f7c6a12ea16e26","6622cde3a1eeca31c61db6fc","
        <div id=""grid-container"">
        <!-- Grid items will be dynamically added here -->
    </div>    ","null","","","","","","","","","","","",""
"","3167","html-keyboard-response","228","287991","0.0-13.0-2.5","yNMX6MVtGs","66105c776fb388e117f927b3","6617fad957f7c6a12ea16e26","6622cde3a1eeca31c61db6fc","mask grid","q","","","","","Phylogenetic_Distractor_Threat_target","onmask","2500","q","9","Phylogenetic","true","experimental"
"","null","html-keyboard-response","229","288713","0.0-13.0-0.6","yNMX6MVtGs","66105c776fb388e117f927b3","6617fad957f7c6a12ea16e26","6622cde3a1eeca31c61db6fc","fixation cross","null","","","","","","","","","","","",""
"","null","html-keyboard-response","230","291221","0.0-13.0-1.6","yNMX6MVtGs","66105c776fb388e117f927b3","6617fad957f7c6a12ea16e26","6622cde3a1eeca31c61db6fc","
        <div id=""grid-container"">
        <!-- Grid items will be dynamically added here -->
    </div>    ","null","","","","","","","","","","","",""
"","2832","html-keyboard-response","231","291555","0.0-13.0-2.6","yNMX6MVtGs","66105c776fb388e117f927b3","6617fad957f7c6a12ea16e26","6622cde3a1eeca31c61db6fc","mask grid","p","","","","","Phylogenetic_Distractor_Nonthreat_target","onmask","2500","p","4","Phylogenetic","true","experimental"
"","null","html-keyboard-response","232","292267","0.0-13.0-0.7","yNMX6MVtGs","66105c776fb388e117f927b3","6617fad957f7c6a12ea16e26","6622cde3a1eeca31c61db6fc","fixation cross","null","","","","","","","","","","","",""
"","null","html-keyboard-response","233","294774","0.0-13.0-1.7","yNMX6MVtGs","66105c776fb388e117f927b3","6617fad957f7c6a12ea16e26","6622cde3a1eeca31c61db6fc","
        <div id=""grid-container"">
        <!-- Grid items will be dynamically added here -->
    </div>    ","null","","","","","","","","","","","",""
"","3294","html-keyboard-response","234","295569","0.0-13.0-2.7","yNMX6MVtGs","66105c776fb388e117f927b3","6617fad957f7c6a12ea16e26","6622cde3a1eeca31c61db6fc","mask grid","q","","","","","Phylogenetic_Distractor_Threat_target","onmask","2500","q","7","Phylogenetic","true","experimental"
"","null","html-keyboard-response","235","296283","0.0-13.0-0.8","yNMX6MVtGs","66105c776fb388e117f927b3","6617fad957f7c6a12ea16e26","6622cde3a1eeca31c61db6fc","fixation cross","null","","","","","","","","","","","",""
"","null","html-keyboard-response","236","298793","0.0-13.0-1.8","yNMX6MVtGs","66105c776fb388e117f927b3","6617fad957f7c6a12ea16e26","6622cde3a1eeca31c61db6fc","
        <div id=""grid-container"">
        <!-- Grid items will be dynamically added here -->
    </div>    ","null","","","","","","","","","","","",""
"","2810","html-keyboard-response","237","299103","0.0-13.0-2.8","yNMX6MVtGs","66105c776fb388e117f927b3","6617fad957f7c6a12ea16e26","6622cde3a1eeca31c61db6fc","mask grid","q","","","","","Phylogenetic_Distractor_Threat_target","onmask","2500","q","1","Phylogenetic","true","experimental"
"","null","html-keyboard-response","238","299824","0.0-13.0-0.9","yNMX6MVtGs","66105c776fb388e117f927b3","6617fad957f7c6a12ea16e26","6622cde3a1eeca31c61db6fc","fixation cross","null","","","","","","","","","","","",""
"","null","html-keyboard-response","239","302335","0.0-13.0-1.9","yNMX6MVtGs","66105c776fb388e117f927b3","6617fad957f7c6a12ea16e26","6622cde3a1eeca31c61db6fc","
        <div id=""grid-container"">
        <!-- Grid items will be dynamically added here -->
    </div>    ","null","","","","","","","","","","","",""
"","3160","html-keyboard-response","240","302995","0.0-13.0-2.9","yNMX6MVtGs","66105c776fb388e117f927b3","6617fad957f7c6a12ea16e26","6622cde3a1eeca31c61db6fc","mask grid","q","","","","","Phylogenetic_Distractor_Threat_target","onmask","2500","q","7","Phylogenetic","true","experimental"
"","null","html-keyboard-response","241","303709","0.0-13.0-0.10","yNMX6MVtGs","66105c776fb388e117f927b3","6617fad957f7c6a12ea16e26","6622cde3a1eeca31c61db6fc","fixation cross","null","","","","","","","","","","","",""
"","null","html-keyboard-response","242","306216","0.0-13.0-1.10","yNMX6MVtGs","66105c776fb388e117f927b3","6617fad957f7c6a12ea16e26","6622cde3a1eeca31c61db6fc","
        <div id=""grid-container"">
        <!-- Grid items will be dynamically added here -->
    </div>    ","null","","","","","","","","","","","",""
"","3234","html-keyboard-response","243","306951","0.0-13.0-2.10","yNMX6MVtGs","66105c776fb388e117f927b3","6617fad957f7c6a12ea16e26","6622cde3a1eeca31c61db6fc","mask grid","q","","","","","Phylogenetic_Distractor_Threat_target","onmask","2500","q","9","Phylogenetic","true","experimental"
"","null","html-keyboard-response","244","307665","0.0-13.0-0.11","yNMX6MVtGs","66105c776fb388e117f927b3","6617fad957f7c6a12ea16e26","6622cde3a1eeca31c61db6fc","fixation cross","null","","","","","","","","","","","",""
"","null","html-keyboard-response","245","310170","0.0-13.0-1.11","yNMX6MVtGs","66105c776fb388e117f927b3","6617fad957f7c6a12ea16e26","6622cde3a1eeca31c61db6fc","
        <div id=""grid-container"">
        <!-- Grid items will be dynamically added here -->
    </div>    ","null","","","","","","","","","","","",""
"","3230","html-keyboard-response","246","310901","0.0-13.0-2.11","yNMX6MVtGs","66105c776fb388e117f927b3","6617fad957f7c6a12ea16e26","6622cde3a1eeca31c61db6fc","mask grid"," ","","","","","Phylogenetic_Distractor_notarget","onmask","2500"," ","4","Phylogenetic","true","experimental"
"","null","html-keyboard-response","247","311620","0.0-13.0-0.12","yNMX6MVtGs","66105c776fb388e117f927b3","6617fad957f7c6a12ea16e26","6622cde3a1eeca31c61db6fc","fixation cross","null","","","","","","","","","","","",""
"","null","html-keyboard-response","248","314130","0.0-13.0-1.12","yNMX6MVtGs","66105c776fb388e117f927b3","6617fad957f7c6a12ea16e26","6622cde3a1eeca31c61db6fc","
        <div id=""grid-container"">
        <!-- Grid items will be dynamically added here -->
    </div>    ","null","","","","","","","","","","","",""
"","3129","html-keyboard-response","249","314760","0.0-13.0-2.12","yNMX6MVtGs","66105c776fb388e117f927b3","6617fad957f7c6a12ea16e26","6622cde3a1eeca31c61db6fc","mask grid","q","","","","","Phylogenetic_Distractor_Threat_target","onmask","2500","q","5","Phylogenetic","true","experimental"
"","null","html-keyboard-response","250","315471","0.0-13.0-0.13","yNMX6MVtGs","66105c776fb388e117f927b3","6617fad957f7c6a12ea16e26","6622cde3a1eeca31c61db6fc","fixation cross","null","","","","","","","","","","","",""
"","null","html-keyboard-response","251","317985","0.0-13.0-1.13","yNMX6MVtGs","66105c776fb388e117f927b3","6617fad957f7c6a12ea16e26","6622cde3a1eeca31c61db6fc","
        <div id=""grid-container"">
        <!-- Grid items will be dynamically added here -->
    </div>    ","null","","","","","","","","","","","",""
"","3152","html-keyboard-response","252","318638","0.0-13.0-2.13","yNMX6MVtGs","66105c776fb388e117f927b3","6617fad957f7c6a12ea16e26","6622cde3a1eeca31c61db6fc","mask grid"," ","","","","","Phylogenetic_Distractor_notarget","onmask","2500"," ","1","Phylogenetic","true","experimental"
"","null","html-keyboard-response","253","319353","0.0-13.0-0.14","yNMX6MVtGs","66105c776fb388e117f927b3","6617fad957f7c6a12ea16e26","6622cde3a1eeca31c61db6fc","fixation cross","null","","","","","","","","","","","",""
"","null","html-keyboard-response","254","321866","0.0-13.0-1.14","yNMX6MVtGs","66105c776fb388e117f927b3","6617fad957f7c6a12ea16e26","6622cde3a1eeca31c61db6fc","
        <div id=""grid-container"">
        <!-- Grid items will be dynamically added here -->
    </div>    ","null","","","","","","","","","","","",""
"","3066","html-keyboard-response","255","322433","0.0-13.0-2.14","yNMX6MVtGs","66105c776fb388e117f927b3","6617fad957f7c6a12ea16e26","6622cde3a1eeca31c61db6fc","mask grid","q","","","","","Phylogenetic_Distractor_Threat_target","onmask","2500","q","6","Phylogenetic","true","experimental"
"","null","html-keyboard-response","256","323147","0.0-13.0-0.15","yNMX6MVtGs","66105c776fb388e117f927b3","6617fad957f7c6a12ea16e26","6622cde3a1eeca31c61db6fc","fixation cross","null","","","","","","","","","","","",""
"","null","html-keyboard-response","257","325658","0.0-13.0-1.15","yNMX6MVtGs","66105c776fb388e117f927b3","6617fad957f7c6a12ea16e26","6622cde3a1eeca31c61db6fc","
        <div id=""grid-container"">
        <!-- Grid items will be dynamically added here -->
    </div>    ","null","","","","","","","","","","","",""
"","3189","html-keyboard-response","258","326348","0.0-13.0-2.15","yNMX6MVtGs","66105c776fb388e117f927b3","6617fad957f7c6a12ea16e26","6622cde3a1eeca31c61db6fc","mask grid","p","","","","","Phylogenetic_Distractor_Nonthreat_target","onmask","2500","p","7","Phylogenetic","true","experimental"
"","null","html-keyboard-response","259","327071","0.0-13.0-0.16","yNMX6MVtGs","66105c776fb388e117f927b3","6617fad957f7c6a12ea16e26","6622cde3a1eeca31c61db6fc","fixation cross","null","","","","","","","","","","","",""
"","null","html-keyboard-response","260","329582","0.0-13.0-1.16","yNMX6MVtGs","66105c776fb388e117f927b3","6617fad957f7c6a12ea16e26","6622cde3a1eeca31c61db6fc","
        <div id=""grid-container"">
        <!-- Grid items will be dynamically added here -->
    </div>    ","null","","","","","","","","","","","",""
"","2908","html-keyboard-response","261","329990","0.0-13.0-2.16","yNMX6MVtGs","66105c776fb388e117f927b3","6617fad957f7c6a12ea16e26","6622cde3a1eeca31c61db6fc","mask grid","p","","","","","Phylogenetic_Distractor_Nonthreat_target","onmask","2500","p","6","Phylogenetic","true","experimental"
"","null","html-keyboard-response","262","330710","0.0-13.0-0.17","yNMX6MVtGs","66105c776fb388e117f927b3","6617fad957f7c6a12ea16e26","6622cde3a1eeca31c61db6fc","fixation cross","null","","","","","","","","","","","",""
"","null","html-keyboard-response","263","333218","0.0-13.0-1.17","yNMX6MVtGs","66105c776fb388e117f927b3","6617fad957f7c6a12ea16e26","6622cde3a1eeca31c61db6fc","
        <div id=""grid-container"">
        <!-- Grid items will be dynamically added here -->
    </div>    ","null","","","","","","","","","","","",""
"","3113","html-keyboard-response","264","333831","0.0-13.0-2.17","yNMX6MVtGs","66105c776fb388e117f927b3","6617fad957f7c6a12ea16e26","6622cde3a1eeca31c61db6fc","mask grid","p","","","","","Phylogenetic_Distractor_Nonthreat_target","onmask","2500","p","4","Phylogenetic","true","experimental"
"","null","html-keyboard-response","265","334542","0.0-13.0-0.18","yNMX6MVtGs","66105c776fb388e117f927b3","6617fad957f7c6a12ea16e26","6622cde3a1eeca31c61db6fc","fixation cross","null","","","","","","","","","","","",""
"","null","html-keyboard-response","266","337053","0.0-13.0-1.18","yNMX6MVtGs","66105c776fb388e117f927b3","6617fad957f7c6a12ea16e26","6622cde3a1eeca31c61db6fc","
        <div id=""grid-container"">
        <!-- Grid items will be dynamically added here -->
    </div>    ","null","","","","","","","","","","","",""
"","2875","html-keyboard-response","267","337428","0.0-13.0-2.18","yNMX6MVtGs","66105c776fb388e117f927b3","6617fad957f7c6a12ea16e26","6622cde3a1eeca31c61db6fc","mask grid","q","","","","","Phylogenetic_Distractor_Threat_target","onmask","2500","q","3","Phylogenetic","true","experimental"
"","null","html-keyboard-response","268","338145","0.0-13.0-0.19","yNMX6MVtGs","66105c776fb388e117f927b3","6617fad957f7c6a12ea16e26","6622cde3a1eeca31c61db6fc","fixation cross","null","","","","","","","","","","","",""
"","null","html-keyboard-response","269","340653","0.0-13.0-1.19","yNMX6MVtGs","66105c776fb388e117f927b3","6617fad957f7c6a12ea16e26","6622cde3a1eeca31c61db6fc","
        <div id=""grid-container"">
        <!-- Grid items will be dynamically added here -->
    </div>    ","null","","","","","","","","","","","",""
"","3059","html-keyboard-response","270","341213","0.0-13.0-2.19","yNMX6MVtGs","66105c776fb388e117f927b3","6617fad957f7c6a12ea16e26","6622cde3a1eeca31c61db6fc","mask grid"," ","","","","","Phylogenetic_Distractor_notarget","onmask","2500"," ","6","Phylogenetic","true","experimental"
"","null","html-keyboard-response","271","341931","0.0-13.0-0.20","yNMX6MVtGs","66105c776fb388e117f927b3","6617fad957f7c6a12ea16e26","6622cde3a1eeca31c61db6fc","fixation cross","null","","","","","","","","","","","",""
"","null","html-keyboard-response","272","344437","0.0-13.0-1.20","yNMX6MVtGs","66105c776fb388e117f927b3","6617fad957f7c6a12ea16e26","6622cde3a1eeca31c61db6fc","
        <div id=""grid-container"">
        <!-- Grid items will be dynamically added here -->
    </div>    ","null","","","","","","","","","","","",""
"","3151","html-keyboard-response","273","345088","0.0-13.0-2.20","yNMX6MVtGs","66105c776fb388e117f927b3","6617fad957f7c6a12ea16e26","6622cde3a1eeca31c61db6fc","mask grid","p","","","","","Phylogenetic_Distractor_Nonthreat_target","onmask","2500","p","4","Phylogenetic","true","experimental"
"","null","html-keyboard-response","274","345810","0.0-13.0-0.21","yNMX6MVtGs","66105c776fb388e117f927b3","6617fad957f7c6a12ea16e26","6622cde3a1eeca31c61db6fc","fixation cross","null","","","","","","","","","","","",""
"","null","html-keyboard-response","275","348320","0.0-13.0-1.21","yNMX6MVtGs","66105c776fb388e117f927b3","6617fad957f7c6a12ea16e26","6622cde3a1eeca31c61db6fc","
        <div id=""grid-container"">
        <!-- Grid items will be dynamically added here -->
    </div>    ","null","","","","","","","","","","","",""
"","3186","html-keyboard-response","276","349006","0.0-13.0-2.21","yNMX6MVtGs","66105c776fb388e117f927b3","6617fad957f7c6a12ea16e26","6622cde3a1eeca31c61db6fc","mask grid","p","","","","","Phylogenetic_Distractor_Nonthreat_target","onmask","2500","p","6","Phylogenetic","true","experimental"
"","null","html-keyboard-response","277","349724","0.0-13.0-0.22","yNMX6MVtGs","66105c776fb388e117f927b3","6617fad957f7c6a12ea16e26","6622cde3a1eeca31c61db6fc","fixation cross","null","","","","","","","","","","","",""
"","null","html-keyboard-response","278","352234","0.0-13.0-1.22","yNMX6MVtGs","66105c776fb388e117f927b3","6617fad957f7c6a12ea16e26","6622cde3a1eeca31c61db6fc","
        <div id=""grid-container"">
        <!-- Grid items will be dynamically added here -->
    </div>    ","null","","","","","","","","","","","",""
"","3221","html-keyboard-response","279","352955","0.0-13.0-2.22","yNMX6MVtGs","66105c776fb388e117f927b3","6617fad957f7c6a12ea16e26","6622cde3a1eeca31c61db6fc","mask grid","p","","","","","Phylogenetic_Distractor_Nonthreat_target","onmask","2500","p","4","Phylogenetic","true","experimental"
"","null","html-keyboard-response","280","353665","0.0-13.0-0.23","yNMX6MVtGs","66105c776fb388e117f927b3","6617fad957f7c6a12ea16e26","6622cde3a1eeca31c61db6fc","fixation cross","null","","","","","","","","","","","",""
"","null","html-keyboard-response","281","356179","0.0-13.0-1.23","yNMX6MVtGs","66105c776fb388e117f927b3","6617fad957f7c6a12ea16e26","6622cde3a1eeca31c61db6fc","
        <div id=""grid-container"">
        <!-- Grid items will be dynamically added here -->
    </div>    ","null","","","","","","","","","","","",""
"","3060","html-keyboard-response","282","356740","0.0-13.0-2.23","yNMX6MVtGs","66105c776fb388e117f927b3","6617fad957f7c6a12ea16e26","6622cde3a1eeca31c61db6fc","mask grid","q","","","","","Phylogenetic_Distractor_Threat_target","onmask","2500","q","4","Phylogenetic","true","experimental"
"","null","html-keyboard-response","283","357461","0.0-13.0-0.24","yNMX6MVtGs","66105c776fb388e117f927b3","6617fad957f7c6a12ea16e26","6622cde3a1eeca31c61db6fc","fixation cross","null","","","","","","","","","","","",""
"","null","html-keyboard-response","284","359971","0.0-13.0-1.24","yNMX6MVtGs","66105c776fb388e117f927b3","6617fad957f7c6a12ea16e26","6622cde3a1eeca31c61db6fc","
        <div id=""grid-container"">
        <!-- Grid items will be dynamically added here -->
    </div>    ","null","","","","","","","","","","","",""
"","3047","html-keyboard-response","285","360518","0.0-13.0-2.24","yNMX6MVtGs","66105c776fb388e117f927b3","6617fad957f7c6a12ea16e26","6622cde3a1eeca31c61db6fc","mask grid","q","","","","","Phylogenetic_Distractor_Threat_target","onmask","2500","q","6","Phylogenetic","true","experimental"
"","null","html-keyboard-response","286","361235","0.0-13.0-0.25","yNMX6MVtGs","66105c776fb388e117f927b3","6617fad957f7c6a12ea16e26","6622cde3a1eeca31c61db6fc","fixation cross","null","","","","","","","","","","","",""
"","null","html-keyboard-response","287","363744","0.0-13.0-1.25","yNMX6MVtGs","66105c776fb388e117f927b3","6617fad957f7c6a12ea16e26","6622cde3a1eeca31c61db6fc","
        <div id=""grid-container"">
        <!-- Grid items will be dynamically added here -->
    </div>    ","null","","","","","","","","","","","",""
"","3394","html-keyboard-response","288","364638","0.0-13.0-2.25","yNMX6MVtGs","66105c776fb388e117f927b3","6617fad957f7c6a12ea16e26","6622cde3a1eeca31c61db6fc","mask grid","q","","","","","Phylogenetic_Distractor_Threat_target","onmask","2500","q","4","Phylogenetic","true","experimental"
"","null","html-keyboard-response","289","365360","0.0-13.0-0.26","yNMX6MVtGs","66105c776fb388e117f927b3","6617fad957f7c6a12ea16e26","6622cde3a1eeca31c61db6fc","fixation cross","null","","","","","","","","","","","",""
"","null","html-keyboard-response","290","367869","0.0-13.0-1.26","yNMX6MVtGs","66105c776fb388e117f927b3","6617fad957f7c6a12ea16e26","6622cde3a1eeca31c61db6fc","
        <div id=""grid-container"">
        <!-- Grid items will be dynamically added here -->
    </div>    ","null","","","","","","","","","","","",""
"","3509","html-keyboard-response","291","368879","0.0-13.0-2.26","yNMX6MVtGs","66105c776fb388e117f927b3","6617fad957f7c6a12ea16e26","6622cde3a1eeca31c61db6fc","mask grid","q","","","","","Phylogenetic_Distractor_Threat_target","onmask","2500","q","3","Phylogenetic","true","experimental"
"","null","html-keyboard-response","292","369600","0.0-13.0-0.27","yNMX6MVtGs","66105c776fb388e117f927b3","6617fad957f7c6a12ea16e26","6622cde3a1eeca31c61db6fc","fixation cross","null","","","","","","","","","","","",""
"","null","html-keyboard-response","293","372111","0.0-13.0-1.27","yNMX6MVtGs","66105c776fb388e117f927b3","6617fad957f7c6a12ea16e26","6622cde3a1eeca31c61db6fc","
        <div id=""grid-container"">
        <!-- Grid items will be dynamically added here -->
    </div>    ","null","","","","","","","","","","","",""
"","3181","html-keyboard-response","294","372793","0.0-13.0-2.27","yNMX6MVtGs","66105c776fb388e117f927b3","6617fad957f7c6a12ea16e26","6622cde3a1eeca31c61db6fc","mask grid","p","","","","","Phylogenetic_Distractor_Nonthreat_target","onmask","2500","p","9","Phylogenetic","true","experimental"
"","null","html-keyboard-response","295","373514","0.0-13.0-0.28","yNMX6MVtGs","66105c776fb388e117f927b3","6617fad957f7c6a12ea16e26","6622cde3a1eeca31c61db6fc","fixation cross","null","","","","","","","","","","","",""
"","null","html-keyboard-response","296","376027","0.0-13.0-1.28","yNMX6MVtGs","66105c776fb388e117f927b3","6617fad957f7c6a12ea16e26","6622cde3a1eeca31c61db6fc","
        <div id=""grid-container"">
        <!-- Grid items will be dynamically added here -->
    </div>    ","null","","","","","","","","","","","",""
"","3089","html-keyboard-response","297","376617","0.0-13.0-2.28","yNMX6MVtGs","66105c776fb388e117f927b3","6617fad957f7c6a12ea16e26","6622cde3a1eeca31c61db6fc","mask grid","q","","","","","Phylogenetic_Distractor_Threat_target","onmask","2500","q","5","Phylogenetic","true","experimental"
"","null","html-keyboard-response","298","377337","0.0-13.0-0.29","yNMX6MVtGs","66105c776fb388e117f927b3","6617fad957f7c6a12ea16e26","6622cde3a1eeca31c61db6fc","fixation cross","null","","","","","","","","","","","",""
"","null","html-keyboard-response","299","379849","0.0-13.0-1.29","yNMX6MVtGs","66105c776fb388e117f927b3","6617fad957f7c6a12ea16e26","6622cde3a1eeca31c61db6fc","
        <div id=""grid-container"">
        <!-- Grid items will be dynamically added here -->
    </div>    ","null","","","","","","","","","","","",""
"","3151","html-keyboard-response","300","380500","0.0-13.0-2.29","yNMX6MVtGs","66105c776fb388e117f927b3","6617fad957f7c6a12ea16e26","6622cde3a1eeca31c61db6fc","mask grid","p","","","","","Phylogenetic_Distractor_Nonthreat_target","onmask","2500","p","8","Phylogenetic","true","experimental"
"","null","html-keyboard-response","301","381216","0.0-13.0-0.30","yNMX6MVtGs","66105c776fb388e117f927b3","6617fad957f7c6a12ea16e26","6622cde3a1eeca31c61db6fc","fixation cross","null","","","","","","","","","","","",""
"","null","html-keyboard-response","302","383731","0.0-13.0-1.30","yNMX6MVtGs","66105c776fb388e117f927b3","6617fad957f7c6a12ea16e26","6622cde3a1eeca31c61db6fc","
        <div id=""grid-container"">
        <!-- Grid items will be dynamically added here -->
    </div>    ","null","","","","","","","","","","","",""
"","3154","html-keyboard-response","303","384385","0.0-13.0-2.30","yNMX6MVtGs","66105c776fb388e117f927b3","6617fad957f7c6a12ea16e26","6622cde3a1eeca31c61db6fc","mask grid","p","","","","","Phylogenetic_Distractor_Nonthreat_target","onmask","2500","p","5","Phylogenetic","true","experimental"
"","null","html-keyboard-response","304","385102","0.0-13.0-0.31","yNMX6MVtGs","66105c776fb388e117f927b3","6617fad957f7c6a12ea16e26","6622cde3a1eeca31c61db6fc","fixation cross","null","","","","","","","","","","","",""
"","null","html-keyboard-response","305","387615","0.0-13.0-1.31","yNMX6MVtGs","66105c776fb388e117f927b3","6617fad957f7c6a12ea16e26","6622cde3a1eeca31c61db6fc","
        <div id=""grid-container"">
        <!-- Grid items will be dynamically added here -->
    </div>    ","null","","","","","","","","","","","",""
"","3215","html-keyboard-response","306","388330","0.0-13.0-2.31","yNMX6MVtGs","66105c776fb388e117f927b3","6617fad957f7c6a12ea16e26","6622cde3a1eeca31c61db6fc","mask grid","p","","","","","Phylogenetic_Distractor_Nonthreat_target","onmask","2500","p","7","Phylogenetic","true","experimental"
"","null","html-keyboard-response","307","389051","0.0-13.0-0.32","yNMX6MVtGs","66105c776fb388e117f927b3","6617fad957f7c6a12ea16e26","6622cde3a1eeca31c61db6fc","fixation cross","null","","","","","","","","","","","",""
"","null","html-keyboard-response","308","391558","0.0-13.0-1.32","yNMX6MVtGs","66105c776fb388e117f927b3","6617fad957f7c6a12ea16e26","6622cde3a1eeca31c61db6fc","
        <div id=""grid-container"">
        <!-- Grid items will be dynamically added here -->
    </div>    ","null","","","","","","","","","","","",""
"","3266","html-keyboard-response","309","392325","0.0-13.0-2.32","yNMX6MVtGs","66105c776fb388e117f927b3","6617fad957f7c6a12ea16e26","6622cde3a1eeca31c61db6fc","mask grid","p","","","","","Phylogenetic_Distractor_Nonthreat_target","onmask","2500","p","2","Phylogenetic","true","experimental"
"","null","html-keyboard-response","310","393038","0.0-13.0-0.33","yNMX6MVtGs","66105c776fb388e117f927b3","6617fad957f7c6a12ea16e26","6622cde3a1eeca31c61db6fc","fixation cross","null","","","","","","","","","","","",""
"","null","html-keyboard-response","311","395549","0.0-13.0-1.33","yNMX6MVtGs","66105c776fb388e117f927b3","6617fad957f7c6a12ea16e26","6622cde3a1eeca31c61db6fc","
        <div id=""grid-container"">
        <!-- Grid items will be dynamically added here -->
    </div>    ","null","","","","","","","","","","","",""
"","3149","html-keyboard-response","312","396199","0.0-13.0-2.33","yNMX6MVtGs","66105c776fb388e117f927b3","6617fad957f7c6a12ea16e26","6622cde3a1eeca31c61db6fc","mask grid"," ","","","","","Phylogenetic_Distractor_Nonthreat_target","onmask","2500","p","6","Phylogenetic","false","experimental"
"","null","html-keyboard-response","313","396914","0.0-13.0-0.34","yNMX6MVtGs","66105c776fb388e117f927b3","6617fad957f7c6a12ea16e26","6622cde3a1eeca31c61db6fc","fixation cross","null","","","","","","","","","","","",""
"","null","html-keyboard-response","314","399423","0.0-13.0-1.34","yNMX6MVtGs","66105c776fb388e117f927b3","6617fad957f7c6a12ea16e26","6622cde3a1eeca31c61db6fc","
        <div id=""grid-container"">
        <!-- Grid items will be dynamically added here -->
    </div>    ","null","","","","","","","","","","","",""
"","3099","html-keyboard-response","315","400023","0.0-13.0-2.34","yNMX6MVtGs","66105c776fb388e117f927b3","6617fad957f7c6a12ea16e26","6622cde3a1eeca31c61db6fc","mask grid","p","","","","","Phylogenetic_Distractor_Nonthreat_target","onmask","2500","p","4","Phylogenetic","true","experimental"
"","null","html-keyboard-response","316","400740","0.0-13.0-0.35","yNMX6MVtGs","66105c776fb388e117f927b3","6617fad957f7c6a12ea16e26","6622cde3a1eeca31c61db6fc","fixation cross","null","","","","","","","","","","","",""
"","null","html-keyboard-response","317","403253","0.0-13.0-1.35","yNMX6MVtGs","66105c776fb388e117f927b3","6617fad957f7c6a12ea16e26","6622cde3a1eeca31c61db6fc","
        <div id=""grid-container"">
        <!-- Grid items will be dynamically added here -->
    </div>    ","null","","","","","","","","","","","",""
"","3244","html-keyboard-response","318","403998","0.0-13.0-2.35","yNMX6MVtGs","66105c776fb388e117f927b3","6617fad957f7c6a12ea16e26","6622cde3a1eeca31c61db6fc","mask grid","p","","","","","Phylogenetic_Distractor_Nonthreat_target","onmask","2500","p","5","Phylogenetic","true","experimental"
"","null","html-keyboard-response","319","404717","0.0-13.0-0.36","yNMX6MVtGs","66105c776fb388e117f927b3","6617fad957f7c6a12ea16e26","6622cde3a1eeca31c61db6fc","fixation cross","null","","","","","","","","","","","",""
"","null","html-keyboard-response","320","407232","0.0-13.0-1.36","yNMX6MVtGs","66105c776fb388e117f927b3","6617fad957f7c6a12ea16e26","6622cde3a1eeca31c61db6fc","
        <div id=""grid-container"">
        <!-- Grid items will be dynamically added here -->
    </div>    ","null","","","","","","","","","","","",""
"","3230","html-keyboard-response","321","407962","0.0-13.0-2.36","yNMX6MVtGs","66105c776fb388e117f927b3","6617fad957f7c6a12ea16e26","6622cde3a1eeca31c61db6fc","mask grid","q","","","","","Phylogenetic_Distractor_Threat_target","onmask","2500","q","2","Phylogenetic","true","experimental"
"","null","html-keyboard-response","322","408678","0.0-13.0-0.37","yNMX6MVtGs","66105c776fb388e117f927b3","6617fad957f7c6a12ea16e26","6622cde3a1eeca31c61db6fc","fixation cross","null","","","","","","","","","","","",""
"","null","html-keyboard-response","323","411188","0.0-13.0-1.37","yNMX6MVtGs","66105c776fb388e117f927b3","6617fad957f7c6a12ea16e26","6622cde3a1eeca31c61db6fc","
        <div id=""grid-container"">
        <!-- Grid items will be dynamically added here -->
    </div>    ","null","","","","","","","","","","","",""
"","3233","html-keyboard-response","324","411921","0.0-13.0-2.37","yNMX6MVtGs","66105c776fb388e117f927b3","6617fad957f7c6a12ea16e26","6622cde3a1eeca31c61db6fc","mask grid","q","","","","","Phylogenetic_Distractor_Threat_target","onmask","2500","q","5","Phylogenetic","true","experimental"
"","null","html-keyboard-response","325","412636","0.0-13.0-0.38","yNMX6MVtGs","66105c776fb388e117f927b3","6617fad957f7c6a12ea16e26","6622cde3a1eeca31c61db6fc","fixation cross","null","","","","","","","","","","","",""
"","null","html-keyboard-response","326","415143","0.0-13.0-1.38","yNMX6MVtGs","66105c776fb388e117f927b3","6617fad957f7c6a12ea16e26","6622cde3a1eeca31c61db6fc","
        <div id=""grid-container"">
        <!-- Grid items will be dynamically added here -->
    </div>    ","null","","","","","","","","","","","",""
"","3599","html-keyboard-response","327","416243","0.0-13.0-2.38","yNMX6MVtGs","66105c776fb388e117f927b3","6617fad957f7c6a12ea16e26","6622cde3a1eeca31c61db6fc","mask grid","q","","","","","Phylogenetic_Distractor_Threat_target","onmask","2500","q","8","Phylogenetic","true","experimental"
"","null","html-keyboard-response","328","416959","0.0-13.0-0.39","yNMX6MVtGs","66105c776fb388e117f927b3","6617fad957f7c6a12ea16e26","6622cde3a1eeca31c61db6fc","fixation cross","null","","","","","","","","","","","",""
"","185","html-keyboard-response","329","417144","0.0-13.0-1.39","yNMX6MVtGs","66105c776fb388e117f927b3","6617fad957f7c6a12ea16e26","6622cde3a1eeca31c61db6fc","image grid","q","","","","","Phylogenetic_Distractor_notarget","ongrid","2500"," ","7","Phylogenetic","false","experimental"
"","null","html-keyboard-response","330","417297","0.0-13.0-2.39","yNMX6MVtGs","66105c776fb388e117f927b3","6617fad957f7c6a12ea16e26","6622cde3a1eeca31c61db6fc","
    <div id=""grid-container"">
        <!-- Grid items will be dynamically added here -->
    </div>    ","null","","","","","","","","","","","",""
"","10075","html-keyboard-response","331","427574","0.0-14.0","yNMX6MVtGs","66105c776fb388e117f927b3","6617fad957f7c6a12ea16e26","6622cde3a1eeca31c61db6fc","break screen"," ","","","","","","","","","","","",""
"","null","html-keyboard-response","332","430101","0.0-15.0-0.0","yNMX6MVtGs","66105c776fb388e117f927b3","6617fad957f7c6a12ea16e26","6622cde3a1eeca31c61db6fc","fixation cross","null","","","","","","","","","","","",""
"","null","html-keyboard-response","333","432608","0.0-15.0-1.0","yNMX6MVtGs","66105c776fb388e117f927b3","6617fad957f7c6a12ea16e26","6622cde3a1eeca31c61db6fc","
        <div id=""grid-container"">
        <!-- Grid items will be dynamically added here -->
    </div>    ","null","","","","","","","","","","","",""
"","3239","html-keyboard-response","334","433348","0.0-15.0-2.0","yNMX6MVtGs","66105c776fb388e117f927b3","6617fad957f7c6a12ea16e26","6622cde3a1eeca31c61db6fc","mask grid"," ","","","","","Phylogenetic_Distractor_notarget","onmask","2500"," ","9","Phylogenetic","true","experimental"
"","null","html-keyboard-response","335","434069","0.0-15.0-0.1","yNMX6MVtGs","66105c776fb388e117f927b3","6617fad957f7c6a12ea16e26","6622cde3a1eeca31c61db6fc","fixation cross","null","","","","","","","","","","","",""
"","811","html-keyboard-response","336","434881","0.0-15.0-1.1","yNMX6MVtGs","66105c776fb388e117f927b3","6617fad957f7c6a12ea16e26","6622cde3a1eeca31c61db6fc","image grid","q","","","","","Phylogenetic_Distractor_Threat_target","ongrid","2500","q","5","Phylogenetic","true","experimental"
"","null","html-keyboard-response","337","435044","0.0-15.0-2.1","yNMX6MVtGs","66105c776fb388e117f927b3","6617fad957f7c6a12ea16e26","6622cde3a1eeca31c61db6fc","
    <div id=""grid-container"">
        <!-- Grid items will be dynamically added here -->
    </div>    ","null","","","","","","","","","","","",""
"","null","html-keyboard-response","338","435755","0.0-15.0-0.2","yNMX6MVtGs","66105c776fb388e117f927b3","6617fad957f7c6a12ea16e26","6622cde3a1eeca31c61db6fc","fixation cross","null","","","","","","","","","","","",""
"","2499","html-keyboard-response","339","438254","0.0-15.0-1.2","yNMX6MVtGs","66105c776fb388e117f927b3","6617fad957f7c6a12ea16e26","6622cde3a1eeca31c61db6fc","image grid","p","","","","","Phylogenetic_Distractor_Nonthreat_target","ongrid","2500","p","2","Phylogenetic","true","experimental"
"","null","html-keyboard-response","340","438418","0.0-15.0-2.2","yNMX6MVtGs","66105c776fb388e117f927b3","6617fad957f7c6a12ea16e26","6622cde3a1eeca31c61db6fc","
    <div id=""grid-container"">
        <!-- Grid items will be dynamically added here -->
    </div>    ","null","","","","","","","","","","","",""
"","null","html-keyboard-response","341","439129","0.0-15.0-0.3","yNMX6MVtGs","66105c776fb388e117f927b3","6617fad957f7c6a12ea16e26","6622cde3a1eeca31c61db6fc","fixation cross","null","","","","","","","","","","","",""
"","1892","html-keyboard-response","342","441021","0.0-15.0-1.3","yNMX6MVtGs","66105c776fb388e117f927b3","6617fad957f7c6a12ea16e26","6622cde3a1eeca31c61db6fc","image grid"," ","","","","","Phylogenetic_Distractor_notarget","ongrid","2500"," ","1","Phylogenetic","true","experimental"
"","null","html-keyboard-response","343","441176","0.0-15.0-2.3","yNMX6MVtGs","66105c776fb388e117f927b3","6617fad957f7c6a12ea16e26","6622cde3a1eeca31c61db6fc","
    <div id=""grid-container"">
        <!-- Grid items will be dynamically added here -->
    </div>    ","null","","","","","","","","","","","",""
"","null","html-keyboard-response","344","441900","0.0-15.0-0.4","yNMX6MVtGs","66105c776fb388e117f927b3","6617fad957f7c6a12ea16e26","6622cde3a1eeca31c61db6fc","fixation cross","null","","","","","","","","","","","",""
"","959","html-keyboard-response","345","442860","0.0-15.0-1.4","yNMX6MVtGs","66105c776fb388e117f927b3","6617fad957f7c6a12ea16e26","6622cde3a1eeca31c61db6fc","image grid","q","","","","","Phylogenetic_Distractor_Threat_target","ongrid","2500","q","3","Phylogenetic","true","experimental"
"","null","html-keyboard-response","346","443023","0.0-15.0-2.4","yNMX6MVtGs","66105c776fb388e117f927b3","6617fad957f7c6a12ea16e26","6622cde3a1eeca31c61db6fc","
    <div id=""grid-container"">
        <!-- Grid items will be dynamically added here -->
    </div>    ","null","","","","","","","","","","","",""
"","null","html-keyboard-response","347","443734","0.0-15.0-0.5","yNMX6MVtGs","66105c776fb388e117f927b3","6617fad957f7c6a12ea16e26","6622cde3a1eeca31c61db6fc","fixation cross","null","","","","","","","","","","","",""
"","725","html-keyboard-response","348","444459","0.0-15.0-1.5","yNMX6MVtGs","66105c776fb388e117f927b3","6617fad957f7c6a12ea16e26","6622cde3a1eeca31c61db6fc","image grid","q","","","","","Phylogenetic_Distractor_Threat_target","ongrid","2500","q","4","Phylogenetic","true","experimental"
"","null","html-keyboard-response","349","444626","0.0-15.0-2.5","yNMX6MVtGs","66105c776fb388e117f927b3","6617fad957f7c6a12ea16e26","6622cde3a1eeca31c61db6fc","
    <div id=""grid-container"">
        <!-- Grid items will be dynamically added here -->
    </div>    ","null","","","","","","","","","","","",""
"","null","html-keyboard-response","350","445338","0.0-15.0-0.6","yNMX6MVtGs","66105c776fb388e117f927b3","6617fad957f7c6a12ea16e26","6622cde3a1eeca31c61db6fc","fixation cross","null","","","","","","","","","","","",""
"","2048","html-keyboard-response","351","447386","0.0-15.0-1.6","yNMX6MVtGs","66105c776fb388e117f927b3","6617fad957f7c6a12ea16e26","6622cde3a1eeca31c61db6fc","image grid","p","","","","","Phylogenetic_Distractor_Nonthreat_target","ongrid","2500","p","2","Phylogenetic","true","experimental"
"","null","html-keyboard-response","352","447540","0.0-15.0-2.6","yNMX6MVtGs","66105c776fb388e117f927b3","6617fad957f7c6a12ea16e26","6622cde3a1eeca31c61db6fc","
    <div id=""grid-container"">
        <!-- Grid items will be dynamically added here -->
    </div>    ","null","","","","","","","","","","","",""
"","null","html-keyboard-response","353","448249","0.0-15.0-0.7","yNMX6MVtGs","66105c776fb388e117f927b3","6617fad957f7c6a12ea16e26","6622cde3a1eeca31c61db6fc","fixation cross","null","","","","","","","","","","","",""
"","null","html-keyboard-response","354","450755","0.0-15.0-1.7","yNMX6MVtGs","66105c776fb388e117f927b3","6617fad957f7c6a12ea16e26","6622cde3a1eeca31c61db6fc","
        <div id=""grid-container"">
        <!-- Grid items will be dynamically added here -->
    </div>    ","null","","","","","","","","","","","",""
"","3014","html-keyboard-response","355","451270","0.0-15.0-2.7","yNMX6MVtGs","66105c776fb388e117f927b3","6617fad957f7c6a12ea16e26","6622cde3a1eeca31c61db6fc","mask grid"," ","","","","","Phylogenetic_Distractor_notarget","onmask","2500"," ","6","Phylogenetic","true","experimental"
"","null","html-keyboard-response","356","451988","0.0-15.0-0.8","yNMX6MVtGs","66105c776fb388e117f927b3","6617fad957f7c6a12ea16e26","6622cde3a1eeca31c61db6fc","fixation cross","null","","","","","","","","","","","",""
"","null","html-keyboard-response","357","454498","0.0-15.0-1.8","yNMX6MVtGs","66105c776fb388e117f927b3","6617fad957f7c6a12ea16e26","6622cde3a1eeca31c61db6fc","
        <div id=""grid-container"">
        <!-- Grid items will be dynamically added here -->
    </div>    ","null","","","","","","","","","","","",""
"","3031","html-keyboard-response","358","455029","0.0-15.0-2.8","yNMX6MVtGs","66105c776fb388e117f927b3","6617fad957f7c6a12ea16e26","6622cde3a1eeca31c61db6fc","mask grid","q","","","","","Phylogenetic_Distractor_Threat_target","onmask","2500","q","3","Phylogenetic","true","experimental"
"","null","html-keyboard-response","359","455747","0.0-15.0-0.9","yNMX6MVtGs","66105c776fb388e117f927b3","6617fad957f7c6a12ea16e26","6622cde3a1eeca31c61db6fc","fixation cross","null","","","","","","","","","","","",""
"","1192","html-keyboard-response","360","456939","0.0-15.0-1.9","yNMX6MVtGs","66105c776fb388e117f927b3","6617fad957f7c6a12ea16e26","6622cde3a1eeca31c61db6fc","image grid","p","","","","","Phylogenetic_Distractor_Nonthreat_target","ongrid","2500","p","8","Phylogenetic","true","experimental"
"","null","html-keyboard-response","361","457103","0.0-15.0-2.9","yNMX6MVtGs","66105c776fb388e117f927b3","6617fad957f7c6a12ea16e26","6622cde3a1eeca31c61db6fc","
    <div id=""grid-container"">
        <!-- Grid items will be dynamically added here -->
    </div>    ","null","","","","","","","","","","","",""
"","null","html-keyboard-response","362","457826","0.0-15.0-0.10","yNMX6MVtGs","66105c776fb388e117f927b3","6617fad957f7c6a12ea16e26","6622cde3a1eeca31c61db6fc","fixation cross","null","","","","","","","","","","","",""
"","1127","html-keyboard-response","363","458954","0.0-15.0-1.10","yNMX6MVtGs","66105c776fb388e117f927b3","6617fad957f7c6a12ea16e26","6622cde3a1eeca31c61db6fc","image grid","q","","","","","Phylogenetic_Distractor_Threat_target","ongrid","2500","q","7","Phylogenetic","true","experimental"
"","null","html-keyboard-response","364","459119","0.0-15.0-2.10","yNMX6MVtGs","66105c776fb388e117f927b3","6617fad957f7c6a12ea16e26","6622cde3a1eeca31c61db6fc","
    <div id=""grid-container"">
        <!-- Grid items will be dynamically added here -->
    </div>    ","null","","","","","","","","","","","",""
"","null","html-keyboard-response","365","459843","0.0-15.0-0.11","yNMX6MVtGs","66105c776fb388e117f927b3","6617fad957f7c6a12ea16e26","6622cde3a1eeca31c61db6fc","fixation cross","null","","","","","","","","","","","",""
"","824","html-keyboard-response","366","460668","0.0-15.0-1.11","yNMX6MVtGs","66105c776fb388e117f927b3","6617fad957f7c6a12ea16e26","6622cde3a1eeca31c61db6fc","image grid","q","","","","","Phylogenetic_Distractor_Threat_target","ongrid","2500","q","9","Phylogenetic","true","experimental"
"","null","html-keyboard-response","367","460836","0.0-15.0-2.11","yNMX6MVtGs","66105c776fb388e117f927b3","6617fad957f7c6a12ea16e26","6622cde3a1eeca31c61db6fc","
    <div id=""grid-container"">
        <!-- Grid items will be dynamically added here -->
    </div>    ","null","","","","","","","","","","","",""
"","null","html-keyboard-response","368","461561","0.0-15.0-0.12","yNMX6MVtGs","66105c776fb388e117f927b3","6617fad957f7c6a12ea16e26","6622cde3a1eeca31c61db6fc","fixation cross","null","","","","","","","","","","","",""
