"success","rt","trial_type","trial_index","time_elapsed","internal_node_id","unique_identifier","subject_id","study_id","session_id","stimulus","response","timeout","failed_images","failed_audio","failed_video","task","time_manipulation","respondedwhen","correctresponse","targetimagelocation","blocktype","correct","roundtype"
"true","3891","fullscreen","0","4894","0.0-0.0","jBahbwUlSg","66226d60cef946159f07d0f7","6617fad957f7c6a12ea16e26","6622cf6b540afcab7fc7abfc","","","","","","","","","","","","","",""
"","10011","html-keyboard-response","1","14907","0.0-1.0","jBahbwUlSg","66226d60cef946159f07d0f7","6617fad957f7c6a12ea16e26","6622cf6b540afcab7fc7abfc","instruction screen 0","arrowright","","","","","","","","","","","",""
"true","","preload","2","16979","0.0-2.0","jBahbwUlSg","66226d60cef946159f07d0f7","6617fad957f7c6a12ea16e26","6622cf6b540afcab7fc7abfc","","","false","[]","[]","[]","","","","","","","",""
"","12315","html-keyboard-response","3","29295","0.0-3.0","jBahbwUlSg","66226d60cef946159f07d0f7","6617fad957f7c6a12ea16e26","6622cf6b540afcab7fc7abfc","instruction screen 1","arrowright","","","","","","","","","","","",""
"","7805","html-keyboard-response","4","37104","0.0-4.0","jBahbwUlSg","66226d60cef946159f07d0f7","6617fad957f7c6a12ea16e26","6622cf6b540afcab7fc7abfc","instruction screen 2","q","","","","","","","","","","","",""
"","5556","html-keyboard-response","5","42664","0.0-5.0","jBahbwUlSg","66226d60cef946159f07d0f7","6617fad957f7c6a12ea16e26","6622cf6b540afcab7fc7abfc","instruction screen 3","p","","","","","","","","","","","",""
"","4753","html-keyboard-response","6","47422","0.0-6.0","jBahbwUlSg","66226d60cef946159f07d0f7","6617fad957f7c6a12ea16e26","6622cf6b540afcab7fc7abfc","instruction screen 4"," ","","","","","","","","","","","",""
"","7673","html-keyboard-response","7","55098","0.0-7.0","jBahbwUlSg","66226d60cef946159f07d0f7","6617fad957f7c6a12ea16e26","6622cf6b540afcab7fc7abfc","instruction screen 5"," ","","","","","","","","","","","",""
"","null","html-keyboard-response","8","55604","0.0-8.0","jBahbwUlSg","66226d60cef946159f07d0f7","6617fad957f7c6a12ea16e26","6622cf6b540afcab7fc7abfc","fixation cross","null","","","","","","","","","","","",""
"","null","html-keyboard-response","9","56105","0.0-9.0-0.0","jBahbwUlSg","66226d60cef946159f07d0f7","6617fad957f7c6a12ea16e26","6622cf6b540afcab7fc7abfc","fixation cross","null","","","","","","","","","","","",""
"","2472","html-keyboard-response","10","58578","0.0-9.0-1.0","jBahbwUlSg","66226d60cef946159f07d0f7","6617fad957f7c6a12ea16e26","6622cf6b540afcab7fc7abfc","image grid"," ","","","","","Phylogenetic_Distractor_notarget","3000","ongrid"," ","6","Phylogenetic","true","practice"
"","null","html-keyboard-response","11","58730","0.0-9.0-2.0","jBahbwUlSg","66226d60cef946159f07d0f7","6617fad957f7c6a12ea16e26","6622cf6b540afcab7fc7abfc","
    <div id=""grid-container"">
        <!-- Grid items will be dynamically added here -->
    </div>    ","null","","","","","","","","","","","",""
"","null","html-keyboard-response","12","59932","0.0-9.0-3.0","jBahbwUlSg","66226d60cef946159f07d0f7","6617fad957f7c6a12ea16e26","6622cf6b540afcab7fc7abfc","feedback screen","null","","","","","","","","","","","",""
"","null","html-keyboard-response","13","60438","0.0-9.0-0.1","jBahbwUlSg","66226d60cef946159f07d0f7","6617fad957f7c6a12ea16e26","6622cf6b540afcab7fc7abfc","fixation cross","null","","","","","","","","","","","",""
"","1437","html-keyboard-response","14","61875","0.0-9.0-1.1","jBahbwUlSg","66226d60cef946159f07d0f7","6617fad957f7c6a12ea16e26","6622cf6b540afcab7fc7abfc","image grid","p","","","","","Ontogenetic_Distractor_Nonthreat_target","2900","ongrid","p","8","Phylogenetic","true","practice"
"","null","html-keyboard-response","15","62027","0.0-9.0-2.1","jBahbwUlSg","66226d60cef946159f07d0f7","6617fad957f7c6a12ea16e26","6622cf6b540afcab7fc7abfc","
    <div id=""grid-container"">
        <!-- Grid items will be dynamically added here -->
    </div>    ","null","","","","","","","","","","","",""
"","null","html-keyboard-response","16","63231","0.0-9.0-3.1","jBahbwUlSg","66226d60cef946159f07d0f7","6617fad957f7c6a12ea16e26","6622cf6b540afcab7fc7abfc","feedback screen","null","","","","","","","","","","","",""
"","null","html-keyboard-response","17","63738","0.0-9.0-0.2","jBahbwUlSg","66226d60cef946159f07d0f7","6617fad957f7c6a12ea16e26","6622cf6b540afcab7fc7abfc","fixation cross","null","","","","","","","","","","","",""
"","1681","html-keyboard-response","18","65419","0.0-9.0-1.2","jBahbwUlSg","66226d60cef946159f07d0f7","6617fad957f7c6a12ea16e26","6622cf6b540afcab7fc7abfc","image grid","q","","","","","Phylogenetic_Distractor_Threat_target","2800","ongrid","q","4","Phylogenetic","true","practice"
"","null","html-keyboard-response","19","65571","0.0-9.0-2.2","jBahbwUlSg","66226d60cef946159f07d0f7","6617fad957f7c6a12ea16e26","6622cf6b540afcab7fc7abfc","
    <div id=""grid-container"">
        <!-- Grid items will be dynamically added here -->
    </div>    ","null","","","","","","","","","","","",""
"","null","html-keyboard-response","20","66774","0.0-9.0-3.2","jBahbwUlSg","66226d60cef946159f07d0f7","6617fad957f7c6a12ea16e26","6622cf6b540afcab7fc7abfc","feedback screen","null","","","","","","","","","","","",""
"","null","html-keyboard-response","21","67280","0.0-9.0-0.3","jBahbwUlSg","66226d60cef946159f07d0f7","6617fad957f7c6a12ea16e26","6622cf6b540afcab7fc7abfc","fixation cross","null","","","","","","","","","","","",""
"","1617","html-keyboard-response","22","68898","0.0-9.0-1.3","jBahbwUlSg","66226d60cef946159f07d0f7","6617fad957f7c6a12ea16e26","6622cf6b540afcab7fc7abfc","image grid"," ","","","","","Ontogenetic_Distractor_notarget","2700","ongrid"," ","7","Phylogenetic","true","practice"
"","null","html-keyboard-response","23","69050","0.0-9.0-2.3","jBahbwUlSg","66226d60cef946159f07d0f7","6617fad957f7c6a12ea16e26","6622cf6b540afcab7fc7abfc","
    <div id=""grid-container"">
        <!-- Grid items will be dynamically added here -->
    </div>    ","null","","","","","","","","","","","",""
"","null","html-keyboard-response","24","70253","0.0-9.0-3.3","jBahbwUlSg","66226d60cef946159f07d0f7","6617fad957f7c6a12ea16e26","6622cf6b540afcab7fc7abfc","feedback screen","null","","","","","","","","","","","",""
"","null","html-keyboard-response","25","70759","0.0-9.0-0.4","jBahbwUlSg","66226d60cef946159f07d0f7","6617fad957f7c6a12ea16e26","6622cf6b540afcab7fc7abfc","fixation cross","null","","","","","","","","","","","",""
"","1774","html-keyboard-response","26","72533","0.0-9.0-1.4","jBahbwUlSg","66226d60cef946159f07d0f7","6617fad957f7c6a12ea16e26","6622cf6b540afcab7fc7abfc","image grid","p","","","","","Phylogenetic_Distractor_Nonthreat_target","2600","ongrid","p","3","Phylogenetic","true","practice"
"","null","html-keyboard-response","27","72685","0.0-9.0-2.4","jBahbwUlSg","66226d60cef946159f07d0f7","6617fad957f7c6a12ea16e26","6622cf6b540afcab7fc7abfc","
    <div id=""grid-container"">
        <!-- Grid items will be dynamically added here -->
    </div>    ","null","","","","","","","","","","","",""
"","null","html-keyboard-response","28","73888","0.0-9.0-3.4","jBahbwUlSg","66226d60cef946159f07d0f7","6617fad957f7c6a12ea16e26","6622cf6b540afcab7fc7abfc","feedback screen","null","","","","","","","","","","","",""
"","null","html-keyboard-response","29","74394","0.0-9.0-0.5","jBahbwUlSg","66226d60cef946159f07d0f7","6617fad957f7c6a12ea16e26","6622cf6b540afcab7fc7abfc","fixation cross","null","","","","","","","","","","","",""
"","1453","html-keyboard-response","30","75848","0.0-9.0-1.5","jBahbwUlSg","66226d60cef946159f07d0f7","6617fad957f7c6a12ea16e26","6622cf6b540afcab7fc7abfc","image grid","q","","","","","Ontogenetic_Distractor_Threat_target","2500","ongrid","q","1","Phylogenetic","true","practice"
"","null","html-keyboard-response","31","76000","0.0-9.0-2.5","jBahbwUlSg","66226d60cef946159f07d0f7","6617fad957f7c6a12ea16e26","6622cf6b540afcab7fc7abfc","
    <div id=""grid-container"">
        <!-- Grid items will be dynamically added here -->
    </div>    ","null","","","","","","","","","","","",""
"","null","html-keyboard-response","32","77203","0.0-9.0-3.5","jBahbwUlSg","66226d60cef946159f07d0f7","6617fad957f7c6a12ea16e26","6622cf6b540afcab7fc7abfc","feedback screen","null","","","","","","","","","","","",""
"","null","html-keyboard-response","33","77709","0.0-9.0-0.6","jBahbwUlSg","66226d60cef946159f07d0f7","6617fad957f7c6a12ea16e26","6622cf6b540afcab7fc7abfc","fixation cross","null","","","","","","","","","","","",""
"","90","html-keyboard-response","34","77800","0.0-9.0-1.6","jBahbwUlSg","66226d60cef946159f07d0f7","6617fad957f7c6a12ea16e26","6622cf6b540afcab7fc7abfc","image grid"," ","","","","","Phylogenetic_Distractor_Nonthreat_target","2400","ongrid","p","6","Phylogenetic","false","practice"
"","null","html-keyboard-response","35","77951","0.0-9.0-2.6","jBahbwUlSg","66226d60cef946159f07d0f7","6617fad957f7c6a12ea16e26","6622cf6b540afcab7fc7abfc","
    <div id=""grid-container"">
        <!-- Grid items will be dynamically added here -->
    </div>    ","null","","","","","","","","","","","",""
"","null","html-keyboard-response","36","79155","0.0-9.0-3.6","jBahbwUlSg","66226d60cef946159f07d0f7","6617fad957f7c6a12ea16e26","6622cf6b540afcab7fc7abfc","feedback screen","null","","","","","","","","","","","",""
"","null","html-keyboard-response","37","79660","0.0-9.0-0.7","jBahbwUlSg","66226d60cef946159f07d0f7","6617fad957f7c6a12ea16e26","6622cf6b540afcab7fc7abfc","fixation cross","null","","","","","","","","","","","",""
"","null","html-keyboard-response","38","81962","0.0-9.0-1.7","jBahbwUlSg","66226d60cef946159f07d0f7","6617fad957f7c6a12ea16e26","6622cf6b540afcab7fc7abfc","
        <div id=""grid-container"">
        <!-- Grid items will be dynamically added here -->
    </div>    ","null","","","","","","","","","","","",""
"","2576","html-keyboard-response","39","82239","0.0-9.0-2.7","jBahbwUlSg","66226d60cef946159f07d0f7","6617fad957f7c6a12ea16e26","6622cf6b540afcab7fc7abfc","mask grid","p","","","","","Phylogenetic_Distractor_notarget","2300","onmask"," ","3","Phylogenetic","false","practice"
"","null","html-keyboard-response","40","83443","0.0-9.0-3.7","jBahbwUlSg","66226d60cef946159f07d0f7","6617fad957f7c6a12ea16e26","6622cf6b540afcab7fc7abfc","feedback screen","null","","","","","","","","","","","",""
"","null","html-keyboard-response","41","83949","0.0-9.0-0.8","jBahbwUlSg","66226d60cef946159f07d0f7","6617fad957f7c6a12ea16e26","6622cf6b540afcab7fc7abfc","fixation cross","null","","","","","","","","","","","",""
"","null","html-keyboard-response","42","86151","0.0-9.0-1.8","jBahbwUlSg","66226d60cef946159f07d0f7","6617fad957f7c6a12ea16e26","6622cf6b540afcab7fc7abfc","
        <div id=""grid-container"">
        <!-- Grid items will be dynamically added here -->
    </div>    ","null","","","","","","","","","","","",""
"","2225","html-keyboard-response","43","86177","0.0-9.0-2.8","jBahbwUlSg","66226d60cef946159f07d0f7","6617fad957f7c6a12ea16e26","6622cf6b540afcab7fc7abfc","mask grid"," ","","","","","Phylogenetic_Distractor_Nonthreat_target","2200","onmask","p","2","Phylogenetic","false","practice"
"","null","html-keyboard-response","44","87381","0.0-9.0-3.8","jBahbwUlSg","66226d60cef946159f07d0f7","6617fad957f7c6a12ea16e26","6622cf6b540afcab7fc7abfc","feedback screen","null","","","","","","","","","","","",""
"","null","html-keyboard-response","45","87887","0.0-9.0-0.9","jBahbwUlSg","66226d60cef946159f07d0f7","6617fad957f7c6a12ea16e26","6622cf6b540afcab7fc7abfc","fixation cross","null","","","","","","","","","","","",""
"","null","html-keyboard-response","46","89989","0.0-9.0-1.9","jBahbwUlSg","66226d60cef946159f07d0f7","6617fad957f7c6a12ea16e26","6622cf6b540afcab7fc7abfc","
        <div id=""grid-container"">
        <!-- Grid items will be dynamically added here -->
    </div>    ","null","","","","","","","","","","","",""
"","2121","html-keyboard-response","47","90010","0.0-9.0-2.9","jBahbwUlSg","66226d60cef946159f07d0f7","6617fad957f7c6a12ea16e26","6622cf6b540afcab7fc7abfc","mask grid","p","","","","","Phylogenetic_Distractor_Nonthreat_target","2100","onmask","p","4","Phylogenetic","true","practice"
"","null","html-keyboard-response","48","91214","0.0-9.0-3.9","jBahbwUlSg","66226d60cef946159f07d0f7","6617fad957f7c6a12ea16e26","6622cf6b540afcab7fc7abfc","feedback screen","null","","","","","","","","","","","",""
"","null","html-keyboard-response","49","91719","0.0-9.0-0.10","jBahbwUlSg","66226d60cef946159f07d0f7","6617fad957f7c6a12ea16e26","6622cf6b540afcab7fc7abfc","fixation cross","null","","","","","","","","","","","",""
"","1037","html-keyboard-response","50","92757","0.0-9.0-1.10","jBahbwUlSg","66226d60cef946159f07d0f7","6617fad957f7c6a12ea16e26","6622cf6b540afcab7fc7abfc","image grid","q","","","","","Ontogenetic_Distractor_Threat_target","2000","ongrid","q","1","Phylogenetic","true","practice"
"","null","html-keyboard-response","51","92910","0.0-9.0-2.10","jBahbwUlSg","66226d60cef946159f07d0f7","6617fad957f7c6a12ea16e26","6622cf6b540afcab7fc7abfc","
    <div id=""grid-container"">
        <!-- Grid items will be dynamically added here -->
    </div>    ","null","","","","","","","","","","","",""
"","null","html-keyboard-response","52","94113","0.0-9.0-3.10","jBahbwUlSg","66226d60cef946159f07d0f7","6617fad957f7c6a12ea16e26","6622cf6b540afcab7fc7abfc","feedback screen","null","","","","","","","","","","","",""
"","null","html-keyboard-response","53","94619","0.0-9.0-0.11","jBahbwUlSg","66226d60cef946159f07d0f7","6617fad957f7c6a12ea16e26","6622cf6b540afcab7fc7abfc","fixation cross","null","","","","","","","","","","","",""
"","null","html-keyboard-response","54","96521","0.0-9.0-1.11","jBahbwUlSg","66226d60cef946159f07d0f7","6617fad957f7c6a12ea16e26","6622cf6b540afcab7fc7abfc","
        <div id=""grid-container"">
        <!-- Grid items will be dynamically added here -->
    </div>    ","null","","","","","","","","","","","",""
"","2192","html-keyboard-response","55","96813","0.0-9.0-2.11","jBahbwUlSg","66226d60cef946159f07d0f7","6617fad957f7c6a12ea16e26","6622cf6b540afcab7fc7abfc","mask grid","q","","","","","Phylogenetic_Distractor_Threat_target","1900","onmask","q","7","Phylogenetic","true","practice"
"","null","html-keyboard-response","56","98017","0.0-9.0-3.11","jBahbwUlSg","66226d60cef946159f07d0f7","6617fad957f7c6a12ea16e26","6622cf6b540afcab7fc7abfc","feedback screen","null","","","","","","","","","","","",""
"","null","html-keyboard-response","57","98522","0.0-9.0-0.12","jBahbwUlSg","66226d60cef946159f07d0f7","6617fad957f7c6a12ea16e26","6622cf6b540afcab7fc7abfc","fixation cross","null","","","","","","","","","","","",""
"","893","html-keyboard-response","58","99416","0.0-9.0-1.12","jBahbwUlSg","66226d60cef946159f07d0f7","6617fad957f7c6a12ea16e26","6622cf6b540afcab7fc7abfc","image grid","q","","","","","Ontogenetic_Distractor_Threat_target","1800","ongrid","q","2","Phylogenetic","true","practice"
"","null","html-keyboard-response","59","99568","0.0-9.0-2.12","jBahbwUlSg","66226d60cef946159f07d0f7","6617fad957f7c6a12ea16e26","6622cf6b540afcab7fc7abfc","
    <div id=""grid-container"">
        <!-- Grid items will be dynamically added here -->
    </div>    ","null","","","","","","","","","","","",""
"","null","html-keyboard-response","60","100772","0.0-9.0-3.12","jBahbwUlSg","66226d60cef946159f07d0f7","6617fad957f7c6a12ea16e26","6622cf6b540afcab7fc7abfc","feedback screen","null","","","","","","","","","","","",""
"","null","html-keyboard-response","61","101277","0.0-9.0-0.13","jBahbwUlSg","66226d60cef946159f07d0f7","6617fad957f7c6a12ea16e26","6622cf6b540afcab7fc7abfc","fixation cross","null","","","","","","","","","","","",""
"","1280","html-keyboard-response","62","102558","0.0-9.0-1.13","jBahbwUlSg","66226d60cef946159f07d0f7","6617fad957f7c6a12ea16e26","6622cf6b540afcab7fc7abfc","image grid","p","","","","","Ontogenetic_Distractor_Nonthreat_target","1700","ongrid","p","8","Phylogenetic","true","practice"
"","null","html-keyboard-response","63","102709","0.0-9.0-2.13","jBahbwUlSg","66226d60cef946159f07d0f7","6617fad957f7c6a12ea16e26","6622cf6b540afcab7fc7abfc","
    <div id=""grid-container"">
        <!-- Grid items will be dynamically added here -->
    </div>    ","null","","","","","","","","","","","",""
"","null","html-keyboard-response","64","103912","0.0-9.0-3.13","jBahbwUlSg","66226d60cef946159f07d0f7","6617fad957f7c6a12ea16e26","6622cf6b540afcab7fc7abfc","feedback screen","null","","","","","","","","","","","",""
"","null","html-keyboard-response","65","104419","0.0-9.0-0.14","jBahbwUlSg","66226d60cef946159f07d0f7","6617fad957f7c6a12ea16e26","6622cf6b540afcab7fc7abfc","fixation cross","null","","","","","","","","","","","",""
"","811","html-keyboard-response","66","105230","0.0-9.0-1.14","jBahbwUlSg","66226d60cef946159f07d0f7","6617fad957f7c6a12ea16e26","6622cf6b540afcab7fc7abfc","image grid","q","","","","","Ontogenetic_Distractor_Threat_target","1600","ongrid","q","6","Phylogenetic","true","practice"
"","null","html-keyboard-response","67","105381","0.0-9.0-2.14","jBahbwUlSg","66226d60cef946159f07d0f7","6617fad957f7c6a12ea16e26","6622cf6b540afcab7fc7abfc","
    <div id=""grid-container"">
        <!-- Grid items will be dynamically added here -->
    </div>    ","null","","","","","","","","","","","",""
"","null","html-keyboard-response","68","106586","0.0-9.0-3.14","jBahbwUlSg","66226d60cef946159f07d0f7","6617fad957f7c6a12ea16e26","6622cf6b540afcab7fc7abfc","feedback screen","null","","","","","","","","","","","",""
"","null","html-keyboard-response","69","107092","0.0-9.0-0.15","jBahbwUlSg","66226d60cef946159f07d0f7","6617fad957f7c6a12ea16e26","6622cf6b540afcab7fc7abfc","fixation cross","null","","","","","","","","","","","",""
"","1392","html-keyboard-response","70","108484","0.0-9.0-1.15","jBahbwUlSg","66226d60cef946159f07d0f7","6617fad957f7c6a12ea16e26","6622cf6b540afcab7fc7abfc","image grid"," ","","","","","Ontogenetic_Distractor_notarget","1500","ongrid"," ","8","Phylogenetic","true","practice"
"","null","html-keyboard-response","71","108636","0.0-9.0-2.15","jBahbwUlSg","66226d60cef946159f07d0f7","6617fad957f7c6a12ea16e26","6622cf6b540afcab7fc7abfc","
    <div id=""grid-container"">
        <!-- Grid items will be dynamically added here -->
    </div>    ","null","","","","","","","","","","","",""
"","null","html-keyboard-response","72","109839","0.0-9.0-3.15","jBahbwUlSg","66226d60cef946159f07d0f7","6617fad957f7c6a12ea16e26","6622cf6b540afcab7fc7abfc","feedback screen","null","","","","","","","","","","","",""
"","null","html-keyboard-response","73","110344","0.0-9.0-0.16","jBahbwUlSg","66226d60cef946159f07d0f7","6617fad957f7c6a12ea16e26","6622cf6b540afcab7fc7abfc","fixation cross","null","","","","","","","","","","","",""
"","808","html-keyboard-response","74","111152","0.0-9.0-1.16","jBahbwUlSg","66226d60cef946159f07d0f7","6617fad957f7c6a12ea16e26","6622cf6b540afcab7fc7abfc","image grid","q","","","","","Phylogenetic_Distractor_Threat_target","1400","ongrid","q","2","Phylogenetic","true","practice"
"","null","html-keyboard-response","75","111305","0.0-9.0-2.16","jBahbwUlSg","66226d60cef946159f07d0f7","6617fad957f7c6a12ea16e26","6622cf6b540afcab7fc7abfc","
    <div id=""grid-container"">
        <!-- Grid items will be dynamically added here -->
    </div>    ","null","","","","","","","","","","","",""
"","null","html-keyboard-response","76","112508","0.0-9.0-3.16","jBahbwUlSg","66226d60cef946159f07d0f7","6617fad957f7c6a12ea16e26","6622cf6b540afcab7fc7abfc","feedback screen","null","","","","","","","","","","","",""
"","null","html-keyboard-response","77","113014","0.0-9.0-0.17","jBahbwUlSg","66226d60cef946159f07d0f7","6617fad957f7c6a12ea16e26","6622cf6b540afcab7fc7abfc","fixation cross","null","","","","","","","","","","","",""
"","906","html-keyboard-response","78","113920","0.0-9.0-1.17","jBahbwUlSg","66226d60cef946159f07d0f7","6617fad957f7c6a12ea16e26","6622cf6b540afcab7fc7abfc","image grid","p","","","","","Ontogenetic_Distractor_Nonthreat_target","1300","ongrid","p","2","Phylogenetic","true","practice"
"","null","html-keyboard-response","79","114071","0.0-9.0-2.17","jBahbwUlSg","66226d60cef946159f07d0f7","6617fad957f7c6a12ea16e26","6622cf6b540afcab7fc7abfc","
    <div id=""grid-container"">
        <!-- Grid items will be dynamically added here -->
    </div>    ","null","","","","","","","","","","","",""
"","null","html-keyboard-response","80","115274","0.0-9.0-3.17","jBahbwUlSg","66226d60cef946159f07d0f7","6617fad957f7c6a12ea16e26","6622cf6b540afcab7fc7abfc","feedback screen","null","","","","","","","","","","","",""
"","null","html-keyboard-response","81","115782","0.0-9.0-0.18","jBahbwUlSg","66226d60cef946159f07d0f7","6617fad957f7c6a12ea16e26","6622cf6b540afcab7fc7abfc","fixation cross","null","","","","","","","","","","","",""
"","null","html-keyboard-response","82","116984","0.0-9.0-1.18","jBahbwUlSg","66226d60cef946159f07d0f7","6617fad957f7c6a12ea16e26","6622cf6b540afcab7fc7abfc","
        <div id=""grid-container"">
        <!-- Grid items will be dynamically added here -->
    </div>    ","null","","","","","","","","","","","",""
"","2021","html-keyboard-response","83","117805","0.0-9.0-2.18","jBahbwUlSg","66226d60cef946159f07d0f7","6617fad957f7c6a12ea16e26","6622cf6b540afcab7fc7abfc","mask grid"," ","","","","","Phylogenetic_Distractor_Threat_target","1200","onmask","q","1","Phylogenetic","false","practice"
"","73","html-keyboard-response","84","118081","0.0-9.0-3.18","jBahbwUlSg","66226d60cef946159f07d0f7","6617fad957f7c6a12ea16e26","6622cf6b540afcab7fc7abfc","feedback screen","p","","","","","","","","","","","",""
"","185","html-keyboard-response","85","118586","0.0-9.0-0.19","jBahbwUlSg","66226d60cef946159f07d0f7","6617fad957f7c6a12ea16e26","6622cf6b540afcab7fc7abfc","fixation cross","q","","","","","","","","","","","",""
"","940","html-keyboard-response","86","119526","0.0-9.0-1.19","jBahbwUlSg","66226d60cef946159f07d0f7","6617fad957f7c6a12ea16e26","6622cf6b540afcab7fc7abfc","image grid","p","","","","","Ontogenetic_Distractor_Nonthreat_target","1100","ongrid","p","1","Phylogenetic","true","practice"
"","null","html-keyboard-response","87","119678","0.0-9.0-2.19","jBahbwUlSg","66226d60cef946159f07d0f7","6617fad957f7c6a12ea16e26","6622cf6b540afcab7fc7abfc","
    <div id=""grid-container"">
        <!-- Grid items will be dynamically added here -->
    </div>    ","null","","","","","","","","","","","",""
"","null","html-keyboard-response","88","120882","0.0-9.0-3.19","jBahbwUlSg","66226d60cef946159f07d0f7","6617fad957f7c6a12ea16e26","6622cf6b540afcab7fc7abfc","feedback screen","null","","","","","","","","","","","",""
"","6243","html-keyboard-response","89","127153","0.0-10.0","jBahbwUlSg","66226d60cef946159f07d0f7","6617fad957f7c6a12ea16e26","6622cf6b540afcab7fc7abfc","pre-experimental_briefing"," ","","","","","","","","","","","",""
"","null","html-keyboard-response","90","129675","0.0-11.0-0.0","jBahbwUlSg","66226d60cef946159f07d0f7","6617fad957f7c6a12ea16e26","6622cf6b540afcab7fc7abfc","fixation cross","null","","","","","","","","","","","",""
"","1970","html-keyboard-response","91","131646","0.0-11.0-1.0","jBahbwUlSg","66226d60cef946159f07d0f7","6617fad957f7c6a12ea16e26","6622cf6b540afcab7fc7abfc","image grid","p","","","","","Phylogenetic_Distractor_Nonthreat_target","2500","ongrid","p","8","Phylogenetic","true","experimental"
"","null","html-keyboard-response","92","131797","0.0-11.0-2.0","jBahbwUlSg","66226d60cef946159f07d0f7","6617fad957f7c6a12ea16e26","6622cf6b540afcab7fc7abfc","
    <div id=""grid-container"">
        <!-- Grid items will be dynamically added here -->
    </div>    ","null","","","","","","","","","","","",""
"","null","html-keyboard-response","93","132501","0.0-11.0-0.1","jBahbwUlSg","66226d60cef946159f07d0f7","6617fad957f7c6a12ea16e26","6622cf6b540afcab7fc7abfc","fixation cross","null","","","","","","","","","","","",""
"","919","html-keyboard-response","94","133420","0.0-11.0-1.1","jBahbwUlSg","66226d60cef946159f07d0f7","6617fad957f7c6a12ea16e26","6622cf6b540afcab7fc7abfc","image grid","q","","","","","Phylogenetic_Distractor_Threat_target","2500","ongrid","q","1","Phylogenetic","true","experimental"
"","null","html-keyboard-response","95","133572","0.0-11.0-2.1","jBahbwUlSg","66226d60cef946159f07d0f7","6617fad957f7c6a12ea16e26","6622cf6b540afcab7fc7abfc","
    <div id=""grid-container"">
        <!-- Grid items will be dynamically added here -->
    </div>    ","null","","","","","","","","","","","",""
"","null","html-keyboard-response","96","134275","0.0-11.0-0.2","jBahbwUlSg","66226d60cef946159f07d0f7","6617fad957f7c6a12ea16e26","6622cf6b540afcab7fc7abfc","fixation cross","null","","","","","","","","","","","",""
"","1804","html-keyboard-response","97","136079","0.0-11.0-1.2","jBahbwUlSg","66226d60cef946159f07d0f7","6617fad957f7c6a12ea16e26","6622cf6b540afcab7fc7abfc","image grid","p","","","","","Phylogenetic_Distractor_Nonthreat_target","2500","ongrid","p","9","Phylogenetic","true","experimental"
"","null","html-keyboard-response","98","136231","0.0-11.0-2.2","jBahbwUlSg","66226d60cef946159f07d0f7","6617fad957f7c6a12ea16e26","6622cf6b540afcab7fc7abfc","
    <div id=""grid-container"">
        <!-- Grid items will be dynamically added here -->
    </div>    ","null","","","","","","","","","","","",""
"","null","html-keyboard-response","99","136934","0.0-11.0-0.3","jBahbwUlSg","66226d60cef946159f07d0f7","6617fad957f7c6a12ea16e26","6622cf6b540afcab7fc7abfc","fixation cross","null","","","","","","","","","","","",""
"","1020","html-keyboard-response","100","137955","0.0-11.0-1.3","jBahbwUlSg","66226d60cef946159f07d0f7","6617fad957f7c6a12ea16e26","6622cf6b540afcab7fc7abfc","image grid","q","","","","","Phylogenetic_Distractor_Threat_target","2500","ongrid","q","8","Phylogenetic","true","experimental"
"","null","html-keyboard-response","101","138108","0.0-11.0-2.3","jBahbwUlSg","66226d60cef946159f07d0f7","6617fad957f7c6a12ea16e26","6622cf6b540afcab7fc7abfc","
    <div id=""grid-container"">
        <!-- Grid items will be dynamically added here -->
    </div>    ","null","","","","","","","","","","","",""
"","null","html-keyboard-response","102","138809","0.0-11.0-0.4","jBahbwUlSg","66226d60cef946159f07d0f7","6617fad957f7c6a12ea16e26","6622cf6b540afcab7fc7abfc","fixation cross","null","","","","","","","","","","","",""
"","1824","html-keyboard-response","103","140634","0.0-11.0-1.4","jBahbwUlSg","66226d60cef946159f07d0f7","6617fad957f7c6a12ea16e26","6622cf6b540afcab7fc7abfc","image grid","p","","","","","Phylogenetic_Distractor_Nonthreat_target","2500","ongrid","p","7","Phylogenetic","true","experimental"
"","null","html-keyboard-response","104","140786","0.0-11.0-2.4","jBahbwUlSg","66226d60cef946159f07d0f7","6617fad957f7c6a12ea16e26","6622cf6b540afcab7fc7abfc","
    <div id=""grid-container"">
        <!-- Grid items will be dynamically added here -->
    </div>    ","null","","","","","","","","","","","",""
"","null","html-keyboard-response","105","141490","0.0-11.0-0.5","jBahbwUlSg","66226d60cef946159f07d0f7","6617fad957f7c6a12ea16e26","6622cf6b540afcab7fc7abfc","fixation cross","null","","","","","","","","","","","",""
"","1145","html-keyboard-response","106","142635","0.0-11.0-1.5","jBahbwUlSg","66226d60cef946159f07d0f7","6617fad957f7c6a12ea16e26","6622cf6b540afcab7fc7abfc","image grid","p","","","","","Phylogenetic_Distractor_Nonthreat_target","2500","ongrid","p","6","Phylogenetic","true","experimental"
"","null","html-keyboard-response","107","142787","0.0-11.0-2.5","jBahbwUlSg","66226d60cef946159f07d0f7","6617fad957f7c6a12ea16e26","6622cf6b540afcab7fc7abfc","
    <div id=""grid-container"">
        <!-- Grid items will be dynamically added here -->
    </div>    ","null","","","","","","","","","","","",""
"","null","html-keyboard-response","108","143490","0.0-11.0-0.6","jBahbwUlSg","66226d60cef946159f07d0f7","6617fad957f7c6a12ea16e26","6622cf6b540afcab7fc7abfc","fixation cross","null","","","","","","","","","","","",""
"","2107","html-keyboard-response","109","145598","0.0-11.0-1.6","jBahbwUlSg","66226d60cef946159f07d0f7","6617fad957f7c6a12ea16e26","6622cf6b540afcab7fc7abfc","image grid","q","","","","","Phylogenetic_Distractor_Nonthreat_target","2500","ongrid","p","4","Phylogenetic","false","experimental"
"","null","html-keyboard-response","110","145750","0.0-11.0-2.6","jBahbwUlSg","66226d60cef946159f07d0f7","6617fad957f7c6a12ea16e26","6622cf6b540afcab7fc7abfc","
    <div id=""grid-container"">
        <!-- Grid items will be dynamically added here -->
    </div>    ","null","","","","","","","","","","","",""
"","null","html-keyboard-response","111","146454","0.0-11.0-0.7","jBahbwUlSg","66226d60cef946159f07d0f7","6617fad957f7c6a12ea16e26","6622cf6b540afcab7fc7abfc","fixation cross","null","","","","","","","","","","","",""
"","694","html-keyboard-response","112","147149","0.0-11.0-1.7","jBahbwUlSg","66226d60cef946159f07d0f7","6617fad957f7c6a12ea16e26","6622cf6b540afcab7fc7abfc","image grid","q","","","","","Phylogenetic_Distractor_Threat_target","2500","ongrid","q","4","Phylogenetic","true","experimental"
"","null","html-keyboard-response","113","147302","0.0-11.0-2.7","jBahbwUlSg","66226d60cef946159f07d0f7","6617fad957f7c6a12ea16e26","6622cf6b540afcab7fc7abfc","
    <div id=""grid-container"">
        <!-- Grid items will be dynamically added here -->
    </div>    ","null","","","","","","","","","","","",""
"","null","html-keyboard-response","114","148003","0.0-11.0-0.8","jBahbwUlSg","66226d60cef946159f07d0f7","6617fad957f7c6a12ea16e26","6622cf6b540afcab7fc7abfc","fixation cross","null","","","","","","","","","","","",""
"","1595","html-keyboard-response","115","149599","0.0-11.0-1.8","jBahbwUlSg","66226d60cef946159f07d0f7","6617fad957f7c6a12ea16e26","6622cf6b540afcab7fc7abfc","image grid","p","","","","","Phylogenetic_Distractor_Nonthreat_target","2500","ongrid","p","4","Phylogenetic","true","experimental"
"","null","html-keyboard-response","116","149751","0.0-11.0-2.8","jBahbwUlSg","66226d60cef946159f07d0f7","6617fad957f7c6a12ea16e26","6622cf6b540afcab7fc7abfc","
    <div id=""grid-container"">
        <!-- Grid items will be dynamically added here -->
    </div>    ","null","","","","","","","","","","","",""
"","null","html-keyboard-response","117","150453","0.0-11.0-0.9","jBahbwUlSg","66226d60cef946159f07d0f7","6617fad957f7c6a12ea16e26","6622cf6b540afcab7fc7abfc","fixation cross","null","","","","","","","","","","","",""
"","951","html-keyboard-response","118","151405","0.0-11.0-1.9","jBahbwUlSg","66226d60cef946159f07d0f7","6617fad957f7c6a12ea16e26","6622cf6b540afcab7fc7abfc","image grid","p","","","","","Phylogenetic_Distractor_Nonthreat_target","2500","ongrid","p","4","Phylogenetic","true","experimental"
"","null","html-keyboard-response","119","151557","0.0-11.0-2.9","jBahbwUlSg","66226d60cef946159f07d0f7","6617fad957f7c6a12ea16e26","6622cf6b540afcab7fc7abfc","
    <div id=""grid-container"">
        <!-- Grid items will be dynamically added here -->
    </div>    ","null","","","","","","","","","","","",""
"","null","html-keyboard-response","120","152261","0.0-11.0-0.10","jBahbwUlSg","66226d60cef946159f07d0f7","6617fad957f7c6a12ea16e26","6622cf6b540afcab7fc7abfc","fixation cross","null","","","","","","","","","","","",""
"","1867","html-keyboard-response","121","154128","0.0-11.0-1.10","jBahbwUlSg","66226d60cef946159f07d0f7","6617fad957f7c6a12ea16e26","6622cf6b540afcab7fc7abfc","image grid","q","","","","","Phylogenetic_Distractor_Threat_target","2500","ongrid","q","2","Phylogenetic","true","experimental"
"","null","html-keyboard-response","122","154281","0.0-11.0-2.10","jBahbwUlSg","66226d60cef946159f07d0f7","6617fad957f7c6a12ea16e26","6622cf6b540afcab7fc7abfc","
    <div id=""grid-container"">
        <!-- Grid items will be dynamically added here -->
    </div>    ","null","","","","","","","","","","","",""
"","null","html-keyboard-response","123","154985","0.0-11.0-0.11","jBahbwUlSg","66226d60cef946159f07d0f7","6617fad957f7c6a12ea16e26","6622cf6b540afcab7fc7abfc","fixation cross","null","","","","","","","","","","","",""
"","1944","html-keyboard-response","124","156929","0.0-11.0-1.11","jBahbwUlSg","66226d60cef946159f07d0f7","6617fad957f7c6a12ea16e26","6622cf6b540afcab7fc7abfc","image grid","q","","","","","Phylogenetic_Distractor_Threat_target","2500","ongrid","q","7","Phylogenetic","true","experimental"
"","null","html-keyboard-response","125","157081","0.0-11.0-2.11","jBahbwUlSg","66226d60cef946159f07d0f7","6617fad957f7c6a12ea16e26","6622cf6b540afcab7fc7abfc","
    <div id=""grid-container"">
        <!-- Grid items will be dynamically added here -->
    </div>    ","null","","","","","","","","","","","",""
"","null","html-keyboard-response","126","157784","0.0-11.0-0.12","jBahbwUlSg","66226d60cef946159f07d0f7","6617fad957f7c6a12ea16e26","6622cf6b540afcab7fc7abfc","fixation cross","null","","","","","","","","","","","",""
"","1151","html-keyboard-response","127","158935","0.0-11.0-1.12","jBahbwUlSg","66226d60cef946159f07d0f7","6617fad957f7c6a12ea16e26","6622cf6b540afcab7fc7abfc","image grid","p","","","","","Phylogenetic_Distractor_Nonthreat_target","2500","ongrid","p","7","Phylogenetic","true","experimental"
"","null","html-keyboard-response","128","159087","0.0-11.0-2.12","jBahbwUlSg","66226d60cef946159f07d0f7","6617fad957f7c6a12ea16e26","6622cf6b540afcab7fc7abfc","
    <div id=""grid-container"">
        <!-- Grid items will be dynamically added here -->
    </div>    ","null","","","","","","","","","","","",""
"","null","html-keyboard-response","129","159789","0.0-11.0-0.13","jBahbwUlSg","66226d60cef946159f07d0f7","6617fad957f7c6a12ea16e26","6622cf6b540afcab7fc7abfc","fixation cross","null","","","","","","","","","","","",""
"","2405","html-keyboard-response","130","162195","0.0-11.0-1.13","jBahbwUlSg","66226d60cef946159f07d0f7","6617fad957f7c6a12ea16e26","6622cf6b540afcab7fc7abfc","image grid"," ","","","","","Phylogenetic_Distractor_notarget","2500","ongrid"," ","9","Phylogenetic","true","experimental"
"","null","html-keyboard-response","131","162346","0.0-11.0-2.13","jBahbwUlSg","66226d60cef946159f07d0f7","6617fad957f7c6a12ea16e26","6622cf6b540afcab7fc7abfc","
    <div id=""grid-container"">
        <!-- Grid items will be dynamically added here -->
    </div>    ","null","","","","","","","","","","","",""
"","null","html-keyboard-response","132","163050","0.0-11.0-0.14","jBahbwUlSg","66226d60cef946159f07d0f7","6617fad957f7c6a12ea16e26","6622cf6b540afcab7fc7abfc","fixation cross","null","","","","","","","","","","","",""
"","820","html-keyboard-response","133","163871","0.0-11.0-1.14","jBahbwUlSg","66226d60cef946159f07d0f7","6617fad957f7c6a12ea16e26","6622cf6b540afcab7fc7abfc","image grid","q","","","","","Phylogenetic_Distractor_Threat_target","2500","ongrid","q","6","Phylogenetic","true","experimental"
"","null","html-keyboard-response","134","164023","0.0-11.0-2.14","jBahbwUlSg","66226d60cef946159f07d0f7","6617fad957f7c6a12ea16e26","6622cf6b540afcab7fc7abfc","
    <div id=""grid-container"">
        <!-- Grid items will be dynamically added here -->
    </div>    ","null","","","","","","","","","","","",""
"","null","html-keyboard-response","135","164726","0.0-11.0-0.15","jBahbwUlSg","66226d60cef946159f07d0f7","6617fad957f7c6a12ea16e26","6622cf6b540afcab7fc7abfc","fixation cross","null","","","","","","","","","","","",""
"","2341","html-keyboard-response","136","167067","0.0-11.0-1.15","jBahbwUlSg","66226d60cef946159f07d0f7","6617fad957f7c6a12ea16e26","6622cf6b540afcab7fc7abfc","image grid"," ","","","","","Phylogenetic_Distractor_notarget","2500","ongrid"," ","1","Phylogenetic","true","experimental"
"","null","html-keyboard-response","137","167219","0.0-11.0-2.15","jBahbwUlSg","66226d60cef946159f07d0f7","6617fad957f7c6a12ea16e26","6622cf6b540afcab7fc7abfc","
    <div id=""grid-container"">
        <!-- Grid items will be dynamically added here -->
    </div>    ","null","","","","","","","","","","","",""
"","null","html-keyboard-response","138","167921","0.0-11.0-0.16","jBahbwUlSg","66226d60cef946159f07d0f7","6617fad957f7c6a12ea16e26","6622cf6b540afcab7fc7abfc","fixation cross","null","","","","","","","","","","","",""
"","1109","html-keyboard-response","139","169031","0.0-11.0-1.16","jBahbwUlSg","66226d60cef946159f07d0f7","6617fad957f7c6a12ea16e26","6622cf6b540afcab7fc7abfc","image grid","p","","","","","Phylogenetic_Distractor_Nonthreat_target","2500","ongrid","p","1","Phylogenetic","true","experimental"
"","null","html-keyboard-response","140","169183","0.0-11.0-2.16","jBahbwUlSg","66226d60cef946159f07d0f7","6617fad957f7c6a12ea16e26","6622cf6b540afcab7fc7abfc","
    <div id=""grid-container"">
        <!-- Grid items will be dynamically added here -->
    </div>    ","null","","","","","","","","","","","",""
"","null","html-keyboard-response","141","169886","0.0-11.0-0.17","jBahbwUlSg","66226d60cef946159f07d0f7","6617fad957f7c6a12ea16e26","6622cf6b540afcab7fc7abfc","fixation cross","null","","","","","","","","","","","",""
"","1043","html-keyboard-response","142","170930","0.0-11.0-1.17","jBahbwUlSg","66226d60cef946159f07d0f7","6617fad957f7c6a12ea16e26","6622cf6b540afcab7fc7abfc","image grid","q","","","","","Phylogenetic_Distractor_Threat_target","2500","ongrid","q","3","Phylogenetic","true","experimental"
"","null","html-keyboard-response","143","171082","0.0-11.0-2.17","jBahbwUlSg","66226d60cef946159f07d0f7","6617fad957f7c6a12ea16e26","6622cf6b540afcab7fc7abfc","
    <div id=""grid-container"">
        <!-- Grid items will be dynamically added here -->
    </div>    ","null","","","","","","","","","","","",""
"","null","html-keyboard-response","144","171784","0.0-11.0-0.18","jBahbwUlSg","66226d60cef946159f07d0f7","6617fad957f7c6a12ea16e26","6622cf6b540afcab7fc7abfc","fixation cross","null","","","","","","","","","","","",""
"","1129","html-keyboard-response","145","172913","0.0-11.0-1.18","jBahbwUlSg","66226d60cef946159f07d0f7","6617fad957f7c6a12ea16e26","6622cf6b540afcab7fc7abfc","image grid","p","","","","","Phylogenetic_Distractor_Nonthreat_target","2500","ongrid","p","3","Phylogenetic","true","experimental"
"","null","html-keyboard-response","146","173066","0.0-11.0-2.18","jBahbwUlSg","66226d60cef946159f07d0f7","6617fad957f7c6a12ea16e26","6622cf6b540afcab7fc7abfc","
    <div id=""grid-container"">
        <!-- Grid items will be dynamically added here -->
    </div>    ","null","","","","","","","","","","","",""
"","null","html-keyboard-response","147","173770","0.0-11.0-0.19","jBahbwUlSg","66226d60cef946159f07d0f7","6617fad957f7c6a12ea16e26","6622cf6b540afcab7fc7abfc","fixation cross","null","","","","","","","","","","","",""
"","934","html-keyboard-response","148","174704","0.0-11.0-1.19","jBahbwUlSg","66226d60cef946159f07d0f7","6617fad957f7c6a12ea16e26","6622cf6b540afcab7fc7abfc","image grid","p","","","","","Phylogenetic_Distractor_Nonthreat_target","2500","ongrid","p","1","Phylogenetic","true","experimental"
"","null","html-keyboard-response","149","174856","0.0-11.0-2.19","jBahbwUlSg","66226d60cef946159f07d0f7","6617fad957f7c6a12ea16e26","6622cf6b540afcab7fc7abfc","
    <div id=""grid-container"">
        <!-- Grid items will be dynamically added here -->
    </div>    ","null","","","","","","","","","","","",""
"","null","html-keyboard-response","150","175559","0.0-11.0-0.20","jBahbwUlSg","66226d60cef946159f07d0f7","6617fad957f7c6a12ea16e26","6622cf6b540afcab7fc7abfc","fixation cross","null","","","","","","","","","","","",""
"","null","html-keyboard-response","151","178061","0.0-11.0-1.20","jBahbwUlSg","66226d60cef946159f07d0f7","6617fad957f7c6a12ea16e26","6622cf6b540afcab7fc7abfc","
        <div id=""grid-container"">
        <!-- Grid items will be dynamically added here -->
    </div>    ","null","","","","","","","","","","","",""
"","2622","html-keyboard-response","152","178183","0.0-11.0-2.20","jBahbwUlSg","66226d60cef946159f07d0f7","6617fad957f7c6a12ea16e26","6622cf6b540afcab7fc7abfc","mask grid","p","","","","","Phylogenetic_Distractor_Nonthreat_target","2500","onmask","p","8","Phylogenetic","true","experimental"
"","null","html-keyboard-response","153","178887","0.0-11.0-0.21","jBahbwUlSg","66226d60cef946159f07d0f7","6617fad957f7c6a12ea16e26","6622cf6b540afcab7fc7abfc","fixation cross","null","","","","","","","","","","","",""
"","1539","html-keyboard-response","154","180426","0.0-11.0-1.21","jBahbwUlSg","66226d60cef946159f07d0f7","6617fad957f7c6a12ea16e26","6622cf6b540afcab7fc7abfc","image grid","p","","","","","Phylogenetic_Distractor_Nonthreat_target","2500","ongrid","p","7","Phylogenetic","true","experimental"
"","null","html-keyboard-response","155","180577","0.0-11.0-2.21","jBahbwUlSg","66226d60cef946159f07d0f7","6617fad957f7c6a12ea16e26","6622cf6b540afcab7fc7abfc","
    <div id=""grid-container"">
        <!-- Grid items will be dynamically added here -->
    </div>    ","null","","","","","","","","","","","",""
"","null","html-keyboard-response","156","181281","0.0-11.0-0.22","jBahbwUlSg","66226d60cef946159f07d0f7","6617fad957f7c6a12ea16e26","6622cf6b540afcab7fc7abfc","fixation cross","null","","","","","","","","","","","",""
"","1493","html-keyboard-response","157","182774","0.0-11.0-1.22","jBahbwUlSg","66226d60cef946159f07d0f7","6617fad957f7c6a12ea16e26","6622cf6b540afcab7fc7abfc","image grid","q","","","","","Phylogenetic_Distractor_Threat_target","2500","ongrid","q","9","Phylogenetic","true","experimental"
"","null","html-keyboard-response","158","182927","0.0-11.0-2.22","jBahbwUlSg","66226d60cef946159f07d0f7","6617fad957f7c6a12ea16e26","6622cf6b540afcab7fc7abfc","
    <div id=""grid-container"">
        <!-- Grid items will be dynamically added here -->
    </div>    ","null","","","","","","","","","","","",""
"","null","html-keyboard-response","159","183630","0.0-11.0-0.23","jBahbwUlSg","66226d60cef946159f07d0f7","6617fad957f7c6a12ea16e26","6622cf6b540afcab7fc7abfc","fixation cross","null","","","","","","","","","","","",""
"","1414","html-keyboard-response","160","185045","0.0-11.0-1.23","jBahbwUlSg","66226d60cef946159f07d0f7","6617fad957f7c6a12ea16e26","6622cf6b540afcab7fc7abfc","image grid","p","","","","","Phylogenetic_Distractor_Nonthreat_target","2500","ongrid","p","5","Phylogenetic","true","experimental"
"","null","html-keyboard-response","161","185197","0.0-11.0-2.23","jBahbwUlSg","66226d60cef946159f07d0f7","6617fad957f7c6a12ea16e26","6622cf6b540afcab7fc7abfc","
    <div id=""grid-container"">
        <!-- Grid items will be dynamically added here -->
    </div>    ","null","","","","","","","","","","","",""
"","null","html-keyboard-response","162","185900","0.0-11.0-0.24","jBahbwUlSg","66226d60cef946159f07d0f7","6617fad957f7c6a12ea16e26","6622cf6b540afcab7fc7abfc","fixation cross","null","","","","","","","","","","","",""
"","1674","html-keyboard-response","163","187574","0.0-11.0-1.24","jBahbwUlSg","66226d60cef946159f07d0f7","6617fad957f7c6a12ea16e26","6622cf6b540afcab7fc7abfc","image grid","p","","","","","Phylogenetic_Distractor_Nonthreat_target","2500","ongrid","p","9","Phylogenetic","true","experimental"
"","null","html-keyboard-response","164","187727","0.0-11.0-2.24","jBahbwUlSg","66226d60cef946159f07d0f7","6617fad957f7c6a12ea16e26","6622cf6b540afcab7fc7abfc","
    <div id=""grid-container"">
        <!-- Grid items will be dynamically added here -->
    </div>    ","null","","","","","","","","","","","",""
"","null","html-keyboard-response","165","188430","0.0-11.0-0.25","jBahbwUlSg","66226d60cef946159f07d0f7","6617fad957f7c6a12ea16e26","6622cf6b540afcab7fc7abfc","fixation cross","null","","","","","","","","","","","",""
"","866","html-keyboard-response","166","189296","0.0-11.0-1.25","jBahbwUlSg","66226d60cef946159f07d0f7","6617fad957f7c6a12ea16e26","6622cf6b540afcab7fc7abfc","image grid","p","","","","","Phylogenetic_Distractor_Nonthreat_target","2500","ongrid","p","5","Phylogenetic","true","experimental"
"","null","html-keyboard-response","167","189448","0.0-11.0-2.25","jBahbwUlSg","66226d60cef946159f07d0f7","6617fad957f7c6a12ea16e26","6622cf6b540afcab7fc7abfc","
    <div id=""grid-container"">
        <!-- Grid items will be dynamically added here -->
    </div>    ","null","","","","","","","","","","","",""
"","null","html-keyboard-response","168","190152","0.0-11.0-0.26","jBahbwUlSg","66226d60cef946159f07d0f7","6617fad957f7c6a12ea16e26","6622cf6b540afcab7fc7abfc","fixation cross","null","","","","","","","","","","","",""
"","891","html-keyboard-response","169","191044","0.0-11.0-1.26","jBahbwUlSg","66226d60cef946159f07d0f7","6617fad957f7c6a12ea16e26","6622cf6b540afcab7fc7abfc","image grid","q","","","","","Phylogenetic_Distractor_Threat_target","2500","ongrid","q","8","Phylogenetic","true","experimental"
"","null","html-keyboard-response","170","191195","0.0-11.0-2.26","jBahbwUlSg","66226d60cef946159f07d0f7","6617fad957f7c6a12ea16e26","6622cf6b540afcab7fc7abfc","
    <div id=""grid-container"">
        <!-- Grid items will be dynamically added here -->
    </div>    ","null","","","","","","","","","","","",""
"","null","html-keyboard-response","171","191899","0.0-11.0-0.27","jBahbwUlSg","66226d60cef946159f07d0f7","6617fad957f7c6a12ea16e26","6622cf6b540afcab7fc7abfc","fixation cross","null","","","","","","","","","","","",""
"","2067","html-keyboard-response","172","193966","0.0-11.0-1.27","jBahbwUlSg","66226d60cef946159f07d0f7","6617fad957f7c6a12ea16e26","6622cf6b540afcab7fc7abfc","image grid"," ","","","","","Phylogenetic_Distractor_notarget","2500","ongrid"," ","5","Phylogenetic","true","experimental"
"","null","html-keyboard-response","173","194117","0.0-11.0-2.27","jBahbwUlSg","66226d60cef946159f07d0f7","6617fad957f7c6a12ea16e26","6622cf6b540afcab7fc7abfc","
    <div id=""grid-container"">
        <!-- Grid items will be dynamically added here -->
    </div>    ","null","","","","","","","","","","","",""
"","null","html-keyboard-response","174","194821","0.0-11.0-0.28","jBahbwUlSg","66226d60cef946159f07d0f7","6617fad957f7c6a12ea16e26","6622cf6b540afcab7fc7abfc","fixation cross","null","","","","","","","","","","","",""
"","857","html-keyboard-response","175","195679","0.0-11.0-1.28","jBahbwUlSg","66226d60cef946159f07d0f7","6617fad957f7c6a12ea16e26","6622cf6b540afcab7fc7abfc","image grid","q","","","","","Phylogenetic_Distractor_Threat_target","2500","ongrid","q","6","Phylogenetic","true","experimental"
"","null","html-keyboard-response","176","195830","0.0-11.0-2.28","jBahbwUlSg","66226d60cef946159f07d0f7","6617fad957f7c6a12ea16e26","6622cf6b540afcab7fc7abfc","
    <div id=""grid-container"">
        <!-- Grid items will be dynamically added here -->
    </div>    ","null","","","","","","","","","","","",""
"","null","html-keyboard-response","177","196533","0.0-11.0-0.29","jBahbwUlSg","66226d60cef946159f07d0f7","6617fad957f7c6a12ea16e26","6622cf6b540afcab7fc7abfc","fixation cross","null","","","","","","","","","","","",""
"","969","html-keyboard-response","178","197502","0.0-11.0-1.29","jBahbwUlSg","66226d60cef946159f07d0f7","6617fad957f7c6a12ea16e26","6622cf6b540afcab7fc7abfc","image grid","q","","","","","Phylogenetic_Distractor_Threat_target","2500","ongrid","q","9","Phylogenetic","true","experimental"
"","null","html-keyboard-response","179","197653","0.0-11.0-2.29","jBahbwUlSg","66226d60cef946159f07d0f7","6617fad957f7c6a12ea16e26","6622cf6b540afcab7fc7abfc","
    <div id=""grid-container"">
        <!-- Grid items will be dynamically added here -->
    </div>    ","null","","","","","","","","","","","",""
"","null","html-keyboard-response","180","198357","0.0-11.0-0.30","jBahbwUlSg","66226d60cef946159f07d0f7","6617fad957f7c6a12ea16e26","6622cf6b540afcab7fc7abfc","fixation cross","null","","","","","","","","","","","",""
"","778","html-keyboard-response","181","199135","0.0-11.0-1.30","jBahbwUlSg","66226d60cef946159f07d0f7","6617fad957f7c6a12ea16e26","6622cf6b540afcab7fc7abfc","image grid","q","","","","","Phylogenetic_Distractor_Threat_target","2500","ongrid","q","4","Phylogenetic","true","experimental"
"","null","html-keyboard-response","182","199287","0.0-11.0-2.30","jBahbwUlSg","66226d60cef946159f07d0f7","6617fad957f7c6a12ea16e26","6622cf6b540afcab7fc7abfc","
    <div id=""grid-container"">
        <!-- Grid items will be dynamically added here -->
    </div>    ","null","","","","","","","","","","","",""
"","null","html-keyboard-response","183","199989","0.0-11.0-0.31","jBahbwUlSg","66226d60cef946159f07d0f7","6617fad957f7c6a12ea16e26","6622cf6b540afcab7fc7abfc","fixation cross","null","","","","","","","","","","","",""
"","673","html-keyboard-response","184","200663","0.0-11.0-1.31","jBahbwUlSg","66226d60cef946159f07d0f7","6617fad957f7c6a12ea16e26","6622cf6b540afcab7fc7abfc","image grid","q","","","","","Phylogenetic_Distractor_Threat_target","2500","ongrid","q","9","Phylogenetic","true","experimental"
"","null","html-keyboard-response","185","200813","0.0-11.0-2.31","jBahbwUlSg","66226d60cef946159f07d0f7","6617fad957f7c6a12ea16e26","6622cf6b540afcab7fc7abfc","
    <div id=""grid-container"">
        <!-- Grid items will be dynamically added here -->
    </div>    ","null","","","","","","","","","","","",""
"","null","html-keyboard-response","186","201517","0.0-11.0-0.32","jBahbwUlSg","66226d60cef946159f07d0f7","6617fad957f7c6a12ea16e26","6622cf6b540afcab7fc7abfc","fixation cross","null","","","","","","","","","","","",""
"","1490","html-keyboard-response","187","203007","0.0-11.0-1.32","jBahbwUlSg","66226d60cef946159f07d0f7","6617fad957f7c6a12ea16e26","6622cf6b540afcab7fc7abfc","image grid","p","","","","","Phylogenetic_Distractor_Nonthreat_target","2500","ongrid","p","1","Phylogenetic","true","experimental"
"","null","html-keyboard-response","188","203158","0.0-11.0-2.32","jBahbwUlSg","66226d60cef946159f07d0f7","6617fad957f7c6a12ea16e26","6622cf6b540afcab7fc7abfc","
    <div id=""grid-container"">
        <!-- Grid items will be dynamically added here -->
    </div>    ","null","","","","","","","","","","","",""
"","null","html-keyboard-response","189","203862","0.0-11.0-0.33","jBahbwUlSg","66226d60cef946159f07d0f7","6617fad957f7c6a12ea16e26","6622cf6b540afcab7fc7abfc","fixation cross","null","","","","","","","","","","","",""
"","null","html-keyboard-response","190","206363","0.0-11.0-1.33","jBahbwUlSg","66226d60cef946159f07d0f7","6617fad957f7c6a12ea16e26","6622cf6b540afcab7fc7abfc","
        <div id=""grid-container"">
        <!-- Grid items will be dynamically added here -->
    </div>    ","null","","","","","","","","","","","",""
"","2568","html-keyboard-response","191","206432","0.0-11.0-2.33","jBahbwUlSg","66226d60cef946159f07d0f7","6617fad957f7c6a12ea16e26","6622cf6b540afcab7fc7abfc","mask grid"," ","","","","","Phylogenetic_Distractor_notarget","2500","onmask"," ","5","Phylogenetic","true","experimental"
"","null","html-keyboard-response","192","207136","0.0-11.0-0.34","jBahbwUlSg","66226d60cef946159f07d0f7","6617fad957f7c6a12ea16e26","6622cf6b540afcab7fc7abfc","fixation cross","null","","","","","","","","","","","",""
"","682","html-keyboard-response","193","207819","0.0-11.0-1.34","jBahbwUlSg","66226d60cef946159f07d0f7","6617fad957f7c6a12ea16e26","6622cf6b540afcab7fc7abfc","image grid","q","","","","","Phylogenetic_Distractor_Threat_target","2500","ongrid","q","4","Phylogenetic","true","experimental"
"","null","html-keyboard-response","194","207970","0.0-11.0-2.34","jBahbwUlSg","66226d60cef946159f07d0f7","6617fad957f7c6a12ea16e26","6622cf6b540afcab7fc7abfc","
    <div id=""grid-container"">
        <!-- Grid items will be dynamically added here -->
    </div>    ","null","","","","","","","","","","","",""
"","null","html-keyboard-response","195","208673","0.0-11.0-0.35","jBahbwUlSg","66226d60cef946159f07d0f7","6617fad957f7c6a12ea16e26","6622cf6b540afcab7fc7abfc","fixation cross","null","","","","","","","","","","","",""
"","549","html-keyboard-response","196","209222","0.0-11.0-1.35","jBahbwUlSg","66226d60cef946159f07d0f7","6617fad957f7c6a12ea16e26","6622cf6b540afcab7fc7abfc","image grid","q","","","","","Phylogenetic_Distractor_Threat_target","2500","ongrid","q","4","Phylogenetic","true","experimental"
"","null","html-keyboard-response","197","209374","0.0-11.0-2.35","jBahbwUlSg","66226d60cef946159f07d0f7","6617fad957f7c6a12ea16e26","6622cf6b540afcab7fc7abfc","
    <div id=""grid-container"">
        <!-- Grid items will be dynamically added here -->
    </div>    ","null","","","","","","","","","","","",""
"","null","html-keyboard-response","198","210078","0.0-11.0-0.36","jBahbwUlSg","66226d60cef946159f07d0f7","6617fad957f7c6a12ea16e26","6622cf6b540afcab7fc7abfc","fixation cross","null","","","","","","","","","","","",""
"","937","html-keyboard-response","199","211015","0.0-11.0-1.36","jBahbwUlSg","66226d60cef946159f07d0f7","6617fad957f7c6a12ea16e26","6622cf6b540afcab7fc7abfc","image grid","q","","","","","Phylogenetic_Distractor_Threat_target","2500","ongrid","q","3","Phylogenetic","true","experimental"
"","null","html-keyboard-response","200","211167","0.0-11.0-2.36","jBahbwUlSg","66226d60cef946159f07d0f7","6617fad957f7c6a12ea16e26","6622cf6b540afcab7fc7abfc","
    <div id=""grid-container"">
        <!-- Grid items will be dynamically added here -->
    </div>    ","null","","","","","","","","","","","",""
"","null","html-keyboard-response","201","211871","0.0-11.0-0.37","jBahbwUlSg","66226d60cef946159f07d0f7","6617fad957f7c6a12ea16e26","6622cf6b540afcab7fc7abfc","fixation cross","null","","","","","","","","","","","",""
"","708","html-keyboard-response","202","212579","0.0-11.0-1.37","jBahbwUlSg","66226d60cef946159f07d0f7","6617fad957f7c6a12ea16e26","6622cf6b540afcab7fc7abfc","image grid","q","","","","","Phylogenetic_Distractor_Threat_target","2500","ongrid","q","9","Phylogenetic","true","experimental"
"","null","html-keyboard-response","203","212732","0.0-11.0-2.37","jBahbwUlSg","66226d60cef946159f07d0f7","6617fad957f7c6a12ea16e26","6622cf6b540afcab7fc7abfc","
    <div id=""grid-container"">
        <!-- Grid items will be dynamically added here -->
    </div>    ","null","","","","","","","","","","","",""
"","null","html-keyboard-response","204","213434","0.0-11.0-0.38","jBahbwUlSg","66226d60cef946159f07d0f7","6617fad957f7c6a12ea16e26","6622cf6b540afcab7fc7abfc","fixation cross","null","","","","","","","","","","","",""
"","1380","html-keyboard-response","205","214815","0.0-11.0-1.38","jBahbwUlSg","66226d60cef946159f07d0f7","6617fad957f7c6a12ea16e26","6622cf6b540afcab7fc7abfc","image grid","q","","","","","Phylogenetic_Distractor_Threat_target","2500","ongrid","q","5","Phylogenetic","true","experimental"
"","null","html-keyboard-response","206","214967","0.0-11.0-2.38","jBahbwUlSg","66226d60cef946159f07d0f7","6617fad957f7c6a12ea16e26","6622cf6b540afcab7fc7abfc","
    <div id=""grid-container"">
        <!-- Grid items will be dynamically added here -->
    </div>    ","null","","","","","","","","","","","",""
"","null","html-keyboard-response","207","215670","0.0-11.0-0.39","jBahbwUlSg","66226d60cef946159f07d0f7","6617fad957f7c6a12ea16e26","6622cf6b540afcab7fc7abfc","fixation cross","null","","","","","","","","","","","",""
"","833","html-keyboard-response","208","216503","0.0-11.0-1.39","jBahbwUlSg","66226d60cef946159f07d0f7","6617fad957f7c6a12ea16e26","6622cf6b540afcab7fc7abfc","image grid","p","","","","","Phylogenetic_Distractor_Nonthreat_target","2500","ongrid","p","4","Phylogenetic","true","experimental"
"","null","html-keyboard-response","209","216655","0.0-11.0-2.39","jBahbwUlSg","66226d60cef946159f07d0f7","6617fad957f7c6a12ea16e26","6622cf6b540afcab7fc7abfc","
    <div id=""grid-container"">
        <!-- Grid items will be dynamically added here -->
    </div>    ","null","","","","","","","","","","","",""
"","3982","html-keyboard-response","210","220865","0.0-12.0","jBahbwUlSg","66226d60cef946159f07d0f7","6617fad957f7c6a12ea16e26","6622cf6b540afcab7fc7abfc","break screen"," ","","","","","","","","","","","",""
"","null","html-keyboard-response","211","223368","0.0-13.0-0.0","jBahbwUlSg","66226d60cef946159f07d0f7","6617fad957f7c6a12ea16e26","6622cf6b540afcab7fc7abfc","fixation cross","null","","","","","","","","","","","",""
"","79","html-keyboard-response","212","223448","0.0-13.0-1.0","jBahbwUlSg","66226d60cef946159f07d0f7","6617fad957f7c6a12ea16e26","6622cf6b540afcab7fc7abfc","image grid"," ","","","","","Phylogenetic_Distractor_Threat_target","800","ongrid","q","3","Phylogenetic","false","experimental"
"","null","html-keyboard-response","213","223600","0.0-13.0-2.0","jBahbwUlSg","66226d60cef946159f07d0f7","6617fad957f7c6a12ea16e26","6622cf6b540afcab7fc7abfc","
    <div id=""grid-container"">
        <!-- Grid items will be dynamically added here -->
    </div>    ","null","","","","","","","","","","","",""
"","null","html-keyboard-response","214","224302","0.0-13.0-0.1","jBahbwUlSg","66226d60cef946159f07d0f7","6617fad957f7c6a12ea16e26","6622cf6b540afcab7fc7abfc","fixation cross","null","","","","","","","","","","","",""
"","null","html-keyboard-response","215","225104","0.0-13.0-1.1","jBahbwUlSg","66226d60cef946159f07d0f7","6617fad957f7c6a12ea16e26","6622cf6b540afcab7fc7abfc","
        <div id=""grid-container"">
        <!-- Grid items will be dynamically added here -->
    </div>    ","null","","","","","","","","","","","",""
"","1524","html-keyboard-response","216","225828","0.0-13.0-2.1","jBahbwUlSg","66226d60cef946159f07d0f7","6617fad957f7c6a12ea16e26","6622cf6b540afcab7fc7abfc","mask grid","p","","","","","Phylogenetic_Distractor_Nonthreat_target","800","onmask","p","7","Phylogenetic","true","experimental"
"","null","html-keyboard-response","217","226532","0.0-13.0-0.2","jBahbwUlSg","66226d60cef946159f07d0f7","6617fad957f7c6a12ea16e26","6622cf6b540afcab7fc7abfc","fixation cross","null","","","","","","","","","","","",""
"","731","html-keyboard-response","218","227264","0.0-13.0-1.2","jBahbwUlSg","66226d60cef946159f07d0f7","6617fad957f7c6a12ea16e26","6622cf6b540afcab7fc7abfc","image grid","p","","","","","Phylogenetic_Distractor_Nonthreat_target","800","ongrid","p","2","Phylogenetic","true","experimental"
"","null","html-keyboard-response","219","227416","0.0-13.0-2.2","jBahbwUlSg","66226d60cef946159f07d0f7","6617fad957f7c6a12ea16e26","6622cf6b540afcab7fc7abfc","
    <div id=""grid-container"">
        <!-- Grid items will be dynamically added here -->
    </div>    ","null","","","","","","","","","","","",""
"","null","html-keyboard-response","220","228120","0.0-13.0-0.3","jBahbwUlSg","66226d60cef946159f07d0f7","6617fad957f7c6a12ea16e26","6622cf6b540afcab7fc7abfc","fixation cross","null","","","","","","","","","","","",""
"","null","html-keyboard-response","221","228921","0.0-13.0-1.3","jBahbwUlSg","66226d60cef946159f07d0f7","6617fad957f7c6a12ea16e26","6622cf6b540afcab7fc7abfc","
        <div id=""grid-container"">
        <!-- Grid items will be dynamically added here -->
    </div>    ","null","","","","","","","","","","","",""
"","1542","html-keyboard-response","222","229663","0.0-13.0-2.3","jBahbwUlSg","66226d60cef946159f07d0f7","6617fad957f7c6a12ea16e26","6622cf6b540afcab7fc7abfc","mask grid","p","","","","","Phylogenetic_Distractor_Nonthreat_target","800","onmask","p","9","Phylogenetic","true","experimental"
"","null","html-keyboard-response","223","230366","0.0-13.0-0.4","jBahbwUlSg","66226d60cef946159f07d0f7","6617fad957f7c6a12ea16e26","6622cf6b540afcab7fc7abfc","fixation cross","null","","","","","","","","","","","",""
"","705","html-keyboard-response","224","231071","0.0-13.0-1.4","jBahbwUlSg","66226d60cef946159f07d0f7","6617fad957f7c6a12ea16e26","6622cf6b540afcab7fc7abfc","image grid","p","","","","","Phylogenetic_Distractor_notarget","800","ongrid"," ","6","Phylogenetic","false","experimental"
"","null","html-keyboard-response","225","231223","0.0-13.0-2.4","jBahbwUlSg","66226d60cef946159f07d0f7","6617fad957f7c6a12ea16e26","6622cf6b540afcab7fc7abfc","
    <div id=""grid-container"">
        <!-- Grid items will be dynamically added here -->
    </div>    ","null","","","","","","","","","","","",""
"","null","html-keyboard-response","226","231926","0.0-13.0-0.5","jBahbwUlSg","66226d60cef946159f07d0f7","6617fad957f7c6a12ea16e26","6622cf6b540afcab7fc7abfc","fixation cross","null","","","","","","","","","","","",""
"","632","html-keyboard-response","227","232558","0.0-13.0-1.5","jBahbwUlSg","66226d60cef946159f07d0f7","6617fad957f7c6a12ea16e26","6622cf6b540afcab7fc7abfc","image grid","p","","","","","Phylogenetic_Distractor_Nonthreat_target","800","ongrid","p","2","Phylogenetic","true","experimental"
"","null","html-keyboard-response","228","232709","0.0-13.0-2.5","jBahbwUlSg","66226d60cef946159f07d0f7","6617fad957f7c6a12ea16e26","6622cf6b540afcab7fc7abfc","
    <div id=""grid-container"">
        <!-- Grid items will be dynamically added here -->
    </div>    ","null","","","","","","","","","","","",""
"","null","html-keyboard-response","229","233413","0.0-13.0-0.6","jBahbwUlSg","66226d60cef946159f07d0f7","6617fad957f7c6a12ea16e26","6622cf6b540afcab7fc7abfc","fixation cross","null","","","","","","","","","","","",""
"","657","html-keyboard-response","230","234071","0.0-13.0-1.6","jBahbwUlSg","66226d60cef946159f07d0f7","6617fad957f7c6a12ea16e26","6622cf6b540afcab7fc7abfc","image grid","q","","","","","Phylogenetic_Distractor_Threat_target","800","ongrid","q","4","Phylogenetic","true","experimental"
"","null","html-keyboard-response","231","234222","0.0-13.0-2.6","jBahbwUlSg","66226d60cef946159f07d0f7","6617fad957f7c6a12ea16e26","6622cf6b540afcab7fc7abfc","
    <div id=""grid-container"">
        <!-- Grid items will be dynamically added here -->
    </div>    ","null","","","","","","","","","","","",""
"","null","html-keyboard-response","232","234926","0.0-13.0-0.7","jBahbwUlSg","66226d60cef946159f07d0f7","6617fad957f7c6a12ea16e26","6622cf6b540afcab7fc7abfc","fixation cross","null","","","","","","","","","","","",""
"","null","html-keyboard-response","233","235728","0.0-13.0-1.7","jBahbwUlSg","66226d60cef946159f07d0f7","6617fad957f7c6a12ea16e26","6622cf6b540afcab7fc7abfc","
        <div id=""grid-container"">
        <!-- Grid items will be dynamically added here -->
    </div>    ","null","","","","","","","","","","","",""
"","1232","html-keyboard-response","234","236160","0.0-13.0-2.7","jBahbwUlSg","66226d60cef946159f07d0f7","6617fad957f7c6a12ea16e26","6622cf6b540afcab7fc7abfc","mask grid","p","","","","","Phylogenetic_Distractor_notarget","800","onmask"," ","5","Phylogenetic","false","experimental"
"","null","html-keyboard-response","235","236863","0.0-13.0-0.8","jBahbwUlSg","66226d60cef946159f07d0f7","6617fad957f7c6a12ea16e26","6622cf6b540afcab7fc7abfc","fixation cross","null","","","","","","","","","","","",""
"","776","html-keyboard-response","236","237640","0.0-13.0-1.8","jBahbwUlSg","66226d60cef946159f07d0f7","6617fad957f7c6a12ea16e26","6622cf6b540afcab7fc7abfc","image grid"," ","","","","","Phylogenetic_Distractor_Threat_target","800","ongrid","q","7","Phylogenetic","false","experimental"
"","null","html-keyboard-response","237","237791","0.0-13.0-2.8","jBahbwUlSg","66226d60cef946159f07d0f7","6617fad957f7c6a12ea16e26","6622cf6b540afcab7fc7abfc","
    <div id=""grid-container"">
        <!-- Grid items will be dynamically added here -->
    </div>    ","null","","","","","","","","","","","",""
"","null","html-keyboard-response","238","238494","0.0-13.0-0.9","jBahbwUlSg","66226d60cef946159f07d0f7","6617fad957f7c6a12ea16e26","6622cf6b540afcab7fc7abfc","fixation cross","null","","","","","","","","","","","",""
"","null","html-keyboard-response","239","239297","0.0-13.0-1.9","jBahbwUlSg","66226d60cef946159f07d0f7","6617fad957f7c6a12ea16e26","6622cf6b540afcab7fc7abfc","
        <div id=""grid-container"">
        <!-- Grid items will be dynamically added here -->
    </div>    ","null","","","","","","","","","","","",""
"","924","html-keyboard-response","240","239421","0.0-13.0-2.9","jBahbwUlSg","66226d60cef946159f07d0f7","6617fad957f7c6a12ea16e26","6622cf6b540afcab7fc7abfc","mask grid","p","","","","","Phylogenetic_Distractor_Nonthreat_target","800","onmask","p","4","Phylogenetic","true","experimental"
"","null","html-keyboard-response","241","240125","0.0-13.0-0.10","jBahbwUlSg","66226d60cef946159f07d0f7","6617fad957f7c6a12ea16e26","6622cf6b540afcab7fc7abfc","fixation cross","null","","","","","","","","","","","",""
"","545","html-keyboard-response","242","240670","0.0-13.0-1.10","jBahbwUlSg","66226d60cef946159f07d0f7","6617fad957f7c6a12ea16e26","6622cf6b540afcab7fc7abfc","image grid","p","","","","","Phylogenetic_Distractor_Nonthreat_target","800","ongrid","p","4","Phylogenetic","true","experimental"
"","null","html-keyboard-response","243","240821","0.0-13.0-2.10","jBahbwUlSg","66226d60cef946159f07d0f7","6617fad957f7c6a12ea16e26","6622cf6b540afcab7fc7abfc","
    <div id=""grid-container"">
        <!-- Grid items will be dynamically added here -->
    </div>    ","null","","","","","","","","","","","",""
"","null","html-keyboard-response","244","241523","0.0-13.0-0.11","jBahbwUlSg","66226d60cef946159f07d0f7","6617fad957f7c6a12ea16e26","6622cf6b540afcab7fc7abfc","fixation cross","null","","","","","","","","","","","",""
"","519","html-keyboard-response","245","242043","0.0-13.0-1.11","jBahbwUlSg","66226d60cef946159f07d0f7","6617fad957f7c6a12ea16e26","6622cf6b540afcab7fc7abfc","image grid","q","","","","","Phylogenetic_Distractor_Threat_target","800","ongrid","q","4","Phylogenetic","true","experimental"
"","null","html-keyboard-response","246","242195","0.0-13.0-2.11","jBahbwUlSg","66226d60cef946159f07d0f7","6617fad957f7c6a12ea16e26","6622cf6b540afcab7fc7abfc","
    <div id=""grid-container"">
        <!-- Grid items will be dynamically added here -->
    </div>    ","null","","","","","","","","","","","",""
"","null","html-keyboard-response","247","242897","0.0-13.0-0.12","jBahbwUlSg","66226d60cef946159f07d0f7","6617fad957f7c6a12ea16e26","6622cf6b540afcab7fc7abfc","fixation cross","null","","","","","","","","","","","",""
"","555","html-keyboard-response","248","243453","0.0-13.0-1.12","jBahbwUlSg","66226d60cef946159f07d0f7","6617fad957f7c6a12ea16e26","6622cf6b540afcab7fc7abfc","image grid","q","","","","","Phylogenetic_Distractor_Threat_target","800","ongrid","q","1","Phylogenetic","true","experimental"
"","null","html-keyboard-response","249","243606","0.0-13.0-2.12","jBahbwUlSg","66226d60cef946159f07d0f7","6617fad957f7c6a12ea16e26","6622cf6b540afcab7fc7abfc","
    <div id=""grid-container"">
        <!-- Grid items will be dynamically added here -->
    </div>    ","null","","","","","","","","","","","",""
"","null","html-keyboard-response","250","244310","0.0-13.0-0.13","jBahbwUlSg","66226d60cef946159f07d0f7","6617fad957f7c6a12ea16e26","6622cf6b540afcab7fc7abfc","fixation cross","null","","","","","","","","","","","",""
"","719","html-keyboard-response","251","245030","0.0-13.0-1.13","jBahbwUlSg","66226d60cef946159f07d0f7","6617fad957f7c6a12ea16e26","6622cf6b540afcab7fc7abfc","image grid","q","","","","","Phylogenetic_Distractor_Threat_target","800","ongrid","q","6","Phylogenetic","true","experimental"
"","null","html-keyboard-response","252","245182","0.0-13.0-2.13","jBahbwUlSg","66226d60cef946159f07d0f7","6617fad957f7c6a12ea16e26","6622cf6b540afcab7fc7abfc","
    <div id=""grid-container"">
        <!-- Grid items will be dynamically added here -->
    </div>    ","null","","","","","","","","","","","",""
"","null","html-keyboard-response","253","245885","0.0-13.0-0.14","jBahbwUlSg","66226d60cef946159f07d0f7","6617fad957f7c6a12ea16e26","6622cf6b540afcab7fc7abfc","fixation cross","null","","","","","","","","","","","",""
"","674","html-keyboard-response","254","246560","0.0-13.0-1.14","jBahbwUlSg","66226d60cef946159f07d0f7","6617fad957f7c6a12ea16e26","6622cf6b540afcab7fc7abfc","image grid","q","","","","","Phylogenetic_Distractor_Threat_target","800","ongrid","q","1","Phylogenetic","true","experimental"
"","null","html-keyboard-response","255","246712","0.0-13.0-2.14","jBahbwUlSg","66226d60cef946159f07d0f7","6617fad957f7c6a12ea16e26","6622cf6b540afcab7fc7abfc","
    <div id=""grid-container"">
        <!-- Grid items will be dynamically added here -->
    </div>    ","null","","","","","","","","","","","",""
"","null","html-keyboard-response","256","247416","0.0-13.0-0.15","jBahbwUlSg","66226d60cef946159f07d0f7","6617fad957f7c6a12ea16e26","6622cf6b540afcab7fc7abfc","fixation cross","null","","","","","","","","","","","",""
"","600","html-keyboard-response","257","248016","0.0-13.0-1.15","jBahbwUlSg","66226d60cef946159f07d0f7","6617fad957f7c6a12ea16e26","6622cf6b540afcab7fc7abfc","image grid","q","","","","","Phylogenetic_Distractor_Threat_target","800","ongrid","q","5","Phylogenetic","true","experimental"
"","null","html-keyboard-response","258","248168","0.0-13.0-2.15","jBahbwUlSg","66226d60cef946159f07d0f7","6617fad957f7c6a12ea16e26","6622cf6b540afcab7fc7abfc","
    <div id=""grid-container"">
        <!-- Grid items will be dynamically added here -->
    </div>    ","null","","","","","","","","","","","",""
"","null","html-keyboard-response","259","248871","0.0-13.0-0.16","jBahbwUlSg","66226d60cef946159f07d0f7","6617fad957f7c6a12ea16e26","6622cf6b540afcab7fc7abfc","fixation cross","null","","","","","","","","","","","",""
"","517","html-keyboard-response","260","249389","0.0-13.0-1.16","jBahbwUlSg","66226d60cef946159f07d0f7","6617fad957f7c6a12ea16e26","6622cf6b540afcab7fc7abfc","image grid","q","","","","","Phylogenetic_Distractor_Threat_target","800","ongrid","q","5","Phylogenetic","true","experimental"
"","null","html-keyboard-response","261","249541","0.0-13.0-2.16","jBahbwUlSg","66226d60cef946159f07d0f7","6617fad957f7c6a12ea16e26","6622cf6b540afcab7fc7abfc","
    <div id=""grid-container"">
        <!-- Grid items will be dynamically added here -->
    </div>    ","null","","","","","","","","","","","",""
"","null","html-keyboard-response","262","250245","0.0-13.0-0.17","jBahbwUlSg","66226d60cef946159f07d0f7","6617fad957f7c6a12ea16e26","6622cf6b540afcab7fc7abfc","fixation cross","null","","","","","","","","","","","",""
"","null","html-keyboard-response","263","251047","0.0-13.0-1.17","jBahbwUlSg","66226d60cef946159f07d0f7","6617fad957f7c6a12ea16e26","6622cf6b540afcab7fc7abfc","
        <div id=""grid-container"">
        <!-- Grid items will be dynamically added here -->
    </div>    ","null","","","","","","","","","","","",""
"","1194","html-keyboard-response","264","251442","0.0-13.0-2.17","jBahbwUlSg","66226d60cef946159f07d0f7","6617fad957f7c6a12ea16e26","6622cf6b540afcab7fc7abfc","mask grid"," ","","","","","Phylogenetic_Distractor_notarget","800","onmask"," ","2","Phylogenetic","true","experimental"
"","null","html-keyboard-response","265","252145","0.0-13.0-0.18","jBahbwUlSg","66226d60cef946159f07d0f7","6617fad957f7c6a12ea16e26","6622cf6b540afcab7fc7abfc","fixation cross","null","","","","","","","","","","","",""
"","712","html-keyboard-response","266","252858","0.0-13.0-1.18","jBahbwUlSg","66226d60cef946159f07d0f7","6617fad957f7c6a12ea16e26","6622cf6b540afcab7fc7abfc","image grid","p","","","","","Phylogenetic_Distractor_Nonthreat_target","800","ongrid","p","2","Phylogenetic","true","experimental"
"","null","html-keyboard-response","267","253010","0.0-13.0-2.18","jBahbwUlSg","66226d60cef946159f07d0f7","6617fad957f7c6a12ea16e26","6622cf6b540afcab7fc7abfc","
    <div id=""grid-container"">
        <!-- Grid items will be dynamically added here -->
    </div>    ","null","","","","","","","","","","","",""
"","null","html-keyboard-response","268","253713","0.0-13.0-0.19","jBahbwUlSg","66226d60cef946159f07d0f7","6617fad957f7c6a12ea16e26","6622cf6b540afcab7fc7abfc","fixation cross","null","","","","","","","","","","","",""
"","566","html-keyboard-response","269","254280","0.0-13.0-1.19","jBahbwUlSg","66226d60cef946159f07d0f7","6617fad957f7c6a12ea16e26","6622cf6b540afcab7fc7abfc","image grid","q","","","","","Phylogenetic_Distractor_Threat_target","800","ongrid","q","9","Phylogenetic","true","experimental"
"","null","html-keyboard-response","270","254433","0.0-13.0-2.19","jBahbwUlSg","66226d60cef946159f07d0f7","6617fad957f7c6a12ea16e26","6622cf6b540afcab7fc7abfc","
    <div id=""grid-container"">
        <!-- Grid items will be dynamically added here -->
    </div>    ","null","","","","","","","","","","","",""
"","null","html-keyboard-response","271","255137","0.0-13.0-0.20","jBahbwUlSg","66226d60cef946159f07d0f7","6617fad957f7c6a12ea16e26","6622cf6b540afcab7fc7abfc","fixation cross","null","","","","","","","","","","","",""
"","795","html-keyboard-response","272","255932","0.0-13.0-1.20","jBahbwUlSg","66226d60cef946159f07d0f7","6617fad957f7c6a12ea16e26","6622cf6b540afcab7fc7abfc","image grid","p","","","","","Phylogenetic_Distractor_Threat_target","800","ongrid","q","1","Phylogenetic","false","experimental"
"","null","html-keyboard-response","273","256085","0.0-13.0-2.20","jBahbwUlSg","66226d60cef946159f07d0f7","6617fad957f7c6a12ea16e26","6622cf6b540afcab7fc7abfc","
    <div id=""grid-container"">
        <!-- Grid items will be dynamically added here -->
    </div>    ","null","","","","","","","","","","","",""
"","null","html-keyboard-response","274","256788","0.0-13.0-0.21","jBahbwUlSg","66226d60cef946159f07d0f7","6617fad957f7c6a12ea16e26","6622cf6b540afcab7fc7abfc","fixation cross","null","","","","","","","","","","","",""
"","null","html-keyboard-response","275","257590","0.0-13.0-1.21","jBahbwUlSg","66226d60cef946159f07d0f7","6617fad957f7c6a12ea16e26","6622cf6b540afcab7fc7abfc","
        <div id=""grid-container"">
        <!-- Grid items will be dynamically added here -->
    </div>    ","null","","","","","","","","","","","",""
"","1385","html-keyboard-response","276","258176","0.0-13.0-2.21","jBahbwUlSg","66226d60cef946159f07d0f7","6617fad957f7c6a12ea16e26","6622cf6b540afcab7fc7abfc","mask grid"," ","","","","","Phylogenetic_Distractor_Nonthreat_target","800","onmask","p","1","Phylogenetic","false","experimental"
"","null","html-keyboard-response","277","258880","0.0-13.0-0.22","jBahbwUlSg","66226d60cef946159f07d0f7","6617fad957f7c6a12ea16e26","6622cf6b540afcab7fc7abfc","fixation cross","null","","","","","","","","","","","",""
"","null","html-keyboard-response","278","259682","0.0-13.0-1.22","jBahbwUlSg","66226d60cef946159f07d0f7","6617fad957f7c6a12ea16e26","6622cf6b540afcab7fc7abfc","
        <div id=""grid-container"">
        <!-- Grid items will be dynamically added here -->
    </div>    ","null","","","","","","","","","","","",""
"","1086","html-keyboard-response","279","259969","0.0-13.0-2.22","jBahbwUlSg","66226d60cef946159f07d0f7","6617fad957f7c6a12ea16e26","6622cf6b540afcab7fc7abfc","mask grid","q","","","","","Phylogenetic_Distractor_Threat_target","800","onmask","q","8","Phylogenetic","true","experimental"
"","null","html-keyboard-response","280","260673","0.0-13.0-0.23","jBahbwUlSg","66226d60cef946159f07d0f7","6617fad957f7c6a12ea16e26","6622cf6b540afcab7fc7abfc","fixation cross","null","","","","","","","","","","","",""
"","750","html-keyboard-response","281","261424","0.0-13.0-1.23","jBahbwUlSg","66226d60cef946159f07d0f7","6617fad957f7c6a12ea16e26","6622cf6b540afcab7fc7abfc","image grid","p","","","","","Phylogenetic_Distractor_notarget","800","ongrid"," ","5","Phylogenetic","false","experimental"
"","null","html-keyboard-response","282","261577","0.0-13.0-2.23","jBahbwUlSg","66226d60cef946159f07d0f7","6617fad957f7c6a12ea16e26","6622cf6b540afcab7fc7abfc","
    <div id=""grid-container"">
        <!-- Grid items will be dynamically added here -->
    </div>    ","null","","","","","","","","","","","",""
"","null","html-keyboard-response","283","262281","0.0-13.0-0.24","jBahbwUlSg","66226d60cef946159f07d0f7","6617fad957f7c6a12ea16e26","6622cf6b540afcab7fc7abfc","fixation cross","null","","","","","","","","","","","",""
"","609","html-keyboard-response","284","262890","0.0-13.0-1.24","jBahbwUlSg","66226d60cef946159f07d0f7","6617fad957f7c6a12ea16e26","6622cf6b540afcab7fc7abfc","image grid","q","","","","","Phylogenetic_Distractor_Threat_target","800","ongrid","q","5","Phylogenetic","true","experimental"
"","null","html-keyboard-response","285","263043","0.0-13.0-2.24","jBahbwUlSg","66226d60cef946159f07d0f7","6617fad957f7c6a12ea16e26","6622cf6b540afcab7fc7abfc","
    <div id=""grid-container"">
        <!-- Grid items will be dynamically added here -->
    </div>    ","null","","","","","","","","","","","",""
"","null","html-keyboard-response","286","263746","0.0-13.0-0.25","jBahbwUlSg","66226d60cef946159f07d0f7","6617fad957f7c6a12ea16e26","6622cf6b540afcab7fc7abfc","fixation cross","null","","","","","","","","","","","",""
"","712","html-keyboard-response","287","264458","0.0-13.0-1.25","jBahbwUlSg","66226d60cef946159f07d0f7","6617fad957f7c6a12ea16e26","6622cf6b540afcab7fc7abfc","image grid","p","","","","","Phylogenetic_Distractor_Nonthreat_target","800","ongrid","p","2","Phylogenetic","true","experimental"
"","null","html-keyboard-response","288","264611","0.0-13.0-2.25","jBahbwUlSg","66226d60cef946159f07d0f7","6617fad957f7c6a12ea16e26","6622cf6b540afcab7fc7abfc","
    <div id=""grid-container"">
        <!-- Grid items will be dynamically added here -->
    </div>    ","null","","","","","","","","","","","",""
"","null","html-keyboard-response","289","265314","0.0-13.0-0.26","jBahbwUlSg","66226d60cef946159f07d0f7","6617fad957f7c6a12ea16e26","6622cf6b540afcab7fc7abfc","fixation cross","null","","","","","","","","","","","",""
"","752","html-keyboard-response","290","266067","0.0-13.0-1.26","jBahbwUlSg","66226d60cef946159f07d0f7","6617fad957f7c6a12ea16e26","6622cf6b540afcab7fc7abfc","image grid","p","","","","","Phylogenetic_Distractor_Nonthreat_target","800","ongrid","p","5","Phylogenetic","true","experimental"
"","null","html-keyboard-response","291","266219","0.0-13.0-2.26","jBahbwUlSg","66226d60cef946159f07d0f7","6617fad957f7c6a12ea16e26","6622cf6b540afcab7fc7abfc","
    <div id=""grid-container"">
        <!-- Grid items will be dynamically added here -->
    </div>    ","null","","","","","","","","","","","",""
"","null","html-keyboard-response","292","266923","0.0-13.0-0.27","jBahbwUlSg","66226d60cef946159f07d0f7","6617fad957f7c6a12ea16e26","6622cf6b540afcab7fc7abfc","fixation cross","null","","","","","","","","","","","",""
"","784","html-keyboard-response","293","267708","0.0-13.0-1.27","jBahbwUlSg","66226d60cef946159f07d0f7","6617fad957f7c6a12ea16e26","6622cf6b540afcab7fc7abfc","image grid","q","","","","","Phylogenetic_Distractor_Threat_target","800","ongrid","q","7","Phylogenetic","true","experimental"
"","null","html-keyboard-response","294","267860","0.0-13.0-2.27","jBahbwUlSg","66226d60cef946159f07d0f7","6617fad957f7c6a12ea16e26","6622cf6b540afcab7fc7abfc","
    <div id=""grid-container"">
        <!-- Grid items will be dynamically added here -->
    </div>    ","null","","","","","","","","","","","",""
"","null","html-keyboard-response","295","268564","0.0-13.0-0.28","jBahbwUlSg","66226d60cef946159f07d0f7","6617fad957f7c6a12ea16e26","6622cf6b540afcab7fc7abfc","fixation cross","null","","","","","","","","","","","",""
"","548","html-keyboard-response","296","269113","0.0-13.0-1.28","jBahbwUlSg","66226d60cef946159f07d0f7","6617fad957f7c6a12ea16e26","6622cf6b540afcab7fc7abfc","image grid","q","","","","","Phylogenetic_Distractor_Threat_target","800","ongrid","q","9","Phylogenetic","true","experimental"
"","null","html-keyboard-response","297","269266","0.0-13.0-2.28","jBahbwUlSg","66226d60cef946159f07d0f7","6617fad957f7c6a12ea16e26","6622cf6b540afcab7fc7abfc","
    <div id=""grid-container"">
        <!-- Grid items will be dynamically added here -->
    </div>    ","null","","","","","","","","","","","",""
"","null","html-keyboard-response","298","269970","0.0-13.0-0.29","jBahbwUlSg","66226d60cef946159f07d0f7","6617fad957f7c6a12ea16e26","6622cf6b540afcab7fc7abfc","fixation cross","null","","","","","","","","","","","",""
"","null","html-keyboard-response","299","270772","0.0-13.0-1.29","jBahbwUlSg","66226d60cef946159f07d0f7","6617fad957f7c6a12ea16e26","6622cf6b540afcab7fc7abfc","
        <div id=""grid-container"">
        <!-- Grid items will be dynamically added here -->
    </div>    ","null","","","","","","","","","","","",""
"","833","html-keyboard-response","300","270807","0.0-13.0-2.29","jBahbwUlSg","66226d60cef946159f07d0f7","6617fad957f7c6a12ea16e26","6622cf6b540afcab7fc7abfc","mask grid","p","","","","","Phylogenetic_Distractor_Nonthreat_target","800","onmask","p","3","Phylogenetic","true","experimental"
"","null","html-keyboard-response","301","271510","0.0-13.0-0.30","jBahbwUlSg","66226d60cef946159f07d0f7","6617fad957f7c6a12ea16e26","6622cf6b540afcab7fc7abfc","fixation cross","null","","","","","","","","","","","",""
"","632","html-keyboard-response","302","272143","0.0-13.0-1.30","jBahbwUlSg","66226d60cef946159f07d0f7","6617fad957f7c6a12ea16e26","6622cf6b540afcab7fc7abfc","image grid","q","","","","","Phylogenetic_Distractor_Threat_target","800","ongrid","q","3","Phylogenetic","true","experimental"
"","null","html-keyboard-response","303","272296","0.0-13.0-2.30","jBahbwUlSg","66226d60cef946159f07d0f7","6617fad957f7c6a12ea16e26","6622cf6b540afcab7fc7abfc","
    <div id=""grid-container"">
        <!-- Grid items will be dynamically added here -->
    </div>    ","null","","","","","","","","","","","",""
"","null","html-keyboard-response","304","273000","0.0-13.0-0.31","jBahbwUlSg","66226d60cef946159f07d0f7","6617fad957f7c6a12ea16e26","6622cf6b540afcab7fc7abfc","fixation cross","null","","","","","","","","","","","",""
"","null","html-keyboard-response","305","273803","0.0-13.0-1.31","jBahbwUlSg","66226d60cef946159f07d0f7","6617fad957f7c6a12ea16e26","6622cf6b540afcab7fc7abfc","
        <div id=""grid-container"">
        <!-- Grid items will be dynamically added here -->
    </div>    ","null","","","","","","","","","","","",""
"","1025","html-keyboard-response","306","274029","0.0-13.0-2.31","jBahbwUlSg","66226d60cef946159f07d0f7","6617fad957f7c6a12ea16e26","6622cf6b540afcab7fc7abfc","mask grid","p","","","","","Phylogenetic_Distractor_Nonthreat_target","800","onmask","p","8","Phylogenetic","true","experimental"
"","null","html-keyboard-response","307","274733","0.0-13.0-0.32","jBahbwUlSg","66226d60cef946159f07d0f7","6617fad957f7c6a12ea16e26","6622cf6b540afcab7fc7abfc","fixation cross","null","","","","","","","","","","","",""
"","781","html-keyboard-response","308","275515","0.0-13.0-1.32","jBahbwUlSg","66226d60cef946159f07d0f7","6617fad957f7c6a12ea16e26","6622cf6b540afcab7fc7abfc","image grid","p","","","","","Phylogenetic_Distractor_Nonthreat_target","800","ongrid","p","7","Phylogenetic","true","experimental"
"","null","html-keyboard-response","309","275667","0.0-13.0-2.32","jBahbwUlSg","66226d60cef946159f07d0f7","6617fad957f7c6a12ea16e26","6622cf6b540afcab7fc7abfc","
    <div id=""grid-container"">
        <!-- Grid items will be dynamically added here -->
    </div>    ","null","","","","","","","","","","","",""
"","null","html-keyboard-response","310","276371","0.0-13.0-0.33","jBahbwUlSg","66226d60cef946159f07d0f7","6617fad957f7c6a12ea16e26","6622cf6b540afcab7fc7abfc","fixation cross","null","","","","","","","","","","","",""
"","680","html-keyboard-response","311","277051","0.0-13.0-1.33","jBahbwUlSg","66226d60cef946159f07d0f7","6617fad957f7c6a12ea16e26","6622cf6b540afcab7fc7abfc","image grid","p","","","","","Phylogenetic_Distractor_Nonthreat_target","800","ongrid","p","2","Phylogenetic","true","experimental"
"","null","html-keyboard-response","312","277205","0.0-13.0-2.33","jBahbwUlSg","66226d60cef946159f07d0f7","6617fad957f7c6a12ea16e26","6622cf6b540afcab7fc7abfc","
    <div id=""grid-container"">
        <!-- Grid items will be dynamically added here -->
    </div>    ","null","","","","","","","","","","","",""
"","null","html-keyboard-response","313","277908","0.0-13.0-0.34","jBahbwUlSg","66226d60cef946159f07d0f7","6617fad957f7c6a12ea16e26","6622cf6b540afcab7fc7abfc","fixation cross","null","","","","","","","","","","","",""
"","null","html-keyboard-response","314","278711","0.0-13.0-1.34","jBahbwUlSg","66226d60cef946159f07d0f7","6617fad957f7c6a12ea16e26","6622cf6b540afcab7fc7abfc","
        <div id=""grid-container"">
        <!-- Grid items will be dynamically added here -->
    </div>    ","null","","","","","","","","","","","",""
"","1142","html-keyboard-response","315","279054","0.0-13.0-2.34","jBahbwUlSg","66226d60cef946159f07d0f7","6617fad957f7c6a12ea16e26","6622cf6b540afcab7fc7abfc","mask grid","p","","","","","Phylogenetic_Distractor_Nonthreat_target","800","onmask","p","7","Phylogenetic","true","experimental"
"","null","html-keyboard-response","316","279758","0.0-13.0-0.35","jBahbwUlSg","66226d60cef946159f07d0f7","6617fad957f7c6a12ea16e26","6622cf6b540afcab7fc7abfc","fixation cross","null","","","","","","","","","","","",""
"","655","html-keyboard-response","317","280414","0.0-13.0-1.35","jBahbwUlSg","66226d60cef946159f07d0f7","6617fad957f7c6a12ea16e26","6622cf6b540afcab7fc7abfc","image grid","p","","","","","Phylogenetic_Distractor_Nonthreat_target","800","ongrid","p","2","Phylogenetic","true","experimental"
"","null","html-keyboard-response","318","280567","0.0-13.0-2.35","jBahbwUlSg","66226d60cef946159f07d0f7","6617fad957f7c6a12ea16e26","6622cf6b540afcab7fc7abfc","
    <div id=""grid-container"">
        <!-- Grid items will be dynamically added here -->
    </div>    ","null","","","","","","","","","","","",""
"","null","html-keyboard-response","319","281270","0.0-13.0-0.36","jBahbwUlSg","66226d60cef946159f07d0f7","6617fad957f7c6a12ea16e26","6622cf6b540afcab7fc7abfc","fixation cross","null","","","","","","","","","","","",""
"","747","html-keyboard-response","320","282018","0.0-13.0-1.36","jBahbwUlSg","66226d60cef946159f07d0f7","6617fad957f7c6a12ea16e26","6622cf6b540afcab7fc7abfc","image grid","p","","","","","Phylogenetic_Distractor_Threat_target","800","ongrid","q","8","Phylogenetic","false","experimental"
"","null","html-keyboard-response","321","282171","0.0-13.0-2.36","jBahbwUlSg","66226d60cef946159f07d0f7","6617fad957f7c6a12ea16e26","6622cf6b540afcab7fc7abfc","
    <div id=""grid-container"">
        <!-- Grid items will be dynamically added here -->
    </div>    ","null","","","","","","","","","","","",""
"","null","html-keyboard-response","322","282875","0.0-13.0-0.37","jBahbwUlSg","66226d60cef946159f07d0f7","6617fad957f7c6a12ea16e26","6622cf6b540afcab7fc7abfc","fixation cross","null","","","","","","","","","","","",""
"","null","html-keyboard-response","323","283677","0.0-13.0-1.37","jBahbwUlSg","66226d60cef946159f07d0f7","6617fad957f7c6a12ea16e26","6622cf6b540afcab7fc7abfc","
        <div id=""grid-container"">
        <!-- Grid items will be dynamically added here -->
    </div>    ","null","","","","","","","","","","","",""
"","891","html-keyboard-response","324","283770","0.0-13.0-2.37","jBahbwUlSg","66226d60cef946159f07d0f7","6617fad957f7c6a12ea16e26","6622cf6b540afcab7fc7abfc","mask grid","p","","","","","Phylogenetic_Distractor_Nonthreat_target","800","onmask","p","6","Phylogenetic","true","experimental"
"","null","html-keyboard-response","325","284475","0.0-13.0-0.38","jBahbwUlSg","66226d60cef946159f07d0f7","6617fad957f7c6a12ea16e26","6622cf6b540afcab7fc7abfc","fixation cross","null","","","","","","","","","","","",""
"","551","html-keyboard-response","326","285026","0.0-13.0-1.38","jBahbwUlSg","66226d60cef946159f07d0f7","6617fad957f7c6a12ea16e26","6622cf6b540afcab7fc7abfc","image grid","q","","","","","Phylogenetic_Distractor_Threat_target","800","ongrid","q","2","Phylogenetic","true","experimental"
"","null","html-keyboard-response","327","285179","0.0-13.0-2.38","jBahbwUlSg","66226d60cef946159f07d0f7","6617fad957f7c6a12ea16e26","6622cf6b540afcab7fc7abfc","
    <div id=""grid-container"">
        <!-- Grid items will be dynamically added here -->
    </div>    ","null","","","","","","","","","","","",""
"","null","html-keyboard-response","328","285883","0.0-13.0-0.39","jBahbwUlSg","66226d60cef946159f07d0f7","6617fad957f7c6a12ea16e26","6622cf6b540afcab7fc7abfc","fixation cross","null","","","","","","","","","","","",""
"","787","html-keyboard-response","329","286670","0.0-13.0-1.39","jBahbwUlSg","66226d60cef946159f07d0f7","6617fad957f7c6a12ea16e26","6622cf6b540afcab7fc7abfc","image grid","p","","","","","Phylogenetic_Distractor_Nonthreat_target","800","ongrid","p","5","Phylogenetic","true","experimental"
"","null","html-keyboard-response","330","286822","0.0-13.0-2.39","jBahbwUlSg","66226d60cef946159f07d0f7","6617fad957f7c6a12ea16e26","6622cf6b540afcab7fc7abfc","
    <div id=""grid-container"">
        <!-- Grid items will be dynamically added here -->
    </div>    ","null","","","","","","","","","","","",""
"","1587","html-keyboard-response","331","288612","0.0-14.0","jBahbwUlSg","66226d60cef946159f07d0f7","6617fad957f7c6a12ea16e26","6622cf6b540afcab7fc7abfc","break screen"," ","","","","","","","","","","","",""
"","null","html-keyboard-response","332","291115","0.0-15.0-0.0","jBahbwUlSg","66226d60cef946159f07d0f7","6617fad957f7c6a12ea16e26","6622cf6b540afcab7fc7abfc","fixation cross","null","","","","","","","","","","","",""
"","null","html-keyboard-response","333","293616","0.0-15.0-1.0","jBahbwUlSg","66226d60cef946159f07d0f7","6617fad957f7c6a12ea16e26","6622cf6b540afcab7fc7abfc","
        <div id=""grid-container"">
        <!-- Grid items will be dynamically added here -->
    </div>    ","null","","","","","","","","","","","",""
"","2593","html-keyboard-response","334","293709","0.0-15.0-2.0","jBahbwUlSg","66226d60cef946159f07d0f7","6617fad957f7c6a12ea16e26","6622cf6b540afcab7fc7abfc","mask grid","q","","","","","Ontogenetic_Distractor_Nonthreat_target","2500","onmask","p","5","Ontogenetic","false","experimental"
"","null","html-keyboard-response","335","294412","0.0-15.0-0.1","jBahbwUlSg","66226d60cef946159f07d0f7","6617fad957f7c6a12ea16e26","6622cf6b540afcab7fc7abfc","fixation cross","null","","","","","","","","","","","",""
"","1274","html-keyboard-response","336","295687","0.0-15.0-1.1","jBahbwUlSg","66226d60cef946159f07d0f7","6617fad957f7c6a12ea16e26","6622cf6b540afcab7fc7abfc","image grid","p","","","","","Ontogenetic_Distractor_Nonthreat_target","2500","ongrid","p","8","Ontogenetic","true","experimental"
"","null","html-keyboard-response","337","295840","0.0-15.0-2.1","jBahbwUlSg","66226d60cef946159f07d0f7","6617fad957f7c6a12ea16e26","6622cf6b540afcab7fc7abfc","
    <div id=""grid-container"">
        <!-- Grid items will be dynamically added here -->
    </div>    ","null","","","","","","","","","","","",""
"","null","html-keyboard-response","338","296543","0.0-15.0-0.2","jBahbwUlSg","66226d60cef946159f07d0f7","6617fad957f7c6a12ea16e26","6622cf6b540afcab7fc7abfc","fixation cross","null","","","","","","","","","","","",""
"","884","html-keyboard-response","339","297427","0.0-15.0-1.2","jBahbwUlSg","66226d60cef946159f07d0f7","6617fad957f7c6a12ea16e26","6622cf6b540afcab7fc7abfc","image grid","q","","","","","Ontogenetic_Distractor_Threat_target","2500","ongrid","q","1","Ontogenetic","true","experimental"
"","null","html-keyboard-response","340","297579","0.0-15.0-2.2","jBahbwUlSg","66226d60cef946159f07d0f7","6617fad957f7c6a12ea16e26","6622cf6b540afcab7fc7abfc","
    <div id=""grid-container"">
        <!-- Grid items will be dynamically added here -->
    </div>    ","null","","","","","","","","","","","",""
"","null","html-keyboard-response","341","298282","0.0-15.0-0.3","jBahbwUlSg","66226d60cef946159f07d0f7","6617fad957f7c6a12ea16e26","6622cf6b540afcab7fc7abfc","fixation cross","null","","","","","","","","","","","",""
"","782","html-keyboard-response","342","299065","0.0-15.0-1.3","jBahbwUlSg","66226d60cef946159f07d0f7","6617fad957f7c6a12ea16e26","6622cf6b540afcab7fc7abfc","image grid","q","","","","","Ontogenetic_Distractor_Threat_target","2500","ongrid","q","2","Ontogenetic","true","experimental"
"","null","html-keyboard-response","343","299218","0.0-15.0-2.3","jBahbwUlSg","66226d60cef946159f07d0f7","6617fad957f7c6a12ea16e26","6622cf6b540afcab7fc7abfc","
    <div id=""grid-container"">
        <!-- Grid items will be dynamically added here -->
    </div>    ","null","","","","","","","","","","","",""
"","null","html-keyboard-response","344","299921","0.0-15.0-0.4","jBahbwUlSg","66226d60cef946159f07d0f7","6617fad957f7c6a12ea16e26","6622cf6b540afcab7fc7abfc","fixation cross","null","","","","","","","","","","","",""
"","893","html-keyboard-response","345","300814","0.0-15.0-1.4","jBahbwUlSg","66226d60cef946159f07d0f7","6617fad957f7c6a12ea16e26","6622cf6b540afcab7fc7abfc","image grid","q","","","","","Ontogenetic_Distractor_Threat_target","2500","ongrid","q","3","Ontogenetic","true","experimental"
"","null","html-keyboard-response","346","300966","0.0-15.0-2.4","jBahbwUlSg","66226d60cef946159f07d0f7","6617fad957f7c6a12ea16e26","6622cf6b540afcab7fc7abfc","
    <div id=""grid-container"">
        <!-- Grid items will be dynamically added here -->
    </div>    ","null","","","","","","","","","","","",""
"","null","html-keyboard-response","347","301670","0.0-15.0-0.5","jBahbwUlSg","66226d60cef946159f07d0f7","6617fad957f7c6a12ea16e26","6622cf6b540afcab7fc7abfc","fixation cross","null","","","","","","","","","","","",""
"","2038","html-keyboard-response","348","303709","0.0-15.0-1.5","jBahbwUlSg","66226d60cef946159f07d0f7","6617fad957f7c6a12ea16e26","6622cf6b540afcab7fc7abfc","image grid"," ","","","","","Ontogenetic_Distractor_Nonthreat_target","2500","ongrid","p","6","Ontogenetic","false","experimental"
"","null","html-keyboard-response","349","303860","0.0-15.0-2.5","jBahbwUlSg","66226d60cef946159f07d0f7","6617fad957f7c6a12ea16e26","6622cf6b540afcab7fc7abfc","
    <div id=""grid-container"">
        <!-- Grid items will be dynamically added here -->
    </div>    ","null","","","","","","","","","","","",""
"","null","html-keyboard-response","350","304564","0.0-15.0-0.6","jBahbwUlSg","66226d60cef946159f07d0f7","6617fad957f7c6a12ea16e26","6622cf6b540afcab7fc7abfc","fixation cross","null","","","","","","","","","","","",""
"","819","html-keyboard-response","351","305383","0.0-15.0-1.6","jBahbwUlSg","66226d60cef946159f07d0f7","6617fad957f7c6a12ea16e26","6622cf6b540afcab7fc7abfc","image grid","q","","","","","Ontogenetic_Distractor_Threat_target","2500","ongrid","q","8","Ontogenetic","true","experimental"
"","null","html-keyboard-response","352","305535","0.0-15.0-2.6","jBahbwUlSg","66226d60cef946159f07d0f7","6617fad957f7c6a12ea16e26","6622cf6b540afcab7fc7abfc","
    <div id=""grid-container"">
        <!-- Grid items will be dynamically added here -->
    </div>    ","null","","","","","","","","","","","",""
"","null","html-keyboard-response","353","306238","0.0-15.0-0.7","jBahbwUlSg","66226d60cef946159f07d0f7","6617fad957f7c6a12ea16e26","6622cf6b540afcab7fc7abfc","fixation cross","null","","","","","","","","","","","",""
"","851","html-keyboard-response","354","307089","0.0-15.0-1.7","jBahbwUlSg","66226d60cef946159f07d0f7","6617fad957f7c6a12ea16e26","6622cf6b540afcab7fc7abfc","image grid","q","","","","","Ontogenetic_Distractor_Threat_target","2500","ongrid","q","2","Ontogenetic","true","experimental"
"","null","html-keyboard-response","355","307241","0.0-15.0-2.7","jBahbwUlSg","66226d60cef946159f07d0f7","6617fad957f7c6a12ea16e26","6622cf6b540afcab7fc7abfc","
    <div id=""grid-container"">
        <!-- Grid items will be dynamically added here -->
    </div>    ","null","","","","","","","","","","","",""
"","null","html-keyboard-response","356","307943","0.0-15.0-0.8","jBahbwUlSg","66226d60cef946159f07d0f7","6617fad957f7c6a12ea16e26","6622cf6b540afcab7fc7abfc","fixation cross","null","","","","","","","","","","","",""
"","1435","html-keyboard-response","357","309379","0.0-15.0-1.8","jBahbwUlSg","66226d60cef946159f07d0f7","6617fad957f7c6a12ea16e26","6622cf6b540afcab7fc7abfc","image grid","p","","","","","Ontogenetic_Distractor_Nonthreat_target","2500","ongrid","p","1","Ontogenetic","true","experimental"
"","null","html-keyboard-response","358","309531","0.0-15.0-2.8","jBahbwUlSg","66226d60cef946159f07d0f7","6617fad957f7c6a12ea16e26","6622cf6b540afcab7fc7abfc","
    <div id=""grid-container"">
        <!-- Grid items will be dynamically added here -->
    </div>    ","null","","","","","","","","","","","",""
"","null","html-keyboard-response","359","310233","0.0-15.0-0.9","jBahbwUlSg","66226d60cef946159f07d0f7","6617fad957f7c6a12ea16e26","6622cf6b540afcab7fc7abfc","fixation cross","null","","","","","","","","","","","",""
"","1432","html-keyboard-response","360","311666","0.0-15.0-1.9","jBahbwUlSg","66226d60cef946159f07d0f7","6617fad957f7c6a12ea16e26","6622cf6b540afcab7fc7abfc","image grid","p","","","","","Ontogenetic_Distractor_Nonthreat_target","2500","ongrid","p","3","Ontogenetic","true","experimental"
"","null","html-keyboard-response","361","311818","0.0-15.0-2.9","jBahbwUlSg","66226d60cef946159f07d0f7","6617fad957f7c6a12ea16e26","6622cf6b540afcab7fc7abfc","
    <div id=""grid-container"">
        <!-- Grid items will be dynamically added here -->
    </div>    ","null","","","","","","","","","","","",""
"","null","html-keyboard-response","362","312521","0.0-15.0-0.10","jBahbwUlSg","66226d60cef946159f07d0f7","6617fad957f7c6a12ea16e26","6622cf6b540afcab7fc7abfc","fixation cross","null","","","","","","","","","","","",""
"","734","html-keyboard-response","363","313256","0.0-15.0-1.10","jBahbwUlSg","66226d60cef946159f07d0f7","6617fad957f7c6a12ea16e26","6622cf6b540afcab7fc7abfc","image grid","q","","","","","Ontogenetic_Distractor_Threat_target","2500","ongrid","q","5","Ontogenetic","true","experimental"
"","null","html-keyboard-response","364","313407","0.0-15.0-2.10","jBahbwUlSg","66226d60cef946159f07d0f7","6617fad957f7c6a12ea16e26","6622cf6b540afcab7fc7abfc","
    <div id=""grid-container"">
        <!-- Grid items will be dynamically added here -->
    </div>    ","null","","","","","","","","","","","",""
"","null","html-keyboard-response","365","314111","0.0-15.0-0.11","jBahbwUlSg","66226d60cef946159f07d0f7","6617fad957f7c6a12ea16e26","6622cf6b540afcab7fc7abfc","fixation cross","null","","","","","","","","","","","",""
"","978","html-keyboard-response","366","315089","0.0-15.0-1.11","jBahbwUlSg","66226d60cef946159f07d0f7","6617fad957f7c6a12ea16e26","6622cf6b540afcab7fc7abfc","image grid","q","","","","","Ontogenetic_Distractor_Threat_target","2500","ongrid","q","7","Ontogenetic","true","experimental"
"","null","html-keyboard-response","367","315241","0.0-15.0-2.11","jBahbwUlSg","66226d60cef946159f07d0f7","6617fad957f7c6a12ea16e26","6622cf6b540afcab7fc7abfc","
    <div id=""grid-container"">
        <!-- Grid items will be dynamically added here -->
    </div>    ","null","","","","","","","","","","","",""
"","null","html-keyboard-response","368","315943","0.0-15.0-0.12","jBahbwUlSg","66226d60cef946159f07d0f7","6617fad957f7c6a12ea16e26","6622cf6b540afcab7fc7abfc","fixation cross","null","","","","","","","","","","","",""
"","1369","html-keyboard-response","369","317312","0.0-15.0-1.12","jBahbwUlSg","66226d60cef946159f07d0f7","6617fad957f7c6a12ea16e26","6622cf6b540afcab7fc7abfc","image grid","p","","","","","Ontogenetic_Distractor_notarget","2500","ongrid"," ","8","Ontogenetic","false","experimental"
"","null","html-keyboard-response","370","317464","0.0-15.0-2.12","jBahbwUlSg","66226d60cef946159f07d0f7","6617fad957f7c6a12ea16e26","6622cf6b540afcab7fc7abfc","
    <div id=""grid-container"">
