"success","rt","trial_type","trial_index","time_elapsed","internal_node_id","unique_identifier","subject_id","study_id","session_id","stimulus","response","timeout","failed_images","failed_audio","failed_video","task","respondedwhen","time_manipulation","correctresponse","targetimagelocation","blocktype","correct","roundtype"
"true","2352","fullscreen","0","3355","0.0-0.0","DgUhojZR0x","5cf31154eed13700013c1417","6617fad957f7c6a12ea16e26","6622c1a135e0eaba40993a5a","","","","","","","","","","","","","",""
"","12351","html-keyboard-response","1","15709","0.0-1.0","DgUhojZR0x","5cf31154eed13700013c1417","6617fad957f7c6a12ea16e26","6622c1a135e0eaba40993a5a","instruction screen 0"," ","","","","","","","","","","","",""
"true","","preload","2","18305","0.0-2.0","DgUhojZR0x","5cf31154eed13700013c1417","6617fad957f7c6a12ea16e26","6622c1a135e0eaba40993a5a","","","false","[]","[]","[]","","","","","","","",""
"","32053","html-keyboard-response","3","50360","0.0-3.0","DgUhojZR0x","5cf31154eed13700013c1417","6617fad957f7c6a12ea16e26","6622c1a135e0eaba40993a5a","instruction screen 1"," ","","","","","","","","","","","",""
"","7190","html-keyboard-response","4","57556","0.0-4.0","DgUhojZR0x","5cf31154eed13700013c1417","6617fad957f7c6a12ea16e26","6622c1a135e0eaba40993a5a","instruction screen 2","q","","","","","","","","","","","",""
"","3622","html-keyboard-response","5","61182","0.0-5.0","DgUhojZR0x","5cf31154eed13700013c1417","6617fad957f7c6a12ea16e26","6622c1a135e0eaba40993a5a","instruction screen 3","p","","","","","","","","","","","",""
"","3694","html-keyboard-response","6","64881","0.0-6.0","DgUhojZR0x","5cf31154eed13700013c1417","6617fad957f7c6a12ea16e26","6622c1a135e0eaba40993a5a","instruction screen 4"," ","","","","","","","","","","","",""
"","10635","html-keyboard-response","7","75522","0.0-7.0","DgUhojZR0x","5cf31154eed13700013c1417","6617fad957f7c6a12ea16e26","6622c1a135e0eaba40993a5a","instruction screen 5"," ","","","","","","","","","","","",""
"","null","html-keyboard-response","8","76056","0.0-8.0","DgUhojZR0x","5cf31154eed13700013c1417","6617fad957f7c6a12ea16e26","6622c1a135e0eaba40993a5a","fixation cross","null","","","","","","","","","","","",""
"","null","html-keyboard-response","9","76558","0.0-9.0-0.0","DgUhojZR0x","5cf31154eed13700013c1417","6617fad957f7c6a12ea16e26","6622c1a135e0eaba40993a5a","fixation cross","null","","","","","","","","","","","",""
"","null","html-keyboard-response","10","79560","0.0-9.0-1.0","DgUhojZR0x","5cf31154eed13700013c1417","6617fad957f7c6a12ea16e26","6622c1a135e0eaba40993a5a","
        <div id=""grid-container"">
        <!-- Grid items will be dynamically added here -->
    </div>    ","null","","","","","","","","","","","",""
"","3018","html-keyboard-response","11","79621","0.0-9.0-2.0","DgUhojZR0x","5cf31154eed13700013c1417","6617fad957f7c6a12ea16e26","6622c1a135e0eaba40993a5a","mask grid","p","","","","","Phylogenetic_Distractor_Threat_target","onmask","3000","q","5","Phylogenetic","false","practice"
"","null","html-keyboard-response","12","80824","0.0-9.0-3.0","DgUhojZR0x","5cf31154eed13700013c1417","6617fad957f7c6a12ea16e26","6622c1a135e0eaba40993a5a","feedback screen","null","","","","","","","","","","","",""
"","null","html-keyboard-response","13","81331","0.0-9.0-0.1","DgUhojZR0x","5cf31154eed13700013c1417","6617fad957f7c6a12ea16e26","6622c1a135e0eaba40993a5a","fixation cross","null","","","","","","","","","","","",""
"","2125","html-keyboard-response","14","83457","0.0-9.0-1.1","DgUhojZR0x","5cf31154eed13700013c1417","6617fad957f7c6a12ea16e26","6622c1a135e0eaba40993a5a","image grid","q","","","","","Phylogenetic_Distractor_Threat_target","ongrid","2900","q","9","Phylogenetic","true","practice"
"","null","html-keyboard-response","15","83608","0.0-9.0-2.1","DgUhojZR0x","5cf31154eed13700013c1417","6617fad957f7c6a12ea16e26","6622c1a135e0eaba40993a5a","
    <div id=""grid-container"">
        <!-- Grid items will be dynamically added here -->
    </div>    ","null","","","","","","","","","","","",""
"","null","html-keyboard-response","16","84811","0.0-9.0-3.1","DgUhojZR0x","5cf31154eed13700013c1417","6617fad957f7c6a12ea16e26","6622c1a135e0eaba40993a5a","feedback screen","null","","","","","","","","","","","",""
"","null","html-keyboard-response","17","85315","0.0-9.0-0.2","DgUhojZR0x","5cf31154eed13700013c1417","6617fad957f7c6a12ea16e26","6622c1a135e0eaba40993a5a","fixation cross","null","","","","","","","","","","","",""
"","1787","html-keyboard-response","18","87102","0.0-9.0-1.2","DgUhojZR0x","5cf31154eed13700013c1417","6617fad957f7c6a12ea16e26","6622c1a135e0eaba40993a5a","image grid","p","","","","","Ontogenetic_Distractor_Nonthreat_target","ongrid","2800","p","4","Phylogenetic","true","practice"
"","null","html-keyboard-response","19","87254","0.0-9.0-2.2","DgUhojZR0x","5cf31154eed13700013c1417","6617fad957f7c6a12ea16e26","6622c1a135e0eaba40993a5a","
    <div id=""grid-container"">
        <!-- Grid items will be dynamically added here -->
    </div>    ","null","","","","","","","","","","","",""
"","null","html-keyboard-response","20","88458","0.0-9.0-3.2","DgUhojZR0x","5cf31154eed13700013c1417","6617fad957f7c6a12ea16e26","6622c1a135e0eaba40993a5a","feedback screen","null","","","","","","","","","","","",""
"","null","html-keyboard-response","21","88964","0.0-9.0-0.3","DgUhojZR0x","5cf31154eed13700013c1417","6617fad957f7c6a12ea16e26","6622c1a135e0eaba40993a5a","fixation cross","null","","","","","","","","","","","",""
"","1062","html-keyboard-response","22","90026","0.0-9.0-1.3","DgUhojZR0x","5cf31154eed13700013c1417","6617fad957f7c6a12ea16e26","6622c1a135e0eaba40993a5a","image grid","q","","","","","Ontogenetic_Distractor_Threat_target","ongrid","2700","q","8","Phylogenetic","true","practice"
"","null","html-keyboard-response","23","90179","0.0-9.0-2.3","DgUhojZR0x","5cf31154eed13700013c1417","6617fad957f7c6a12ea16e26","6622c1a135e0eaba40993a5a","
    <div id=""grid-container"">
        <!-- Grid items will be dynamically added here -->
    </div>    ","null","","","","","","","","","","","",""
"","null","html-keyboard-response","24","91381","0.0-9.0-3.3","DgUhojZR0x","5cf31154eed13700013c1417","6617fad957f7c6a12ea16e26","6622c1a135e0eaba40993a5a","feedback screen","null","","","","","","","","","","","",""
"","null","html-keyboard-response","25","91888","0.0-9.0-0.4","DgUhojZR0x","5cf31154eed13700013c1417","6617fad957f7c6a12ea16e26","6622c1a135e0eaba40993a5a","fixation cross","null","","","","","","","","","","","",""
"","1268","html-keyboard-response","26","93156","0.0-9.0-1.4","DgUhojZR0x","5cf31154eed13700013c1417","6617fad957f7c6a12ea16e26","6622c1a135e0eaba40993a5a","image grid","p","","","","","Phylogenetic_Distractor_Threat_target","ongrid","2600","q","6","Phylogenetic","false","practice"
"","null","html-keyboard-response","27","93307","0.0-9.0-2.4","DgUhojZR0x","5cf31154eed13700013c1417","6617fad957f7c6a12ea16e26","6622c1a135e0eaba40993a5a","
    <div id=""grid-container"">
        <!-- Grid items will be dynamically added here -->
    </div>    ","null","","","","","","","","","","","",""
"","null","html-keyboard-response","28","94510","0.0-9.0-3.4","DgUhojZR0x","5cf31154eed13700013c1417","6617fad957f7c6a12ea16e26","6622c1a135e0eaba40993a5a","feedback screen","null","","","","","","","","","","","",""
"","null","html-keyboard-response","29","95014","0.0-9.0-0.5","DgUhojZR0x","5cf31154eed13700013c1417","6617fad957f7c6a12ea16e26","6622c1a135e0eaba40993a5a","fixation cross","null","","","","","","","","","","","",""
"","null","html-keyboard-response","30","97517","0.0-9.0-1.5","DgUhojZR0x","5cf31154eed13700013c1417","6617fad957f7c6a12ea16e26","6622c1a135e0eaba40993a5a","
        <div id=""grid-container"">
        <!-- Grid items will be dynamically added here -->
    </div>    ","null","","","","","","","","","","","",""
"","2779","html-keyboard-response","31","97796","0.0-9.0-2.5","DgUhojZR0x","5cf31154eed13700013c1417","6617fad957f7c6a12ea16e26","6622c1a135e0eaba40993a5a","mask grid","p","","","","","Phylogenetic_Distractor_notarget","onmask","2500"," ","2","Phylogenetic","false","practice"
"","null","html-keyboard-response","32","99000","0.0-9.0-3.5","DgUhojZR0x","5cf31154eed13700013c1417","6617fad957f7c6a12ea16e26","6622c1a135e0eaba40993a5a","feedback screen","null","","","","","","","","","","","",""
"","null","html-keyboard-response","33","99504","0.0-9.0-0.6","DgUhojZR0x","5cf31154eed13700013c1417","6617fad957f7c6a12ea16e26","6622c1a135e0eaba40993a5a","fixation cross","null","","","","","","","","","","","",""
"","1385","html-keyboard-response","34","100890","0.0-9.0-1.6","DgUhojZR0x","5cf31154eed13700013c1417","6617fad957f7c6a12ea16e26","6622c1a135e0eaba40993a5a","image grid","p","","","","","Ontogenetic_Distractor_notarget","ongrid","2400"," ","4","Phylogenetic","false","practice"
"","null","html-keyboard-response","35","101042","0.0-9.0-2.6","DgUhojZR0x","5cf31154eed13700013c1417","6617fad957f7c6a12ea16e26","6622c1a135e0eaba40993a5a","
    <div id=""grid-container"">
        <!-- Grid items will be dynamically added here -->
    </div>    ","null","","","","","","","","","","","",""
"","null","html-keyboard-response","36","102245","0.0-9.0-3.6","DgUhojZR0x","5cf31154eed13700013c1417","6617fad957f7c6a12ea16e26","6622c1a135e0eaba40993a5a","feedback screen","null","","","","","","","","","","","",""
"","null","html-keyboard-response","37","102752","0.0-9.0-0.7","DgUhojZR0x","5cf31154eed13700013c1417","6617fad957f7c6a12ea16e26","6622c1a135e0eaba40993a5a","fixation cross","null","","","","","","","","","","","",""
"","1203","html-keyboard-response","38","103956","0.0-9.0-1.7","DgUhojZR0x","5cf31154eed13700013c1417","6617fad957f7c6a12ea16e26","6622c1a135e0eaba40993a5a","image grid","p","","","","","Ontogenetic_Distractor_Nonthreat_target","ongrid","2300","p","3","Phylogenetic","true","practice"
"","null","html-keyboard-response","39","104108","0.0-9.0-2.7","DgUhojZR0x","5cf31154eed13700013c1417","6617fad957f7c6a12ea16e26","6622c1a135e0eaba40993a5a","
    <div id=""grid-container"">
        <!-- Grid items will be dynamically added here -->
    </div>    ","null","","","","","","","","","","","",""
"","null","html-keyboard-response","40","105310","0.0-9.0-3.7","DgUhojZR0x","5cf31154eed13700013c1417","6617fad957f7c6a12ea16e26","6622c1a135e0eaba40993a5a","feedback screen","null","","","","","","","","","","","",""
"","null","html-keyboard-response","41","105814","0.0-9.0-0.8","DgUhojZR0x","5cf31154eed13700013c1417","6617fad957f7c6a12ea16e26","6622c1a135e0eaba40993a5a","fixation cross","null","","","","","","","","","","","",""
"","2058","html-keyboard-response","42","107872","0.0-9.0-1.8","DgUhojZR0x","5cf31154eed13700013c1417","6617fad957f7c6a12ea16e26","6622c1a135e0eaba40993a5a","image grid","q","","","","","Phylogenetic_Distractor_Nonthreat_target","ongrid","2200","p","1","Phylogenetic","false","practice"
"","null","html-keyboard-response","43","108025","0.0-9.0-2.8","DgUhojZR0x","5cf31154eed13700013c1417","6617fad957f7c6a12ea16e26","6622c1a135e0eaba40993a5a","
    <div id=""grid-container"">
        <!-- Grid items will be dynamically added here -->
    </div>    ","null","","","","","","","","","","","",""
"","null","html-keyboard-response","44","109230","0.0-9.0-3.8","DgUhojZR0x","5cf31154eed13700013c1417","6617fad957f7c6a12ea16e26","6622c1a135e0eaba40993a5a","feedback screen","null","","","","","","","","","","","",""
"","null","html-keyboard-response","45","109734","0.0-9.0-0.9","DgUhojZR0x","5cf31154eed13700013c1417","6617fad957f7c6a12ea16e26","6622c1a135e0eaba40993a5a","fixation cross","null","","","","","","","","","","","",""
"","1837","html-keyboard-response","46","111572","0.0-9.0-1.9","DgUhojZR0x","5cf31154eed13700013c1417","6617fad957f7c6a12ea16e26","6622c1a135e0eaba40993a5a","image grid","p","","","","","Phylogenetic_Distractor_Nonthreat_target","ongrid","2100","p","7","Phylogenetic","true","practice"
"","null","html-keyboard-response","47","111725","0.0-9.0-2.9","DgUhojZR0x","5cf31154eed13700013c1417","6617fad957f7c6a12ea16e26","6622c1a135e0eaba40993a5a","
    <div id=""grid-container"">
        <!-- Grid items will be dynamically added here -->
    </div>    ","null","","","","","","","","","","","",""
"","null","html-keyboard-response","48","112929","0.0-9.0-3.9","DgUhojZR0x","5cf31154eed13700013c1417","6617fad957f7c6a12ea16e26","6622c1a135e0eaba40993a5a","feedback screen","null","","","","","","","","","","","",""
"","null","html-keyboard-response","49","113435","0.0-9.0-0.10","DgUhojZR0x","5cf31154eed13700013c1417","6617fad957f7c6a12ea16e26","6622c1a135e0eaba40993a5a","fixation cross","null","","","","","","","","","","","",""
"","1750","html-keyboard-response","50","115185","0.0-9.0-1.10","DgUhojZR0x","5cf31154eed13700013c1417","6617fad957f7c6a12ea16e26","6622c1a135e0eaba40993a5a","image grid","p","","","","","Phylogenetic_Distractor_Nonthreat_target","ongrid","2000","p","9","Phylogenetic","true","practice"
"","null","html-keyboard-response","51","115337","0.0-9.0-2.10","DgUhojZR0x","5cf31154eed13700013c1417","6617fad957f7c6a12ea16e26","6622c1a135e0eaba40993a5a","
    <div id=""grid-container"">
        <!-- Grid items will be dynamically added here -->
    </div>    ","null","","","","","","","","","","","",""
"","null","html-keyboard-response","52","116540","0.0-9.0-3.10","DgUhojZR0x","5cf31154eed13700013c1417","6617fad957f7c6a12ea16e26","6622c1a135e0eaba40993a5a","feedback screen","null","","","","","","","","","","","",""
"","null","html-keyboard-response","53","117047","0.0-9.0-0.11","DgUhojZR0x","5cf31154eed13700013c1417","6617fad957f7c6a12ea16e26","6622c1a135e0eaba40993a5a","fixation cross","null","","","","","","","","","","","",""
"","1094","html-keyboard-response","54","118141","0.0-9.0-1.11","DgUhojZR0x","5cf31154eed13700013c1417","6617fad957f7c6a12ea16e26","6622c1a135e0eaba40993a5a","image grid","q","","","","","Ontogenetic_Distractor_Threat_target","ongrid","1900","q","8","Phylogenetic","true","practice"
"","null","html-keyboard-response","55","118293","0.0-9.0-2.11","DgUhojZR0x","5cf31154eed13700013c1417","6617fad957f7c6a12ea16e26","6622c1a135e0eaba40993a5a","
    <div id=""grid-container"">
        <!-- Grid items will be dynamically added here -->
    </div>    ","null","","","","","","","","","","","",""
"","null","html-keyboard-response","56","119496","0.0-9.0-3.11","DgUhojZR0x","5cf31154eed13700013c1417","6617fad957f7c6a12ea16e26","6622c1a135e0eaba40993a5a","feedback screen","null","","","","","","","","","","","",""
"","null","html-keyboard-response","57","120000","0.0-9.0-0.12","DgUhojZR0x","5cf31154eed13700013c1417","6617fad957f7c6a12ea16e26","6622c1a135e0eaba40993a5a","fixation cross","null","","","","","","","","","","","",""
"","null","html-keyboard-response","58","121802","0.0-9.0-1.12","DgUhojZR0x","5cf31154eed13700013c1417","6617fad957f7c6a12ea16e26","6622c1a135e0eaba40993a5a","
        <div id=""grid-container"">
        <!-- Grid items will be dynamically added here -->
    </div>    ","null","","","","","","","","","","","",""
"","1836","html-keyboard-response","59","121839","0.0-9.0-2.12","DgUhojZR0x","5cf31154eed13700013c1417","6617fad957f7c6a12ea16e26","6622c1a135e0eaba40993a5a","mask grid","p","","","","","Phylogenetic_Distractor_notarget","onmask","1800"," ","6","Phylogenetic","false","practice"
"","null","html-keyboard-response","60","123043","0.0-9.0-3.12","DgUhojZR0x","5cf31154eed13700013c1417","6617fad957f7c6a12ea16e26","6622c1a135e0eaba40993a5a","feedback screen","null","","","","","","","","","","","",""
"","null","html-keyboard-response","61","123549","0.0-9.0-0.13","DgUhojZR0x","5cf31154eed13700013c1417","6617fad957f7c6a12ea16e26","6622c1a135e0eaba40993a5a","fixation cross","null","","","","","","","","","","","",""
"","null","html-keyboard-response","62","125251","0.0-9.0-1.13","DgUhojZR0x","5cf31154eed13700013c1417","6617fad957f7c6a12ea16e26","6622c1a135e0eaba40993a5a","
        <div id=""grid-container"">
        <!-- Grid items will be dynamically added here -->
    </div>    ","null","","","","","","","","","","","",""
"","1972","html-keyboard-response","63","125523","0.0-9.0-2.13","DgUhojZR0x","5cf31154eed13700013c1417","6617fad957f7c6a12ea16e26","6622c1a135e0eaba40993a5a","mask grid"," ","","","","","Ontogenetic_Distractor_notarget","onmask","1700"," ","5","Phylogenetic","true","practice"
"","null","html-keyboard-response","64","126728","0.0-9.0-3.13","DgUhojZR0x","5cf31154eed13700013c1417","6617fad957f7c6a12ea16e26","6622c1a135e0eaba40993a5a","feedback screen","null","","","","","","","","","","","",""
"","null","html-keyboard-response","65","127234","0.0-9.0-0.14","DgUhojZR0x","5cf31154eed13700013c1417","6617fad957f7c6a12ea16e26","6622c1a135e0eaba40993a5a","fixation cross","null","","","","","","","","","","","",""
"","1300","html-keyboard-response","66","128535","0.0-9.0-1.14","DgUhojZR0x","5cf31154eed13700013c1417","6617fad957f7c6a12ea16e26","6622c1a135e0eaba40993a5a","image grid"," ","","","","","Phylogenetic_Distractor_Nonthreat_target","ongrid","1600","p","4","Phylogenetic","false","practice"
"","null","html-keyboard-response","67","128687","0.0-9.0-2.14","DgUhojZR0x","5cf31154eed13700013c1417","6617fad957f7c6a12ea16e26","6622c1a135e0eaba40993a5a","
    <div id=""grid-container"">
        <!-- Grid items will be dynamically added here -->
    </div>    ","null","","","","","","","","","","","",""
"","null","html-keyboard-response","68","129890","0.0-9.0-3.14","DgUhojZR0x","5cf31154eed13700013c1417","6617fad957f7c6a12ea16e26","6622c1a135e0eaba40993a5a","feedback screen","null","","","","","","","","","","","",""
"","null","html-keyboard-response","69","130397","0.0-9.0-0.15","DgUhojZR0x","5cf31154eed13700013c1417","6617fad957f7c6a12ea16e26","6622c1a135e0eaba40993a5a","fixation cross","null","","","","","","","","","","","",""
"","1346","html-keyboard-response","70","131744","0.0-9.0-1.15","DgUhojZR0x","5cf31154eed13700013c1417","6617fad957f7c6a12ea16e26","6622c1a135e0eaba40993a5a","image grid","q","","","","","Ontogenetic_Distractor_Threat_target","ongrid","1500","q","5","Phylogenetic","true","practice"
"","null","html-keyboard-response","71","131896","0.0-9.0-2.15","DgUhojZR0x","5cf31154eed13700013c1417","6617fad957f7c6a12ea16e26","6622c1a135e0eaba40993a5a","
    <div id=""grid-container"">
        <!-- Grid items will be dynamically added here -->
    </div>    ","null","","","","","","","","","","","",""
"","null","html-keyboard-response","72","133100","0.0-9.0-3.15","DgUhojZR0x","5cf31154eed13700013c1417","6617fad957f7c6a12ea16e26","6622c1a135e0eaba40993a5a","feedback screen","null","","","","","","","","","","","",""
"","null","html-keyboard-response","73","133604","0.0-9.0-0.16","DgUhojZR0x","5cf31154eed13700013c1417","6617fad957f7c6a12ea16e26","6622c1a135e0eaba40993a5a","fixation cross","null","","","","","","","","","","","",""
"","1310","html-keyboard-response","74","134915","0.0-9.0-1.16","DgUhojZR0x","5cf31154eed13700013c1417","6617fad957f7c6a12ea16e26","6622c1a135e0eaba40993a5a","image grid","p","","","","","Ontogenetic_Distractor_Nonthreat_target","ongrid","1400","p","3","Phylogenetic","true","practice"
"","null","html-keyboard-response","75","135065","0.0-9.0-2.16","DgUhojZR0x","5cf31154eed13700013c1417","6617fad957f7c6a12ea16e26","6622c1a135e0eaba40993a5a","
    <div id=""grid-container"">
        <!-- Grid items will be dynamically added here -->
    </div>    ","null","","","","","","","","","","","",""
"","null","html-keyboard-response","76","136269","0.0-9.0-3.16","DgUhojZR0x","5cf31154eed13700013c1417","6617fad957f7c6a12ea16e26","6622c1a135e0eaba40993a5a","feedback screen","null","","","","","","","","","","","",""
"","null","html-keyboard-response","77","136776","0.0-9.0-0.17","DgUhojZR0x","5cf31154eed13700013c1417","6617fad957f7c6a12ea16e26","6622c1a135e0eaba40993a5a","fixation cross","null","","","","","","","","","","","",""
"","null","html-keyboard-response","78","138078","0.0-9.0-1.17","DgUhojZR0x","5cf31154eed13700013c1417","6617fad957f7c6a12ea16e26","6622c1a135e0eaba40993a5a","
        <div id=""grid-container"">
        <!-- Grid items will be dynamically added here -->
    </div>    ","null","","","","","","","","","","","",""
"","1549","html-keyboard-response","79","138328","0.0-9.0-2.17","DgUhojZR0x","5cf31154eed13700013c1417","6617fad957f7c6a12ea16e26","6622c1a135e0eaba40993a5a","mask grid","q","","","","","Phylogenetic_Distractor_Threat_target","onmask","1300","q","6","Phylogenetic","true","practice"
"","null","html-keyboard-response","80","139531","0.0-9.0-3.17","DgUhojZR0x","5cf31154eed13700013c1417","6617fad957f7c6a12ea16e26","6622c1a135e0eaba40993a5a","feedback screen","null","","","","","","","","","","","",""
"","null","html-keyboard-response","81","140037","0.0-9.0-0.18","DgUhojZR0x","5cf31154eed13700013c1417","6617fad957f7c6a12ea16e26","6622c1a135e0eaba40993a5a","fixation cross","null","","","","","","","","","","","",""
"","752","html-keyboard-response","82","140790","0.0-9.0-1.18","DgUhojZR0x","5cf31154eed13700013c1417","6617fad957f7c6a12ea16e26","6622c1a135e0eaba40993a5a","image grid","q","","","","","Ontogenetic_Distractor_Threat_target","ongrid","1200","q","5","Phylogenetic","true","practice"
"","null","html-keyboard-response","83","140942","0.0-9.0-2.18","DgUhojZR0x","5cf31154eed13700013c1417","6617fad957f7c6a12ea16e26","6622c1a135e0eaba40993a5a","
    <div id=""grid-container"">
        <!-- Grid items will be dynamically added here -->
    </div>    ","null","","","","","","","","","","","",""
"","null","html-keyboard-response","84","142145","0.0-9.0-3.18","DgUhojZR0x","5cf31154eed13700013c1417","6617fad957f7c6a12ea16e26","6622c1a135e0eaba40993a5a","feedback screen","null","","","","","","","","","","","",""
"","null","html-keyboard-response","85","142649","0.0-9.0-0.19","DgUhojZR0x","5cf31154eed13700013c1417","6617fad957f7c6a12ea16e26","6622c1a135e0eaba40993a5a","fixation cross","null","","","","","","","","","","","",""
"","921","html-keyboard-response","86","143571","0.0-9.0-1.19","DgUhojZR0x","5cf31154eed13700013c1417","6617fad957f7c6a12ea16e26","6622c1a135e0eaba40993a5a","image grid","p","","","","","Ontogenetic_Distractor_Nonthreat_target","ongrid","1100","p","6","Phylogenetic","true","practice"
"","null","html-keyboard-response","87","143724","0.0-9.0-2.19","DgUhojZR0x","5cf31154eed13700013c1417","6617fad957f7c6a12ea16e26","6622c1a135e0eaba40993a5a","
    <div id=""grid-container"">
        <!-- Grid items will be dynamically added here -->
    </div>    ","null","","","","","","","","","","","",""
"","null","html-keyboard-response","88","144927","0.0-9.0-3.19","DgUhojZR0x","5cf31154eed13700013c1417","6617fad957f7c6a12ea16e26","6622c1a135e0eaba40993a5a","feedback screen","null","","","","","","","","","","","",""
"","4376","html-keyboard-response","89","149340","0.0-10.0","DgUhojZR0x","5cf31154eed13700013c1417","6617fad957f7c6a12ea16e26","6622c1a135e0eaba40993a5a","pre-experimental_briefing"," ","","","","","","","","","","","",""
"","null","html-keyboard-response","90","151877","0.0-11.0-0.0","DgUhojZR0x","5cf31154eed13700013c1417","6617fad957f7c6a12ea16e26","6622c1a135e0eaba40993a5a","fixation cross","null","","","","","","","","","","","",""
"","1452","html-keyboard-response","91","153330","0.0-11.0-1.0","DgUhojZR0x","5cf31154eed13700013c1417","6617fad957f7c6a12ea16e26","6622c1a135e0eaba40993a5a","image grid","p","","","","","Phylogenetic_Distractor_notarget","ongrid","2500"," ","9","Phylogenetic","false","experimental"
"","null","html-keyboard-response","92","153482","0.0-11.0-2.0","DgUhojZR0x","5cf31154eed13700013c1417","6617fad957f7c6a12ea16e26","6622c1a135e0eaba40993a5a","
    <div id=""grid-container"">
        <!-- Grid items will be dynamically added here -->
    </div>    ","null","","","","","","","","","","","",""
"","null","html-keyboard-response","93","154184","0.0-11.0-0.1","DgUhojZR0x","5cf31154eed13700013c1417","6617fad957f7c6a12ea16e26","6622c1a135e0eaba40993a5a","fixation cross","null","","","","","","","","","","","",""
"","1529","html-keyboard-response","94","155714","0.0-11.0-1.1","DgUhojZR0x","5cf31154eed13700013c1417","6617fad957f7c6a12ea16e26","6622c1a135e0eaba40993a5a","image grid","p","","","","","Phylogenetic_Distractor_Nonthreat_target","ongrid","2500","p","5","Phylogenetic","true","experimental"
"","null","html-keyboard-response","95","155866","0.0-11.0-2.1","DgUhojZR0x","5cf31154eed13700013c1417","6617fad957f7c6a12ea16e26","6622c1a135e0eaba40993a5a","
    <div id=""grid-container"">
        <!-- Grid items will be dynamically added here -->
    </div>    ","null","","","","","","","","","","","",""
"","null","html-keyboard-response","96","156570","0.0-11.0-0.2","DgUhojZR0x","5cf31154eed13700013c1417","6617fad957f7c6a12ea16e26","6622c1a135e0eaba40993a5a","fixation cross","null","","","","","","","","","","","",""
"","1257","html-keyboard-response","97","157828","0.0-11.0-1.2","DgUhojZR0x","5cf31154eed13700013c1417","6617fad957f7c6a12ea16e26","6622c1a135e0eaba40993a5a","image grid","p","","","","","Phylogenetic_Distractor_Threat_target","ongrid","2500","q","8","Phylogenetic","false","experimental"
"","null","html-keyboard-response","98","157981","0.0-11.0-2.2","DgUhojZR0x","5cf31154eed13700013c1417","6617fad957f7c6a12ea16e26","6622c1a135e0eaba40993a5a","
    <div id=""grid-container"">
        <!-- Grid items will be dynamically added here -->
    </div>    ","null","","","","","","","","","","","",""
"","112","html-keyboard-response","99","158684","0.0-11.0-0.3","DgUhojZR0x","5cf31154eed13700013c1417","6617fad957f7c6a12ea16e26","6622c1a135e0eaba40993a5a","fixation cross","q","","","","","","","","","","","",""
"","1530","html-keyboard-response","100","160214","0.0-11.0-1.3","DgUhojZR0x","5cf31154eed13700013c1417","6617fad957f7c6a12ea16e26","6622c1a135e0eaba40993a5a","image grid","p","","","","","Phylogenetic_Distractor_notarget","ongrid","2500"," ","1","Phylogenetic","false","experimental"
"","null","html-keyboard-response","101","160365","0.0-11.0-2.3","DgUhojZR0x","5cf31154eed13700013c1417","6617fad957f7c6a12ea16e26","6622c1a135e0eaba40993a5a","
    <div id=""grid-container"">
        <!-- Grid items will be dynamically added here -->
    </div>    ","null","","","","","","","","","","","",""
"","null","html-keyboard-response","102","161067","0.0-11.0-0.4","DgUhojZR0x","5cf31154eed13700013c1417","6617fad957f7c6a12ea16e26","6622c1a135e0eaba40993a5a","fixation cross","null","","","","","","","","","","","",""
"","997","html-keyboard-response","103","162064","0.0-11.0-1.4","DgUhojZR0x","5cf31154eed13700013c1417","6617fad957f7c6a12ea16e26","6622c1a135e0eaba40993a5a","image grid","q","","","","","Phylogenetic_Distractor_Threat_target","ongrid","2500","q","4","Phylogenetic","true","experimental"
"","null","html-keyboard-response","104","162217","0.0-11.0-2.4","DgUhojZR0x","5cf31154eed13700013c1417","6617fad957f7c6a12ea16e26","6622c1a135e0eaba40993a5a","
    <div id=""grid-container"">
        <!-- Grid items will be dynamically added here -->
    </div>    ","null","","","","","","","","","","","",""
"","null","html-keyboard-response","105","162920","0.0-11.0-0.5","DgUhojZR0x","5cf31154eed13700013c1417","6617fad957f7c6a12ea16e26","6622c1a135e0eaba40993a5a","fixation cross","null","","","","","","","","","","","",""
"","1554","html-keyboard-response","106","164475","0.0-11.0-1.5","DgUhojZR0x","5cf31154eed13700013c1417","6617fad957f7c6a12ea16e26","6622c1a135e0eaba40993a5a","image grid","p","","","","","Phylogenetic_Distractor_Nonthreat_target","ongrid","2500","p","9","Phylogenetic","true","experimental"
"","null","html-keyboard-response","107","164627","0.0-11.0-2.5","DgUhojZR0x","5cf31154eed13700013c1417","6617fad957f7c6a12ea16e26","6622c1a135e0eaba40993a5a","
    <div id=""grid-container"">
        <!-- Grid items will be dynamically added here -->
    </div>    ","null","","","","","","","","","","","",""
"","null","html-keyboard-response","108","165332","0.0-11.0-0.6","DgUhojZR0x","5cf31154eed13700013c1417","6617fad957f7c6a12ea16e26","6622c1a135e0eaba40993a5a","fixation cross","null","","","","","","","","","","","",""
"","1157","html-keyboard-response","109","166490","0.0-11.0-1.6","DgUhojZR0x","5cf31154eed13700013c1417","6617fad957f7c6a12ea16e26","6622c1a135e0eaba40993a5a","image grid","p","","","","","Phylogenetic_Distractor_Nonthreat_target","ongrid","2500","p","6","Phylogenetic","true","experimental"
"","null","html-keyboard-response","110","166642","0.0-11.0-2.6","DgUhojZR0x","5cf31154eed13700013c1417","6617fad957f7c6a12ea16e26","6622c1a135e0eaba40993a5a","
    <div id=""grid-container"">
        <!-- Grid items will be dynamically added here -->
    </div>    ","null","","","","","","","","","","","",""
"","null","html-keyboard-response","111","167345","0.0-11.0-0.7","DgUhojZR0x","5cf31154eed13700013c1417","6617fad957f7c6a12ea16e26","6622c1a135e0eaba40993a5a","fixation cross","null","","","","","","","","","","","",""
"","1421","html-keyboard-response","112","168767","0.0-11.0-1.7","DgUhojZR0x","5cf31154eed13700013c1417","6617fad957f7c6a12ea16e26","6622c1a135e0eaba40993a5a","image grid","q","","","","","Phylogenetic_Distractor_Nonthreat_target","ongrid","2500","p","5","Phylogenetic","false","experimental"
"","null","html-keyboard-response","113","168918","0.0-11.0-2.7","DgUhojZR0x","5cf31154eed13700013c1417","6617fad957f7c6a12ea16e26","6622c1a135e0eaba40993a5a","
    <div id=""grid-container"">
        <!-- Grid items will be dynamically added here -->
    </div>    ","null","","","","","","","","","","","",""
"","null","html-keyboard-response","114","169621","0.0-11.0-0.8","DgUhojZR0x","5cf31154eed13700013c1417","6617fad957f7c6a12ea16e26","6622c1a135e0eaba40993a5a","fixation cross","null","","","","","","","","","","","",""
"","1776","html-keyboard-response","115","171397","0.0-11.0-1.8","DgUhojZR0x","5cf31154eed13700013c1417","6617fad957f7c6a12ea16e26","6622c1a135e0eaba40993a5a","image grid","p","","","","","Phylogenetic_Distractor_Threat_target","ongrid","2500","q","2","Phylogenetic","false","experimental"
"","null","html-keyboard-response","116","171548","0.0-11.0-2.8","DgUhojZR0x","5cf31154eed13700013c1417","6617fad957f7c6a12ea16e26","6622c1a135e0eaba40993a5a","
    <div id=""grid-container"">
        <!-- Grid items will be dynamically added here -->
    </div>    ","null","","","","","","","","","","","",""
"","null","html-keyboard-response","117","172252","0.0-11.0-0.9","DgUhojZR0x","5cf31154eed13700013c1417","6617fad957f7c6a12ea16e26","6622c1a135e0eaba40993a5a","fixation cross","null","","","","","","","","","","","",""
"","921","html-keyboard-response","118","173174","0.0-11.0-1.9","DgUhojZR0x","5cf31154eed13700013c1417","6617fad957f7c6a12ea16e26","6622c1a135e0eaba40993a5a","image grid","q","","","","","Phylogenetic_Distractor_Threat_target","ongrid","2500","q","8","Phylogenetic","true","experimental"
"","null","html-keyboard-response","119","173325","0.0-11.0-2.9","DgUhojZR0x","5cf31154eed13700013c1417","6617fad957f7c6a12ea16e26","6622c1a135e0eaba40993a5a","
    <div id=""grid-container"">
        <!-- Grid items will be dynamically added here -->
    </div>    ","null","","","","","","","","","","","",""
"","null","html-keyboard-response","120","174029","0.0-11.0-0.10","DgUhojZR0x","5cf31154eed13700013c1417","6617fad957f7c6a12ea16e26","6622c1a135e0eaba40993a5a","fixation cross","null","","","","","","","","","","","",""
"","1413","html-keyboard-response","121","175443","0.0-11.0-1.10","DgUhojZR0x","5cf31154eed13700013c1417","6617fad957f7c6a12ea16e26","6622c1a135e0eaba40993a5a","image grid","p","","","","","Phylogenetic_Distractor_Nonthreat_target","ongrid","2500","p","2","Phylogenetic","true","experimental"
"","null","html-keyboard-response","122","175596","0.0-11.0-2.10","DgUhojZR0x","5cf31154eed13700013c1417","6617fad957f7c6a12ea16e26","6622c1a135e0eaba40993a5a","
    <div id=""grid-container"">
        <!-- Grid items will be dynamically added here -->
    </div>    ","null","","","","","","","","","","","",""
"","null","html-keyboard-response","123","176300","0.0-11.0-0.11","DgUhojZR0x","5cf31154eed13700013c1417","6617fad957f7c6a12ea16e26","6622c1a135e0eaba40993a5a","fixation cross","null","","","","","","","","","","","",""
"","808","html-keyboard-response","124","177108","0.0-11.0-1.11","DgUhojZR0x","5cf31154eed13700013c1417","6617fad957f7c6a12ea16e26","6622c1a135e0eaba40993a5a","image grid","q","","","","","Phylogenetic_Distractor_Threat_target","ongrid","2500","q","8","Phylogenetic","true","experimental"
"","null","html-keyboard-response","125","177261","0.0-11.0-2.11","DgUhojZR0x","5cf31154eed13700013c1417","6617fad957f7c6a12ea16e26","6622c1a135e0eaba40993a5a","
    <div id=""grid-container"">
        <!-- Grid items will be dynamically added here -->
    </div>    ","null","","","","","","","","","","","",""
"","null","html-keyboard-response","126","177965","0.0-11.0-0.12","DgUhojZR0x","5cf31154eed13700013c1417","6617fad957f7c6a12ea16e26","6622c1a135e0eaba40993a5a","fixation cross","null","","","","","","","","","","","",""
"","1677","html-keyboard-response","127","179643","0.0-11.0-1.12","DgUhojZR0x","5cf31154eed13700013c1417","6617fad957f7c6a12ea16e26","6622c1a135e0eaba40993a5a","image grid","p","","","","","Phylogenetic_Distractor_Threat_target","ongrid","2500","q","2","Phylogenetic","false","experimental"
"","null","html-keyboard-response","128","179795","0.0-11.0-2.12","DgUhojZR0x","5cf31154eed13700013c1417","6617fad957f7c6a12ea16e26","6622c1a135e0eaba40993a5a","
    <div id=""grid-container"">
        <!-- Grid items will be dynamically added here -->
    </div>    ","null","","","","","","","","","","","",""
"","null","html-keyboard-response","129","180498","0.0-11.0-0.13","DgUhojZR0x","5cf31154eed13700013c1417","6617fad957f7c6a12ea16e26","6622c1a135e0eaba40993a5a","fixation cross","null","","","","","","","","","","","",""
"","1937","html-keyboard-response","130","182436","0.0-11.0-1.13","DgUhojZR0x","5cf31154eed13700013c1417","6617fad957f7c6a12ea16e26","6622c1a135e0eaba40993a5a","image grid","q","","","","","Phylogenetic_Distractor_Nonthreat_target","ongrid","2500","p","8","Phylogenetic","false","experimental"
"","null","html-keyboard-response","131","182588","0.0-11.0-2.13","DgUhojZR0x","5cf31154eed13700013c1417","6617fad957f7c6a12ea16e26","6622c1a135e0eaba40993a5a","
    <div id=""grid-container"">
        <!-- Grid items will be dynamically added here -->
    </div>    ","null","","","","","","","","","","","",""
"","null","html-keyboard-response","132","183292","0.0-11.0-0.14","DgUhojZR0x","5cf31154eed13700013c1417","6617fad957f7c6a12ea16e26","6622c1a135e0eaba40993a5a","fixation cross","null","","","","","","","","","","","",""
"","862","html-keyboard-response","133","184155","0.0-11.0-1.14","DgUhojZR0x","5cf31154eed13700013c1417","6617fad957f7c6a12ea16e26","6622c1a135e0eaba40993a5a","image grid","q","","","","","Phylogenetic_Distractor_Threat_target","ongrid","2500","q","7","Phylogenetic","true","experimental"
"","null","html-keyboard-response","134","184308","0.0-11.0-2.14","DgUhojZR0x","5cf31154eed13700013c1417","6617fad957f7c6a12ea16e26","6622c1a135e0eaba40993a5a","
    <div id=""grid-container"">
        <!-- Grid items will be dynamically added here -->
    </div>    ","null","","","","","","","","","","","",""
"","null","html-keyboard-response","135","185011","0.0-11.0-0.15","DgUhojZR0x","5cf31154eed13700013c1417","6617fad957f7c6a12ea16e26","6622c1a135e0eaba40993a5a","fixation cross","null","","","","","","","","","","","",""
"","831","html-keyboard-response","136","185843","0.0-11.0-1.15","DgUhojZR0x","5cf31154eed13700013c1417","6617fad957f7c6a12ea16e26","6622c1a135e0eaba40993a5a","image grid","q","","","","","Phylogenetic_Distractor_Threat_target","ongrid","2500","q","5","Phylogenetic","true","experimental"
"","null","html-keyboard-response","137","185996","0.0-11.0-2.15","DgUhojZR0x","5cf31154eed13700013c1417","6617fad957f7c6a12ea16e26","6622c1a135e0eaba40993a5a","
    <div id=""grid-container"">
        <!-- Grid items will be dynamically added here -->
    </div>    ","null","","","","","","","","","","","",""
"","null","html-keyboard-response","138","186698","0.0-11.0-0.16","DgUhojZR0x","5cf31154eed13700013c1417","6617fad957f7c6a12ea16e26","6622c1a135e0eaba40993a5a","fixation cross","null","","","","","","","","","","","",""
"","1113","html-keyboard-response","139","187812","0.0-11.0-1.16","DgUhojZR0x","5cf31154eed13700013c1417","6617fad957f7c6a12ea16e26","6622c1a135e0eaba40993a5a","image grid","p","","","","","Phylogenetic_Distractor_Nonthreat_target","ongrid","2500","p","7","Phylogenetic","true","experimental"
"","null","html-keyboard-response","140","187964","0.0-11.0-2.16","DgUhojZR0x","5cf31154eed13700013c1417","6617fad957f7c6a12ea16e26","6622c1a135e0eaba40993a5a","
    <div id=""grid-container"">
        <!-- Grid items will be dynamically added here -->
    </div>    ","null","","","","","","","","","","","",""
"","null","html-keyboard-response","141","188667","0.0-11.0-0.17","DgUhojZR0x","5cf31154eed13700013c1417","6617fad957f7c6a12ea16e26","6622c1a135e0eaba40993a5a","fixation cross","null","","","","","","","","","","","",""
"","1829","html-keyboard-response","142","190496","0.0-11.0-1.17","DgUhojZR0x","5cf31154eed13700013c1417","6617fad957f7c6a12ea16e26","6622c1a135e0eaba40993a5a","image grid","p","","","","","Phylogenetic_Distractor_Nonthreat_target","ongrid","2500","p","6","Phylogenetic","true","experimental"
"","null","html-keyboard-response","143","190649","0.0-11.0-2.17","DgUhojZR0x","5cf31154eed13700013c1417","6617fad957f7c6a12ea16e26","6622c1a135e0eaba40993a5a","
    <div id=""grid-container"">
        <!-- Grid items will be dynamically added here -->
    </div>    ","null","","","","","","","","","","","",""
"","null","html-keyboard-response","144","191351","0.0-11.0-0.18","DgUhojZR0x","5cf31154eed13700013c1417","6617fad957f7c6a12ea16e26","6622c1a135e0eaba40993a5a","fixation cross","null","","","","","","","","","","","",""
"","1922","html-keyboard-response","145","193274","0.0-11.0-1.18","DgUhojZR0x","5cf31154eed13700013c1417","6617fad957f7c6a12ea16e26","6622c1a135e0eaba40993a5a","image grid","p","","","","","Phylogenetic_Distractor_notarget","ongrid","2500"," ","1","Phylogenetic","false","experimental"
"","null","html-keyboard-response","146","193425","0.0-11.0-2.18","DgUhojZR0x","5cf31154eed13700013c1417","6617fad957f7c6a12ea16e26","6622c1a135e0eaba40993a5a","
    <div id=""grid-container"">
        <!-- Grid items will be dynamically added here -->
    </div>    ","null","","","","","","","","","","","",""
"","null","html-keyboard-response","147","194129","0.0-11.0-0.19","DgUhojZR0x","5cf31154eed13700013c1417","6617fad957f7c6a12ea16e26","6622c1a135e0eaba40993a5a","fixation cross","null","","","","","","","","","","","",""
"","1517","html-keyboard-response","148","195647","0.0-11.0-1.19","DgUhojZR0x","5cf31154eed13700013c1417","6617fad957f7c6a12ea16e26","6622c1a135e0eaba40993a5a","image grid","p","","","","","Phylogenetic_Distractor_Nonthreat_target","ongrid","2500","p","3","Phylogenetic","true","experimental"
"","null","html-keyboard-response","149","195800","0.0-11.0-2.19","DgUhojZR0x","5cf31154eed13700013c1417","6617fad957f7c6a12ea16e26","6622c1a135e0eaba40993a5a","
    <div id=""grid-container"">
        <!-- Grid items will be dynamically added here -->
    </div>    ","null","","","","","","","","","","","",""
"","null","html-keyboard-response","150","196503","0.0-11.0-0.20","DgUhojZR0x","5cf31154eed13700013c1417","6617fad957f7c6a12ea16e26","6622c1a135e0eaba40993a5a","fixation cross","null","","","","","","","","","","","",""
"","1126","html-keyboard-response","151","197629","0.0-11.0-1.20","DgUhojZR0x","5cf31154eed13700013c1417","6617fad957f7c6a12ea16e26","6622c1a135e0eaba40993a5a","image grid","q","","","","","Phylogenetic_Distractor_Threat_target","ongrid","2500","q","1","Phylogenetic","true","experimental"
"","null","html-keyboard-response","152","197782","0.0-11.0-2.20","DgUhojZR0x","5cf31154eed13700013c1417","6617fad957f7c6a12ea16e26","6622c1a135e0eaba40993a5a","
    <div id=""grid-container"">
        <!-- Grid items will be dynamically added here -->
    </div>    ","null","","","","","","","","","","","",""
"","null","html-keyboard-response","153","198486","0.0-11.0-0.21","DgUhojZR0x","5cf31154eed13700013c1417","6617fad957f7c6a12ea16e26","6622c1a135e0eaba40993a5a","fixation cross","null","","","","","","","","","","","",""
"","1349","html-keyboard-response","154","199835","0.0-11.0-1.21","DgUhojZR0x","5cf31154eed13700013c1417","6617fad957f7c6a12ea16e26","6622c1a135e0eaba40993a5a","image grid","p","","","","","Phylogenetic_Distractor_Nonthreat_target","ongrid","2500","p","1","Phylogenetic","true","experimental"
"","null","html-keyboard-response","155","199987","0.0-11.0-2.21","DgUhojZR0x","5cf31154eed13700013c1417","6617fad957f7c6a12ea16e26","6622c1a135e0eaba40993a5a","
    <div id=""grid-container"">
        <!-- Grid items will be dynamically added here -->
    </div>    ","null","","","","","","","","","","","",""
"","null","html-keyboard-response","156","200690","0.0-11.0-0.22","DgUhojZR0x","5cf31154eed13700013c1417","6617fad957f7c6a12ea16e26","6622c1a135e0eaba40993a5a","fixation cross","null","","","","","","","","","","","",""
"","766","html-keyboard-response","157","201457","0.0-11.0-1.22","DgUhojZR0x","5cf31154eed13700013c1417","6617fad957f7c6a12ea16e26","6622c1a135e0eaba40993a5a","image grid","q","","","","","Phylogenetic_Distractor_Threat_target","ongrid","2500","q","4","Phylogenetic","true","experimental"
"","null","html-keyboard-response","158","201609","0.0-11.0-2.22","DgUhojZR0x","5cf31154eed13700013c1417","6617fad957f7c6a12ea16e26","6622c1a135e0eaba40993a5a","
    <div id=""grid-container"">
        <!-- Grid items will be dynamically added here -->
    </div>    ","null","","","","","","","","","","","",""
"","null","html-keyboard-response","159","202313","0.0-11.0-0.23","DgUhojZR0x","5cf31154eed13700013c1417","6617fad957f7c6a12ea16e26","6622c1a135e0eaba40993a5a","fixation cross","null","","","","","","","","","","","",""
"","671","html-keyboard-response","160","202985","0.0-11.0-1.23","DgUhojZR0x","5cf31154eed13700013c1417","6617fad957f7c6a12ea16e26","6622c1a135e0eaba40993a5a","image grid","q","","","","","Phylogenetic_Distractor_Threat_target","ongrid","2500","q","4","Phylogenetic","true","experimental"
"","null","html-keyboard-response","161","203138","0.0-11.0-2.23","DgUhojZR0x","5cf31154eed13700013c1417","6617fad957f7c6a12ea16e26","6622c1a135e0eaba40993a5a","
    <div id=""grid-container"">
        <!-- Grid items will be dynamically added here -->
    </div>    ","null","","","","","","","","","","","",""
"","null","html-keyboard-response","162","203840","0.0-11.0-0.24","DgUhojZR0x","5cf31154eed13700013c1417","6617fad957f7c6a12ea16e26","6622c1a135e0eaba40993a5a","fixation cross","null","","","","","","","","","","","",""
"","568","html-keyboard-response","163","204409","0.0-11.0-1.24","DgUhojZR0x","5cf31154eed13700013c1417","6617fad957f7c6a12ea16e26","6622c1a135e0eaba40993a5a","image grid","q","","","","","Phylogenetic_Distractor_Threat_target","ongrid","2500","q","4","Phylogenetic","true","experimental"
"","null","html-keyboard-response","164","204561","0.0-11.0-2.24","DgUhojZR0x","5cf31154eed13700013c1417","6617fad957f7c6a12ea16e26","6622c1a135e0eaba40993a5a","
    <div id=""grid-container"">
        <!-- Grid items will be dynamically added here -->
    </div>    ","null","","","","","","","","","","","",""
"","null","html-keyboard-response","165","205265","0.0-11.0-0.25","DgUhojZR0x","5cf31154eed13700013c1417","6617fad957f7c6a12ea16e26","6622c1a135e0eaba40993a5a","fixation cross","null","","","","","","","","","","","",""
"","943","html-keyboard-response","166","206209","0.0-11.0-1.25","DgUhojZR0x","5cf31154eed13700013c1417","6617fad957f7c6a12ea16e26","6622c1a135e0eaba40993a5a","image grid","p","","","","","Phylogenetic_Distractor_Nonthreat_target","ongrid","2500","p","1","Phylogenetic","true","experimental"
"","null","html-keyboard-response","167","206362","0.0-11.0-2.25","DgUhojZR0x","5cf31154eed13700013c1417","6617fad957f7c6a12ea16e26","6622c1a135e0eaba40993a5a","
    <div id=""grid-container"">
        <!-- Grid items will be dynamically added here -->
    </div>    ","null","","","","","","","","","","","",""
"","null","html-keyboard-response","168","207066","0.0-11.0-0.26","DgUhojZR0x","5cf31154eed13700013c1417","6617fad957f7c6a12ea16e26","6622c1a135e0eaba40993a5a","fixation cross","null","","","","","","","","","","","",""
"","724","html-keyboard-response","169","207791","0.0-11.0-1.26","DgUhojZR0x","5cf31154eed13700013c1417","6617fad957f7c6a12ea16e26","6622c1a135e0eaba40993a5a","image grid","p","","","","","Phylogenetic_Distractor_Nonthreat_target","ongrid","2500","p","2","Phylogenetic","true","experimental"
"","null","html-keyboard-response","170","207943","0.0-11.0-2.26","DgUhojZR0x","5cf31154eed13700013c1417","6617fad957f7c6a12ea16e26","6622c1a135e0eaba40993a5a","
    <div id=""grid-container"">
        <!-- Grid items will be dynamically added here -->
    </div>    ","null","","","","","","","","","","","",""
"","null","html-keyboard-response","171","208646","0.0-11.0-0.27","DgUhojZR0x","5cf31154eed13700013c1417","6617fad957f7c6a12ea16e26","6622c1a135e0eaba40993a5a","fixation cross","null","","","","","","","","","","","",""
"","902","html-keyboard-response","172","209548","0.0-11.0-1.27","DgUhojZR0x","5cf31154eed13700013c1417","6617fad957f7c6a12ea16e26","6622c1a135e0eaba40993a5a","image grid","q","","","","","Phylogenetic_Distractor_Threat_target","ongrid","2500","q","3","Phylogenetic","true","experimental"
"","null","html-keyboard-response","173","209700","0.0-11.0-2.27","DgUhojZR0x","5cf31154eed13700013c1417","6617fad957f7c6a12ea16e26","6622c1a135e0eaba40993a5a","
    <div id=""grid-container"">
        <!-- Grid items will be dynamically added here -->
    </div>    ","null","","","","","","","","","","","",""
"","null","html-keyboard-response","174","210403","0.0-11.0-0.28","DgUhojZR0x","5cf31154eed13700013c1417","6617fad957f7c6a12ea16e26","6622c1a135e0eaba40993a5a","fixation cross","null","","","","","","","","","","","",""
"","1446","html-keyboard-response","175","211850","0.0-11.0-1.28","DgUhojZR0x","5cf31154eed13700013c1417","6617fad957f7c6a12ea16e26","6622c1a135e0eaba40993a5a","image grid","q","","","","","Phylogenetic_Distractor_Nonthreat_target","ongrid","2500","p","6","Phylogenetic","false","experimental"
"","null","html-keyboard-response","176","212002","0.0-11.0-2.28","DgUhojZR0x","5cf31154eed13700013c1417","6617fad957f7c6a12ea16e26","6622c1a135e0eaba40993a5a","
    <div id=""grid-container"">
        <!-- Grid items will be dynamically added here -->
    </div>    ","null","","","","","","","","","","","",""
"","null","html-keyboard-response","177","212705","0.0-11.0-0.29","DgUhojZR0x","5cf31154eed13700013c1417","6617fad957f7c6a12ea16e26","6622c1a135e0eaba40993a5a","fixation cross","null","","","","","","","","","","","",""
"","792","html-keyboard-response","178","213498","0.0-11.0-1.29","DgUhojZR0x","5cf31154eed13700013c1417","6617fad957f7c6a12ea16e26","6622c1a135e0eaba40993a5a","image grid","q","","","","","Phylogenetic_Distractor_Threat_target","ongrid","2500","q","6","Phylogenetic","true","experimental"
"","null","html-keyboard-response","179","213650","0.0-11.0-2.29","DgUhojZR0x","5cf31154eed13700013c1417","6617fad957f7c6a12ea16e26","6622c1a135e0eaba40993a5a","
    <div id=""grid-container"">
        <!-- Grid items will be dynamically added here -->
    </div>    ","null","","","","","","","","","","","",""
"","null","html-keyboard-response","180","214353","0.0-11.0-0.30","DgUhojZR0x","5cf31154eed13700013c1417","6617fad957f7c6a12ea16e26","6622c1a135e0eaba40993a5a","fixation cross","null","","","","","","","","","","","",""
"","1154","html-keyboard-response","181","215508","0.0-11.0-1.30","DgUhojZR0x","5cf31154eed13700013c1417","6617fad957f7c6a12ea16e26","6622c1a135e0eaba40993a5a","image grid","q","","","","","Phylogenetic_Distractor_Threat_target","ongrid","2500","q","8","Phylogenetic","true","experimental"
"","null","html-keyboard-response","182","215660","0.0-11.0-2.30","DgUhojZR0x","5cf31154eed13700013c1417","6617fad957f7c6a12ea16e26","6622c1a135e0eaba40993a5a","
    <div id=""grid-container"">
        <!-- Grid items will be dynamically added here -->
    </div>    ","null","","","","","","","","","","","",""
"","null","html-keyboard-response","183","216364","0.0-11.0-0.31","DgUhojZR0x","5cf31154eed13700013c1417","6617fad957f7c6a12ea16e26","6622c1a135e0eaba40993a5a","fixation cross","null","","","","","","","","","","","",""
"","742","html-keyboard-response","184","217107","0.0-11.0-1.31","DgUhojZR0x","5cf31154eed13700013c1417","6617fad957f7c6a12ea16e26","6622c1a135e0eaba40993a5a","image grid","q","","","","","Phylogenetic_Distractor_Threat_target","ongrid","2500","q","9","Phylogenetic","true","experimental"
"","null","html-keyboard-response","185","217259","0.0-11.0-2.31","DgUhojZR0x","5cf31154eed13700013c1417","6617fad957f7c6a12ea16e26","6622c1a135e0eaba40993a5a","
    <div id=""grid-container"">
        <!-- Grid items will be dynamically added here -->
    </div>    ","null","","","","","","","","","","","",""
"","null","html-keyboard-response","186","217964","0.0-11.0-0.32","DgUhojZR0x","5cf31154eed13700013c1417","6617fad957f7c6a12ea16e26","6622c1a135e0eaba40993a5a","fixation cross","null","","","","","","","","","","","",""
"","1490","html-keyboard-response","187","219454","0.0-11.0-1.32","DgUhojZR0x","5cf31154eed13700013c1417","6617fad957f7c6a12ea16e26","6622c1a135e0eaba40993a5a","image grid","p","","","","","Phylogenetic_Distractor_Nonthreat_target","ongrid","2500","p","6","Phylogenetic","true","experimental"
"","null","html-keyboard-response","188","219607","0.0-11.0-2.32","DgUhojZR0x","5cf31154eed13700013c1417","6617fad957f7c6a12ea16e26","6622c1a135e0eaba40993a5a","
    <div id=""grid-container"">
        <!-- Grid items will be dynamically added here -->
    </div>    ","null","","","","","","","","","","","",""
"","null","html-keyboard-response","189","220310","0.0-11.0-0.33","DgUhojZR0x","5cf31154eed13700013c1417","6617fad957f7c6a12ea16e26","6622c1a135e0eaba40993a5a","fixation cross","null","","","","","","","","","","","",""
"","820","html-keyboard-response","190","221131","0.0-11.0-1.33","DgUhojZR0x","5cf31154eed13700013c1417","6617fad957f7c6a12ea16e26","6622c1a135e0eaba40993a5a","image grid","q","","","","","Phylogenetic_Distractor_Threat_target","ongrid","2500","q","3","Phylogenetic","true","experimental"
"","null","html-keyboard-response","191","221283","0.0-11.0-2.33","DgUhojZR0x","5cf31154eed13700013c1417","6617fad957f7c6a12ea16e26","6622c1a135e0eaba40993a5a","
    <div id=""grid-container"">
        <!-- Grid items will be dynamically added here -->
    </div>    ","null","","","","","","","","","","","",""
"","null","html-keyboard-response","192","221987","0.0-11.0-0.34","DgUhojZR0x","5cf31154eed13700013c1417","6617fad957f7c6a12ea16e26","6622c1a135e0eaba40993a5a","fixation cross","null","","","","","","","","","","","",""
"","1633","html-keyboard-response","193","223620","0.0-11.0-1.34","DgUhojZR0x","5cf31154eed13700013c1417","6617fad957f7c6a12ea16e26","6622c1a135e0eaba40993a5a","image grid","p","","","","","Phylogenetic_Distractor_notarget","ongrid","2500"," ","4","Phylogenetic","false","experimental"
"","null","html-keyboard-response","194","223772","0.0-11.0-2.34","DgUhojZR0x","5cf31154eed13700013c1417","6617fad957f7c6a12ea16e26","6622c1a135e0eaba40993a5a","
    <div id=""grid-container"">
        <!-- Grid items will be dynamically added here -->
    </div>    ","null","","","","","","","","","","","",""
"","null","html-keyboard-response","195","224474","0.0-11.0-0.35","DgUhojZR0x","5cf31154eed13700013c1417","6617fad957f7c6a12ea16e26","6622c1a135e0eaba40993a5a","fixation cross","null","","","","","","","","","","","",""
"","992","html-keyboard-response","196","225467","0.0-11.0-1.35","DgUhojZR0x","5cf31154eed13700013c1417","6617fad957f7c6a12ea16e26","6622c1a135e0eaba40993a5a","image grid","p","","","","","Phylogenetic_Distractor_Nonthreat_target","ongrid","2500","p","1","Phylogenetic","true","experimental"
"","null","html-keyboard-response","197","225619","0.0-11.0-2.35","DgUhojZR0x","5cf31154eed13700013c1417","6617fad957f7c6a12ea16e26","6622c1a135e0eaba40993a5a","
    <div id=""grid-container"">
        <!-- Grid items will be dynamically added here -->
    </div>    ","null","","","","","","","","","","","",""
"","null","html-keyboard-response","198","226322","0.0-11.0-0.36","DgUhojZR0x","5cf31154eed13700013c1417","6617fad957f7c6a12ea16e26","6622c1a135e0eaba40993a5a","fixation cross","null","","","","","","","","","","","",""
"","1099","html-keyboard-response","199","227422","0.0-11.0-1.36","DgUhojZR0x","5cf31154eed13700013c1417","6617fad957f7c6a12ea16e26","6622c1a135e0eaba40993a5a","image grid","p","","","","","Phylogenetic_Distractor_Nonthreat_target","ongrid","2500","p","8","Phylogenetic","true","experimental"
"","null","html-keyboard-response","200","227574","0.0-11.0-2.36","DgUhojZR0x","5cf31154eed13700013c1417","6617fad957f7c6a12ea16e26","6622c1a135e0eaba40993a5a","
    <div id=""grid-container"">
        <!-- Grid items will be dynamically added here -->
    </div>    ","null","","","","","","","","","","","",""
"","null","html-keyboard-response","201","228276","0.0-11.0-0.37","DgUhojZR0x","5cf31154eed13700013c1417","6617fad957f7c6a12ea16e26","6622c1a135e0eaba40993a5a","fixation cross","null","","","","","","","","","","","",""
"","735","html-keyboard-response","202","229012","0.0-11.0-1.37","DgUhojZR0x","5cf31154eed13700013c1417","6617fad957f7c6a12ea16e26","6622c1a135e0eaba40993a5a","image grid","p","","","","","Phylogenetic_Distractor_Nonthreat_target","ongrid","2500","p","1","Phylogenetic","true","experimental"
"","null","html-keyboard-response","203","229165","0.0-11.0-2.37","DgUhojZR0x","5cf31154eed13700013c1417","6617fad957f7c6a12ea16e26","6622c1a135e0eaba40993a5a","
    <div id=""grid-container"">
        <!-- Grid items will be dynamically added here -->
    </div>    ","null","","","","","","","","","","","",""
"","null","html-keyboard-response","204","229867","0.0-11.0-0.38","DgUhojZR0x","5cf31154eed13700013c1417","6617fad957f7c6a12ea16e26","6622c1a135e0eaba40993a5a","fixation cross","null","","","","","","","","","","","",""
"","765","html-keyboard-response","205","230632","0.0-11.0-1.38","DgUhojZR0x","5cf31154eed13700013c1417","6617fad957f7c6a12ea16e26","6622c1a135e0eaba40993a5a","image grid","p","","","","","Phylogenetic_Distractor_Nonthreat_target","ongrid","2500","p","1","Phylogenetic","true","experimental"
"","null","html-keyboard-response","206","230785","0.0-11.0-2.38","DgUhojZR0x","5cf31154eed13700013c1417","6617fad957f7c6a12ea16e26","6622c1a135e0eaba40993a5a","
    <div id=""grid-container"">
        <!-- Grid items will be dynamically added here -->
    </div>    ","null","","","","","","","","","","","",""
"","null","html-keyboard-response","207","231488","0.0-11.0-0.39","DgUhojZR0x","5cf31154eed13700013c1417","6617fad957f7c6a12ea16e26","6622c1a135e0eaba40993a5a","fixation cross","null","","","","","","","","","","","",""
"","915","html-keyboard-response","208","232404","0.0-11.0-1.39","DgUhojZR0x","5cf31154eed13700013c1417","6617fad957f7c6a12ea16e26","6622c1a135e0eaba40993a5a","image grid","q","","","","","Phylogenetic_Distractor_Threat_target","ongrid","2500","q","2","Phylogenetic","true","experimental"
"","null","html-keyboard-response","209","232557","0.0-11.0-2.39","DgUhojZR0x","5cf31154eed13700013c1417","6617fad957f7c6a12ea16e26","6622c1a135e0eaba40993a5a","
    <div id=""grid-container"">
        <!-- Grid items will be dynamically added here -->
    </div>    ","null","","","","","","","","","","","",""
"","3898","html-keyboard-response","210","236693","0.0-12.0","DgUhojZR0x","5cf31154eed13700013c1417","6617fad957f7c6a12ea16e26","6622c1a135e0eaba40993a5a","break screen"," ","","","","","","","","","","","",""
"","null","html-keyboard-response","211","239197","0.0-13.0-0.0","DgUhojZR0x","5cf31154eed13700013c1417","6617fad957f7c6a12ea16e26","6622c1a135e0eaba40993a5a","fixation cross","null","","","","","","","","","","","",""
"","796","html-keyboard-response","212","239994","0.0-13.0-1.0","DgUhojZR0x","5cf31154eed13700013c1417","6617fad957f7c6a12ea16e26","6622c1a135e0eaba40993a5a","image grid","q","","","","","Phylogenetic_Distractor_Threat_target","ongrid","800","q","4","Phylogenetic","true","experimental"
"","null","html-keyboard-response","213","240147","0.0-13.0-2.0","DgUhojZR0x","5cf31154eed13700013c1417","6617fad957f7c6a12ea16e26","6622c1a135e0eaba40993a5a","
    <div id=""grid-container"">
        <!-- Grid items will be dynamically added here -->
    </div>    ","null","","","","","","","","","","","",""
"","null","html-keyboard-response","214","240851","0.0-13.0-0.1","DgUhojZR0x","5cf31154eed13700013c1417","6617fad957f7c6a12ea16e26","6622c1a135e0eaba40993a5a","fixation cross","null","","","","","","","","","","","",""
"","null","html-keyboard-response","215","241653","0.0-13.0-1.1","DgUhojZR0x","5cf31154eed13700013c1417","6617fad957f7c6a12ea16e26","6622c1a135e0eaba40993a5a","
        <div id=""grid-container"">
        <!-- Grid items will be dynamically added here -->
    </div>    ","null","","","","","","","","","","","",""
"","4115","html-keyboard-response","216","244969","0.0-13.0-2.1","DgUhojZR0x","5cf31154eed13700013c1417","6617fad957f7c6a12ea16e26","6622c1a135e0eaba40993a5a","mask grid","p","","","","","Phylogenetic_Distractor_Nonthreat_target","onmask","800","p","2","Phylogenetic","true","experimental"
"","null","html-keyboard-response","217","245673","0.0-13.0-0.2","DgUhojZR0x","5cf31154eed13700013c1417","6617fad957f7c6a12ea16e26","6622c1a135e0eaba40993a5a","fixation cross","null","","","","","","","","","","","",""
"","null","html-keyboard-response","218","246475","0.0-13.0-1.2","DgUhojZR0x","5cf31154eed13700013c1417","6617fad957f7c6a12ea16e26","6622c1a135e0eaba40993a5a","
        <div id=""grid-container"">
        <!-- Grid items will be dynamically added here -->
    </div>    ","null","","","","","","","","","","","",""
"","940","html-keyboard-response","219","246615","0.0-13.0-2.2","DgUhojZR0x","5cf31154eed13700013c1417","6617fad957f7c6a12ea16e26","6622c1a135e0eaba40993a5a","mask grid","q","","","","","Phylogenetic_Distractor_Threat_target","onmask","800","q","4","Phylogenetic","true","experimental"
"","null","html-keyboard-response","220","247319","0.0-13.0-0.3","DgUhojZR0x","5cf31154eed13700013c1417","6617fad957f7c6a12ea16e26","6622c1a135e0eaba40993a5a","fixation cross","null","","","","","","","","","","","",""
"","null","html-keyboard-response","221","248120","0.0-13.0-1.3","DgUhojZR0x","5cf31154eed13700013c1417","6617fad957f7c6a12ea16e26","6622c1a135e0eaba40993a5a","
        <div id=""grid-container"">
        <!-- Grid items will be dynamically added here -->
    </div>    ","null","","","","","","","","","","","",""
"","970","html-keyboard-response","222","248291","0.0-13.0-2.3","DgUhojZR0x","5cf31154eed13700013c1417","6617fad957f7c6a12ea16e26","6622c1a135e0eaba40993a5a","mask grid","q","","","","","Phylogenetic_Distractor_Threat_target","onmask","800","q","2","Phylogenetic","true","experimental"
"","null","html-keyboard-response","223","248995","0.0-13.0-0.4","DgUhojZR0x","5cf31154eed13700013c1417","6617fad957f7c6a12ea16e26","6622c1a135e0eaba40993a5a","fixation cross","null","","","","","","","","","","","",""
"","684","html-keyboard-response","224","249679","0.0-13.0-1.4","DgUhojZR0x","5cf31154eed13700013c1417","6617fad957f7c6a12ea16e26","6622c1a135e0eaba40993a5a","image grid","q","","","","","Phylogenetic_Distractor_Threat_target","ongrid","800","q","4","Phylogenetic","true","experimental"
"","null","html-keyboard-response","225","249831","0.0-13.0-2.4","DgUhojZR0x","5cf31154eed13700013c1417","6617fad957f7c6a12ea16e26","6622c1a135e0eaba40993a5a","
    <div id=""grid-container"">
        <!-- Grid items will be dynamically added here -->
    </div>    ","null","","","","","","","","","","","",""
"","null","html-keyboard-response","226","250535","0.0-13.0-0.5","DgUhojZR0x","5cf31154eed13700013c1417","6617fad957f7c6a12ea16e26","6622c1a135e0eaba40993a5a","fixation cross","null","","","","","","","","","","","",""
"","619","html-keyboard-response","227","251155","0.0-13.0-1.5","DgUhojZR0x","5cf31154eed13700013c1417","6617fad957f7c6a12ea16e26","6622c1a135e0eaba40993a5a","image grid","q","","","","","Phylogenetic_Distractor_Threat_target","ongrid","800","q","5","Phylogenetic","true","experimental"
"","null","html-keyboard-response","228","251308","0.0-13.0-2.5","DgUhojZR0x","5cf31154eed13700013c1417","6617fad957f7c6a12ea16e26","6622c1a135e0eaba40993a5a","
    <div id=""grid-container"">
        <!-- Grid items will be dynamically added here -->
    </div>    ","null","","","","","","","","","","","",""
"","null","html-keyboard-response","229","252012","0.0-13.0-0.6","DgUhojZR0x","5cf31154eed13700013c1417","6617fad957f7c6a12ea16e26","6622c1a135e0eaba40993a5a","fixation cross","null","","","","","","","","","","","",""
"","717","html-keyboard-response","230","252729","0.0-13.0-1.6","DgUhojZR0x","5cf31154eed13700013c1417","6617fad957f7c6a12ea16e26","6622c1a135e0eaba40993a5a","image grid","p","","","","","Phylogenetic_Distractor_Nonthreat_target","ongrid","800","p","4","Phylogenetic","true","experimental"
"","null","html-keyboard-response","231","252884","0.0-13.0-2.6","DgUhojZR0x","5cf31154eed13700013c1417","6617fad957f7c6a12ea16e26","6622c1a135e0eaba40993a5a","
    <div id=""grid-container"">
        <!-- Grid items will be dynamically added here -->
    </div>    ","null","","","","","","","","","","","",""
"","null","html-keyboard-response","232","253587","0.0-13.0-0.7","DgUhojZR0x","5cf31154eed13700013c1417","6617fad957f7c6a12ea16e26","6622c1a135e0eaba40993a5a","fixation cross","null","","","","","","","","","","","",""
"","null","html-keyboard-response","233","254388","0.0-13.0-1.7","DgUhojZR0x","5cf31154eed13700013c1417","6617fad957f7c6a12ea16e26","6622c1a135e0eaba40993a5a","
        <div id=""grid-container"">
        <!-- Grid items will be dynamically added here -->
    </div>    ","null","","","","","","","","","","","",""
"","1183","html-keyboard-response","234","254772","0.0-13.0-2.7","DgUhojZR0x","5cf31154eed13700013c1417","6617fad957f7c6a12ea16e26","6622c1a135e0eaba40993a5a","mask grid","p","","","","","Phylogenetic_Distractor_Nonthreat_target","onmask","800","p","6","Phylogenetic","true","experimental"
"","null","html-keyboard-response","235","255477","0.0-13.0-0.8","DgUhojZR0x","5cf31154eed13700013c1417","6617fad957f7c6a12ea16e26","6622c1a135e0eaba40993a5a","fixation cross","null","","","","","","","","","","","",""
"","742","html-keyboard-response","236","256220","0.0-13.0-1.8","DgUhojZR0x","5cf31154eed13700013c1417","6617fad957f7c6a12ea16e26","6622c1a135e0eaba40993a5a","image grid","q","","","","","Phylogenetic_Distractor_Threat_target","ongrid","800","q","5","Phylogenetic","true","experimental"
"","null","html-keyboard-response","237","256372","0.0-13.0-2.8","DgUhojZR0x","5cf31154eed13700013c1417","6617fad957f7c6a12ea16e26","6622c1a135e0eaba40993a5a","
    <div id=""grid-container"">
        <!-- Grid items will be dynamically added here -->
    </div>    ","null","","","","","","","","","","","",""
"","null","html-keyboard-response","238","257075","0.0-13.0-0.9","DgUhojZR0x","5cf31154eed13700013c1417","6617fad957f7c6a12ea16e26","6622c1a135e0eaba40993a5a","fixation cross","null","","","","","","","","","","","",""
"","802","html-keyboard-response","239","257878","0.0-13.0-1.9","DgUhojZR0x","5cf31154eed13700013c1417","6617fad957f7c6a12ea16e26","6622c1a135e0eaba40993a5a","image grid","q","","","","","Phylogenetic_Distractor_Nonthreat_target","ongrid","800","p","3","Phylogenetic","false","experimental"
"","null","html-keyboard-response","240","258030","0.0-13.0-2.9","DgUhojZR0x","5cf31154eed13700013c1417","6617fad957f7c6a12ea16e26","6622c1a135e0eaba40993a5a","
    <div id=""grid-container"">
        <!-- Grid items will be dynamically added here -->
    </div>    ","null","","","","","","","","","","","",""
"","null","html-keyboard-response","241","258732","0.0-13.0-0.10","DgUhojZR0x","5cf31154eed13700013c1417","6617fad957f7c6a12ea16e26","6622c1a135e0eaba40993a5a","fixation cross","null","","","","","","","","","","","",""
"","682","html-keyboard-response","242","259414","0.0-13.0-1.10","DgUhojZR0x","5cf31154eed13700013c1417","6617fad957f7c6a12ea16e26","6622c1a135e0eaba40993a5a","image grid","q","","","","","Phylogenetic_Distractor_Threat_target","ongrid","800","q","3","Phylogenetic","true","experimental"
"","null","html-keyboard-response","243","259567","0.0-13.0-2.10","DgUhojZR0x","5cf31154eed13700013c1417","6617fad957f7c6a12ea16e26","6622c1a135e0eaba40993a5a","
    <div id=""grid-container"">
        <!-- Grid items will be dynamically added here -->
    </div>    ","null","","","","","","","","","","","",""
"","null","html-keyboard-response","244","260271","0.0-13.0-0.11","DgUhojZR0x","5cf31154eed13700013c1417","6617fad957f7c6a12ea16e26","6622c1a135e0eaba40993a5a","fixation cross","null","","","","","","","","","","","",""
"","787","html-keyboard-response","245","261058","0.0-13.0-1.11","DgUhojZR0x","5cf31154eed13700013c1417","6617fad957f7c6a12ea16e26","6622c1a135e0eaba40993a5a","image grid","p","","","","","Phylogenetic_Distractor_Nonthreat_target","ongrid","800","p","4","Phylogenetic","true","experimental"
"","null","html-keyboard-response","246","261210","0.0-13.0-2.11","DgUhojZR0x","5cf31154eed13700013c1417","6617fad957f7c6a12ea16e26","6622c1a135e0eaba40993a5a","
    <div id=""grid-container"">
        <!-- Grid items will be dynamically added here -->
    </div>    ","null","","","","","","","","","","","",""
"","null","html-keyboard-response","247","261915","0.0-13.0-0.12","DgUhojZR0x","5cf31154eed13700013c1417","6617fad957f7c6a12ea16e26","6622c1a135e0eaba40993a5a","fixation cross","null","","","","","","","","","","","",""
"","559","html-keyboard-response","248","262474","0.0-13.0-1.12","DgUhojZR0x","5cf31154eed13700013c1417","6617fad957f7c6a12ea16e26","6622c1a135e0eaba40993a5a","image grid","q","","","","","Phylogenetic_Distractor_Threat_target","ongrid","800","q","4","Phylogenetic","true","experimental"
"","null","html-keyboard-response","249","262627","0.0-13.0-2.12","DgUhojZR0x","5cf31154eed13700013c1417","6617fad957f7c6a12ea16e26","6622c1a135e0eaba40993a5a","
    <div id=""grid-container"">
        <!-- Grid items will be dynamically added here -->
    </div>    ","null","","","","","","","","","","","",""
"","null","html-keyboard-response","250","263332","0.0-13.0-0.13","DgUhojZR0x","5cf31154eed13700013c1417","6617fad957f7c6a12ea16e26","6622c1a135e0eaba40993a5a","fixation cross","null","","","","","","","","","","","",""
"","521","html-keyboard-response","251","263854","0.0-13.0-1.13","DgUhojZR0x","5cf31154eed13700013c1417","6617fad957f7c6a12ea16e26","6622c1a135e0eaba40993a5a","image grid","q","","","","","Phylogenetic_Distractor_Threat_target","ongrid","800","q","4","Phylogenetic","true","experimental"
"","null","html-keyboard-response","252","264005","0.0-13.0-2.13","DgUhojZR0x","5cf31154eed13700013c1417","6617fad957f7c6a12ea16e26","6622c1a135e0eaba40993a5a","
    <div id=""grid-container"">
        <!-- Grid items will be dynamically added here -->
    </div>    ","null","","","","","","","","","","","",""
"","null","html-keyboard-response","253","264707","0.0-13.0-0.14","DgUhojZR0x","5cf31154eed13700013c1417","6617fad957f7c6a12ea16e26","6622c1a135e0eaba40993a5a","fixation cross","null","","","","","","","","","","","",""
"","730","html-keyboard-response","254","265438","0.0-13.0-1.14","DgUhojZR0x","5cf31154eed13700013c1417","6617fad957f7c6a12ea16e26","6622c1a135e0eaba40993a5a","image grid","p","","","","","Phylogenetic_Distractor_Threat_target","ongrid","800","q","2","Phylogenetic","false","experimental"
"","null","html-keyboard-response","255","265590","0.0-13.0-2.14","DgUhojZR0x","5cf31154eed13700013c1417","6617fad957f7c6a12ea16e26","6622c1a135e0eaba40993a5a","
    <div id=""grid-container"">
        <!-- Grid items will be dynamically added here -->
    </div>    ","null","","","","","","","","","","","",""
"","null","html-keyboard-response","256","266294","0.0-13.0-0.15","DgUhojZR0x","5cf31154eed13700013c1417","6617fad957f7c6a12ea16e26","6622c1a135e0eaba40993a5a","fixation cross","null","","","","","","","","","","","",""
"","null","html-keyboard-response","257","267095","0.0-13.0-1.15","DgUhojZR0x","5cf31154eed13700013c1417","6617fad957f7c6a12ea16e26","6622c1a135e0eaba40993a5a","
        <div id=""grid-container"">
        <!-- Grid items will be dynamically added here -->
    </div>    ","null","","","","","","","","","","","",""
"","968","html-keyboard-response","258","267264","0.0-13.0-2.15","DgUhojZR0x","5cf31154eed13700013c1417","6617fad957f7c6a12ea16e26","6622c1a135e0eaba40993a5a","mask grid","p","","","","","Phylogenetic_Distractor_Nonthreat_target","onmask","800","p","9","Phylogenetic","true","experimental"
"","null","html-keyboard-response","259","267969","0.0-13.0-0.16","DgUhojZR0x","5cf31154eed13700013c1417","6617fad957f7c6a12ea16e26","6622c1a135e0eaba40993a5a","fixation cross","null","","","","","","","","","","","",""
"","654","html-keyboard-response","260","268624","0.0-13.0-1.16","DgUhojZR0x","5cf31154eed13700013c1417","6617fad957f7c6a12ea16e26","6622c1a135e0eaba40993a5a","image grid","p","","","","","Phylogenetic_Distractor_Nonthreat_target","ongrid","800","p","4","Phylogenetic","true","experimental"
"","null","html-keyboard-response","261","268777","0.0-13.0-2.16","DgUhojZR0x","5cf31154eed13700013c1417","6617fad957f7c6a12ea16e26","6622c1a135e0eaba40993a5a","
    <div id=""grid-container"">
        <!-- Grid items will be dynamically added here -->
    </div>    ","null","","","","","","","","","","","",""
"","null","html-keyboard-response","262","269480","0.0-13.0-0.17","DgUhojZR0x","5cf31154eed13700013c1417","6617fad957f7c6a12ea16e26","6622c1a135e0eaba40993a5a","fixation cross","null","","","","","","","","","","","",""
"","688","html-keyboard-response","263","270168","0.0-13.0-1.17","DgUhojZR0x","5cf31154eed13700013c1417","6617fad957f7c6a12ea16e26","6622c1a135e0eaba40993a5a","image grid","p","","","","","Phylogenetic_Distractor_Nonthreat_target","ongrid","800","p","4","Phylogenetic","true","experimental"
"","null","html-keyboard-response","264","270321","0.0-13.0-2.17","DgUhojZR0x","5cf31154eed13700013c1417","6617fad957f7c6a12ea16e26","6622c1a135e0eaba40993a5a","
    <div id=""grid-container"">
        <!-- Grid items will be dynamically added here -->
    </div>    ","null","","","","","","","","","","","",""
"","null","html-keyboard-response","265","271025","0.0-13.0-0.18","DgUhojZR0x","5cf31154eed13700013c1417","6617fad957f7c6a12ea16e26","6622c1a135e0eaba40993a5a","fixation cross","null","","","","","","","","","","","",""
"","null","html-keyboard-response","266","271826","0.0-13.0-1.18","DgUhojZR0x","5cf31154eed13700013c1417","6617fad957f7c6a12ea16e26","6622c1a135e0eaba40993a5a","
        <div id=""grid-container"">
        <!-- Grid items will be dynamically added here -->
    </div>    ","null","","","","","","","","","","","",""
"","839","html-keyboard-response","267","271866","0.0-13.0-2.18","DgUhojZR0x","5cf31154eed13700013c1417","6617fad957f7c6a12ea16e26","6622c1a135e0eaba40993a5a","mask grid","p","","","","","Phylogenetic_Distractor_notarget","onmask","800"," ","1","Phylogenetic","false","experimental"
"","null","html-keyboard-response","268","272569","0.0-13.0-0.19","DgUhojZR0x","5cf31154eed13700013c1417","6617fad957f7c6a12ea16e26","6622c1a135e0eaba40993a5a","fixation cross","null","","","","","","","","","","","",""
"","null","html-keyboard-response","269","273372","0.0-13.0-1.19","DgUhojZR0x","5cf31154eed13700013c1417","6617fad957f7c6a12ea16e26","6622c1a135e0eaba40993a5a","
        <div id=""grid-container"">
        <!-- Grid items will be dynamically added here -->
    </div>    ","null","","","","","","","","","","","",""
"","1066","html-keyboard-response","270","273638","0.0-13.0-2.19","DgUhojZR0x","5cf31154eed13700013c1417","6617fad957f7c6a12ea16e26","6622c1a135e0eaba40993a5a","mask grid","q","","","","","Phylogenetic_Distractor_notarget","onmask","800"," ","2","Phylogenetic","false","experimental"
"","null","html-keyboard-response","271","274343","0.0-13.0-0.20","DgUhojZR0x","5cf31154eed13700013c1417","6617fad957f7c6a12ea16e26","6622c1a135e0eaba40993a5a","fixation cross","null","","","","","","","","","","","",""
"","null","html-keyboard-response","272","275144","0.0-13.0-1.20","DgUhojZR0x","5cf31154eed13700013c1417","6617fad957f7c6a12ea16e26","6622c1a135e0eaba40993a5a","
        <div id=""grid-container"">
        <!-- Grid items will be dynamically added here -->
    </div>    ","null","","","","","","","","","","","",""
"","849","html-keyboard-response","273","275194","0.0-13.0-2.20","DgUhojZR0x","5cf31154eed13700013c1417","6617fad957f7c6a12ea16e26","6622c1a135e0eaba40993a5a","mask grid","q","","","","","Phylogenetic_Distractor_Threat_target","onmask","800","q","7","Phylogenetic","true","experimental"
"","null","html-keyboard-response","274","275899","0.0-13.0-0.21","DgUhojZR0x","5cf31154eed13700013c1417","6617fad957f7c6a12ea16e26","6622c1a135e0eaba40993a5a","fixation cross","null","","","","","","","","","","","",""
"","784","html-keyboard-response","275","276683","0.0-13.0-1.21","DgUhojZR0x","5cf31154eed13700013c1417","6617fad957f7c6a12ea16e26","6622c1a135e0eaba40993a5a","image grid","q","","","","","Phylogenetic_Distractor_Threat_target","ongrid","800","q","3","Phylogenetic","true","experimental"
"","null","html-keyboard-response","276","276836","0.0-13.0-2.21","DgUhojZR0x","5cf31154eed13700013c1417","6617fad957f7c6a12ea16e26","6622c1a135e0eaba40993a5a","
    <div id=""grid-container"">
        <!-- Grid items will be dynamically added here -->
    </div>    ","null","","","","","","","","","","","",""
"","null","html-keyboard-response","277","277540","0.0-13.0-0.22","DgUhojZR0x","5cf31154eed13700013c1417","6617fad957f7c6a12ea16e26","6622c1a135e0eaba40993a5a","fixation cross","null","","","","","","","","","","","",""
"","null","html-keyboard-response","278","278341","0.0-13.0-1.22","DgUhojZR0x","5cf31154eed13700013c1417","6617fad957f7c6a12ea16e26","6622c1a135e0eaba40993a5a","
        <div id=""grid-container"">
        <!-- Grid items will be dynamically added here -->
    </div>    ","null","","","","","","","","","","","",""
"","822","html-keyboard-response","279","278363","0.0-13.0-2.22","DgUhojZR0x","5cf31154eed13700013c1417","6617fad957f7c6a12ea16e26","6622c1a135e0eaba40993a5a","mask grid","p","","","","","Phylogenetic_Distractor_Nonthreat_target","onmask","800","p","1","Phylogenetic","true","experimental"
"","null","html-keyboard-response","280","279067","0.0-13.0-0.23","DgUhojZR0x","5cf31154eed13700013c1417","6617fad957f7c6a12ea16e26","6622c1a135e0eaba40993a5a","fixation cross","null","","","","","","","","","","","",""
"","709","html-keyboard-response","281","279776","0.0-13.0-1.23","DgUhojZR0x","5cf31154eed13700013c1417","6617fad957f7c6a12ea16e26","6622c1a135e0eaba40993a5a","image grid","p","","","","","Phylogenetic_Distractor_Threat_target","ongrid","800","q","1","Phylogenetic","false","experimental"
"","null","html-keyboard-response","282","279929","0.0-13.0-2.23","DgUhojZR0x","5cf31154eed13700013c1417","6617fad957f7c6a12ea16e26","6622c1a135e0eaba40993a5a","
    <div id=""grid-container"">
        <!-- Grid items will be dynamically added here -->
    </div>    ","null","","","","","","","","","","","",""
"","85","html-keyboard-response","283","280632","0.0-13.0-0.24","DgUhojZR0x","5cf31154eed13700013c1417","6617fad957f7c6a12ea16e26","6622c1a135e0eaba40993a5a","fixation cross","q","","","","","","","","","","","",""
"","null","html-keyboard-response","284","281434","0.0-13.0-1.24","DgUhojZR0x","5cf31154eed13700013c1417","6617fad957f7c6a12ea16e26","6622c1a135e0eaba40993a5a","
        <div id=""grid-container"">
        <!-- Grid items will be dynamically added here -->
    </div>    ","null","","","","","","","","","","","",""
"","1062","html-keyboard-response","285","281696","0.0-13.0-2.24","DgUhojZR0x","5cf31154eed13700013c1417","6617fad957f7c6a12ea16e26","6622c1a135e0eaba40993a5a","mask grid","p","","","","","Phylogenetic_Distractor_Nonthreat_target","onmask","800","p","4","Phylogenetic","true","experimental"
"","null","html-keyboard-response","286","282400","0.0-13.0-0.25","DgUhojZR0x","5cf31154eed13700013c1417","6617fad957f7c6a12ea16e26","6622c1a135e0eaba40993a5a","fixation cross","null","","","","","","","","","","","",""
"","671","html-keyboard-response","287","283071","0.0-13.0-1.25","DgUhojZR0x","5cf31154eed13700013c1417","6617fad957f7c6a12ea16e26","6622c1a135e0eaba40993a5a","image grid","q","","","","","Phylogenetic_Distractor_Threat_target","ongrid","800","q","2","Phylogenetic","true","experimental"
"","null","html-keyboard-response","288","283225","0.0-13.0-2.25","DgUhojZR0x","5cf31154eed13700013c1417","6617fad957f7c6a12ea16e26","6622c1a135e0eaba40993a5a","
    <div id=""grid-container"">
        <!-- Grid items will be dynamically added here -->
    </div>    ","null","","","","","","","","","","","",""
"","null","html-keyboard-response","289","283928","0.0-13.0-0.26","DgUhojZR0x","5cf31154eed13700013c1417","6617fad957f7c6a12ea16e26","6622c1a135e0eaba40993a5a","fixation cross","null","","","","","","","","","","","",""
"","704","html-keyboard-response","290","284632","0.0-13.0-1.26","DgUhojZR0x","5cf31154eed13700013c1417","6617fad957f7c6a12ea16e26","6622c1a135e0eaba40993a5a","image grid","p","","","","","Phylogenetic_Distractor_Nonthreat_target","ongrid","800","p","9","Phylogenetic","true","experimental"
"","null","html-keyboard-response","291","284784","0.0-13.0-2.26","DgUhojZR0x","5cf31154eed13700013c1417","6617fad957f7c6a12ea16e26","6622c1a135e0eaba40993a5a","
    <div id=""grid-container"">
        <!-- Grid items will be dynamically added here -->
    </div>    ","null","","","","","","","","","","","",""
"","null","html-keyboard-response","292","285488","0.0-13.0-0.27","DgUhojZR0x","5cf31154eed13700013c1417","6617fad957f7c6a12ea16e26","6622c1a135e0eaba40993a5a","fixation cross","null","","","","","","","","","","","",""
"","711","html-keyboard-response","293","286199","0.0-13.0-1.27","DgUhojZR0x","5cf31154eed13700013c1417","6617fad957f7c6a12ea16e26","6622c1a135e0eaba40993a5a","image grid","p","","","","","Phylogenetic_Distractor_Nonthreat_target","ongrid","800","p","7","Phylogenetic","true","experimental"
"","null","html-keyboard-response","294","286353","0.0-13.0-2.27","DgUhojZR0x","5cf31154eed13700013c1417","6617fad957f7c6a12ea16e26","6622c1a135e0eaba40993a5a","
    <div id=""grid-container"">
        <!-- Grid items will be dynamically added here -->
    </div>    ","null","","","","","","","","","","","",""
"","null","html-keyboard-response","295","287056","0.0-13.0-0.28","DgUhojZR0x","5cf31154eed13700013c1417","6617fad957f7c6a12ea16e26","6622c1a135e0eaba40993a5a","fixation cross","null","","","","","","","","","","","",""
"","564","html-keyboard-response","296","287621","0.0-13.0-1.28","DgUhojZR0x","5cf31154eed13700013c1417","6617fad957f7c6a12ea16e26","6622c1a135e0eaba40993a5a","image grid","q","","","","","Phylogenetic_Distractor_Threat_target","ongrid","800","q","8","Phylogenetic","true","experimental"
"","null","html-keyboard-response","297","287774","0.0-13.0-2.28","DgUhojZR0x","5cf31154eed13700013c1417","6617fad957f7c6a12ea16e26","6622c1a135e0eaba40993a5a","
    <div id=""grid-container"">
        <!-- Grid items will be dynamically added here -->
    </div>    ","null","","","","","","","","","","","",""
"","null","html-keyboard-response","298","288476","0.0-13.0-0.29","DgUhojZR0x","5cf31154eed13700013c1417","6617fad957f7c6a12ea16e26","6622c1a135e0eaba40993a5a","fixation cross","null","","","","","","","","","","","",""
"","571","html-keyboard-response","299","289047","0.0-13.0-1.29","DgUhojZR0x","5cf31154eed13700013c1417","6617fad957f7c6a12ea16e26","6622c1a135e0eaba40993a5a","image grid","p","","","","","Phylogenetic_Distractor_Threat_target","ongrid","800","q","2","Phylogenetic","false","experimental"
"","null","html-keyboard-response","300","289200","0.0-13.0-2.29","DgUhojZR0x","5cf31154eed13700013c1417","6617fad957f7c6a12ea16e26","6622c1a135e0eaba40993a5a","
    <div id=""grid-container"">
        <!-- Grid items will be dynamically added here -->
    </div>    ","null","","","","","","","","","","","",""
"","null","html-keyboard-response","301","289903","0.0-13.0-0.30","DgUhojZR0x","5cf31154eed13700013c1417","6617fad957f7c6a12ea16e26","6622c1a135e0eaba40993a5a","fixation cross","null","","","","","","","","","","","",""
"","null","html-keyboard-response","302","290704","0.0-13.0-1.30","DgUhojZR0x","5cf31154eed13700013c1417","6617fad957f7c6a12ea16e26","6622c1a135e0eaba40993a5a","
        <div id=""grid-container"">
        <!-- Grid items will be dynamically added here -->
    </div>    ","null","","","","","","","","","","","",""
"","905","html-keyboard-response","303","290810","0.0-13.0-2.30","DgUhojZR0x","5cf31154eed13700013c1417","6617fad957f7c6a12ea16e26","6622c1a135e0eaba40993a5a","mask grid","p","","","","","Phylogenetic_Distractor_notarget","onmask","800"," ","9","Phylogenetic","false","experimental"
"","null","html-keyboard-response","304","291515","0.0-13.0-0.31","DgUhojZR0x","5cf31154eed13700013c1417","6617fad957f7c6a12ea16e26","6622c1a135e0eaba40993a5a","fixation cross","null","","","","","","","","","","","",""
"","765","html-keyboard-response","305","292281","0.0-13.0-1.31","DgUhojZR0x","5cf31154eed13700013c1417","6617fad957f7c6a12ea16e26","6622c1a135e0eaba40993a5a","image grid","q","","","","","Phylogenetic_Distractor_Threat_target","ongrid","800","q","3","Phylogenetic","true","experimental"
"","null","html-keyboard-response","306","292434","0.0-13.0-2.31","DgUhojZR0x","5cf31154eed13700013c1417","6617fad957f7c6a12ea16e26","6622c1a135e0eaba40993a5a","
    <div id=""grid-container"">
        <!-- Grid items will be dynamically added here -->
    </div>    ","null","","","","","","","","","","","",""
"","null","html-keyboard-response","307","293138","0.0-13.0-0.32","DgUhojZR0x","5cf31154eed13700013c1417","6617fad957f7c6a12ea16e26","6622c1a135e0eaba40993a5a","fixation cross","null","","","","","","","","","","","",""
"","704","html-keyboard-response","308","293842","0.0-13.0-1.32","DgUhojZR0x","5cf31154eed13700013c1417","6617fad957f7c6a12ea16e26","6622c1a135e0eaba40993a5a","image grid","q","","","","","Phylogenetic_Distractor_Nonthreat_target","ongrid","800","p","9","Phylogenetic","false","experimental"
"","null","html-keyboard-response","309","293996","0.0-13.0-2.32","DgUhojZR0x","5cf31154eed13700013c1417","6617fad957f7c6a12ea16e26","6622c1a135e0eaba40993a5a","
    <div id=""grid-container"">
        <!-- Grid items will be dynamically added here -->
    </div>    ","null","","","","","","","","","","","",""
"","null","html-keyboard-response","310","294698","0.0-13.0-0.33","DgUhojZR0x","5cf31154eed13700013c1417","6617fad957f7c6a12ea16e26","6622c1a135e0eaba40993a5a","fixation cross","null","","","","","","","","","","","",""
"","800","html-keyboard-response","311","295499","0.0-13.0-1.33","DgUhojZR0x","5cf31154eed13700013c1417","6617fad957f7c6a12ea16e26","6622c1a135e0eaba40993a5a","image grid","q","","","","","Phylogenetic_Distractor_Nonthreat_target","ongrid","800","p","6","Phylogenetic","false","experimental"
"","null","html-keyboard-response","312","295652","0.0-13.0-2.33","DgUhojZR0x","5cf31154eed13700013c1417","6617fad957f7c6a12ea16e26","6622c1a135e0eaba40993a5a","
    <div id=""grid-container"">
        <!-- Grid items will be dynamically added here -->
    </div>    ","null","","","","","","","","","","","",""
"","null","html-keyboard-response","313","296355","0.0-13.0-0.34","DgUhojZR0x","5cf31154eed13700013c1417","6617fad957f7c6a12ea16e26","6622c1a135e0eaba40993a5a","fixation cross","null","","","","","","","","","","","",""
"","null","html-keyboard-response","314","297158","0.0-13.0-1.34","DgUhojZR0x","5cf31154eed13700013c1417","6617fad957f7c6a12ea16e26","6622c1a135e0eaba40993a5a","
        <div id=""grid-container"">
        <!-- Grid items will be dynamically added here -->
    </div>    ","null","","","","","","","","","","","",""
"","2872","html-keyboard-response","315","299230","0.0-13.0-2.34","DgUhojZR0x","5cf31154eed13700013c1417","6617fad957f7c6a12ea16e26","6622c1a135e0eaba40993a5a","mask grid","p","","","","","Phylogenetic_Distractor_Nonthreat_target","onmask","800","p","4","Phylogenetic","true","experimental"
"","null","html-keyboard-response","316","299934","0.0-13.0-0.35","DgUhojZR0x","5cf31154eed13700013c1417","6617fad957f7c6a12ea16e26","6622c1a135e0eaba40993a5a","fixation cross","null","","","","","","","","","","","",""
"","null","html-keyboard-response","317","300736","0.0-13.0-1.35","DgUhojZR0x","5cf31154eed13700013c1417","6617fad957f7c6a12ea16e26","6622c1a135e0eaba40993a5a","
        <div id=""grid-container"">
        <!-- Grid items will be dynamically added here -->
    </div>    ","null","","","","","","","","","","","",""
"","834","html-keyboard-response","318","300771","0.0-13.0-2.35","DgUhojZR0x","5cf31154eed13700013c1417","6617fad957f7c6a12ea16e26","6622c1a135e0eaba40993a5a","mask grid","q","","","","","Phylogenetic_Distractor_Threat_target","onmask","800","q","8","Phylogenetic","true","experimental"
"","null","html-keyboard-response","319","301476","0.0-13.0-0.36","DgUhojZR0x","5cf31154eed13700013c1417","6617fad957f7c6a12ea16e26","6622c1a135e0eaba40993a5a","fixation cross","null","","","","","","","","","","","",""
"","null","html-keyboard-response","320","302277","0.0-13.0-1.36","DgUhojZR0x","5cf31154eed13700013c1417","6617fad957f7c6a12ea16e26","6622c1a135e0eaba40993a5a","
        <div id=""grid-container"">
        <!-- Grid items will be dynamically added here -->
    </div>    ","null","","","","","","","","","","","",""
"","1993","html-keyboard-response","321","303471","0.0-13.0-2.36","DgUhojZR0x","5cf31154eed13700013c1417","6617fad957f7c6a12ea16e26","6622c1a135e0eaba40993a5a","mask grid"," ","","","","","Phylogenetic_Distractor_notarget","onmask","800"," ","2","Phylogenetic","true","experimental"
"","null","html-keyboard-response","322","304174","0.0-13.0-0.37","DgUhojZR0x","5cf31154eed13700013c1417","6617fad957f7c6a12ea16e26","6622c1a135e0eaba40993a5a","fixation cross","null","","","","","","","","","","","",""
"","null","html-keyboard-response","323","304975","0.0-13.0-1.37","DgUhojZR0x","5cf31154eed13700013c1417","6617fad957f7c6a12ea16e26","6622c1a135e0eaba40993a5a","
        <div id=""grid-container"">
        <!-- Grid items will be dynamically added here -->
    </div>    ","null","","","","","","","","","","","",""
"","1054","html-keyboard-response","324","305230","0.0-13.0-2.37","DgUhojZR0x","5cf31154eed13700013c1417","6617fad957f7c6a12ea16e26","6622c1a135e0eaba40993a5a","mask grid","p","","","","","Phylogenetic_Distractor_Nonthreat_target","onmask","800","p","1","Phylogenetic","true","experimental"
"","null","html-keyboard-response","325","305934","0.0-13.0-0.38","DgUhojZR0x","5cf31154eed13700013c1417","6617fad957f7c6a12ea16e26","6622c1a135e0eaba40993a5a","fixation cross","null","","","","","","","","","","","",""
"","null","html-keyboard-response","326","306736","0.0-13.0-1.38","DgUhojZR0x","5cf31154eed13700013c1417","6617fad957f7c6a12ea16e26","6622c1a135e0eaba40993a5a","
        <div id=""grid-container"">
        <!-- Grid items will be dynamically added here -->
    </div>    ","null","","","","","","","","","","","",""
"","908","html-keyboard-response","327","306844","0.0-13.0-2.38","DgUhojZR0x","5cf31154eed13700013c1417","6617fad957f7c6a12ea16e26","6622c1a135e0eaba40993a5a","mask grid","p","","","","","Phylogenetic_Distractor_Nonthreat_target","onmask","800","p","3","Phylogenetic","true","experimental"
"","null","html-keyboard-response","328","307549","0.0-13.0-0.39","DgUhojZR0x","5cf31154eed13700013c1417","6617fad957f7c6a12ea16e26","6622c1a135e0eaba40993a5a","fixation cross","null","","","","","","","","","","","",""
"","null","html-keyboard-response","329","308351","0.0-13.0-1.39","DgUhojZR0x","5cf31154eed13700013c1417","6617fad957f7c6a12ea16e26","6622c1a135e0eaba40993a5a","
        <div id=""grid-container"">
        <!-- Grid items will be dynamically added here -->
    </div>    ","null","","","","","","","","","","","",""
"","891","html-keyboard-response","330","308443","0.0-13.0-2.39","DgUhojZR0x","5cf31154eed13700013c1417","6617fad957f7c6a12ea16e26","6622c1a135e0eaba40993a5a","mask grid","p","","","","","Phylogenetic_Distractor_Nonthreat_target","onmask","800","p","2","Phylogenetic","true","experimental"
"","1427","html-keyboard-response","331","310073","0.0-14.0","DgUhojZR0x","5cf31154eed13700013c1417","6617fad957f7c6a12ea16e26","6622c1a135e0eaba40993a5a","break screen"," ","","","","","","","","","","","",""
"","null","html-keyboard-response","332","312577","0.0-15.0-0.0","DgUhojZR0x","5cf31154eed13700013c1417","6617fad957f7c6a12ea16e26","6622c1a135e0eaba40993a5a","fixation cross","null","","","","","","","","","","","",""
"","1914","html-keyboard-response","333","314492","0.0-15.0-1.0","DgUhojZR0x","5cf31154eed13700013c1417","6617fad957f7c6a12ea16e26","6622c1a135e0eaba40993a5a","image grid","q","","","","","Ontogenetic_Distractor_Threat_target","ongrid","2500","q","3","Ontogenetic","true","experimental"
"","null","html-keyboard-response","334","314645","0.0-15.0-2.0","DgUhojZR0x","5cf31154eed13700013c1417","6617fad957f7c6a12ea16e26","6622c1a135e0eaba40993a5a","
    <div id=""grid-container"">
        <!-- Grid items will be dynamically added here -->
    </div>    ","null","","","","","","","","","","","",""
"","null","html-keyboard-response","335","315348","0.0-15.0-0.1","DgUhojZR0x","5cf31154eed13700013c1417","6617fad957f7c6a12ea16e26","6622c1a135e0eaba40993a5a","fixation cross","null","","","","","","","","","","","",""
"","1088","html-keyboard-response","336","316437","0.0-15.0-1.1","DgUhojZR0x","5cf31154eed13700013c1417","6617fad957f7c6a12ea16e26","6622c1a135e0eaba40993a5a","image grid","q","","","","","Ontogenetic_Distractor_Threat_target","ongrid","2500","q","7","Ontogenetic","true","experimental"
"","null","html-keyboard-response","337","316590","0.0-15.0-2.1","DgUhojZR0x","5cf31154eed13700013c1417","6617fad957f7c6a12ea16e26","6622c1a135e0eaba40993a5a","
    <div id=""grid-container"">
        <!-- Grid items will be dynamically added here -->
    </div>    ","null","","","","","","","","","","","",""
"","null","html-keyboard-response","338","317293","0.0-15.0-0.2","DgUhojZR0x","5cf31154eed13700013c1417","6617fad957f7c6a12ea16e26","6622c1a135e0eaba40993a5a","fixation cross","null","","","","","","","","","","","",""
"","871","html-keyboard-response","339","318164","0.0-15.0-1.2","DgUhojZR0x","5cf31154eed13700013c1417","6617fad957f7c6a12ea16e26","6622c1a135e0eaba40993a5a","image grid","q","","","","","Ontogenetic_Distractor_Threat_target","ongrid","2500","q","5","Ontogenetic","true","experimental"
"","null","html-keyboard-response","340","318317","0.0-15.0-2.2","DgUhojZR0x","5cf31154eed13700013c1417","6617fad957f7c6a12ea16e26","6622c1a135e0eaba40993a5a","
    <div id=""grid-container"">
        <!-- Grid items will be dynamically added here -->
    </div>    ","null","","","","","","","","","","","",""
"","null","html-keyboard-response","341","319021","0.0-15.0-0.3","DgUhojZR0x","5cf31154eed13700013c1417","6617fad957f7c6a12ea16e26","6622c1a135e0eaba40993a5a","fixation cross","null","","","","","","","","","","","",""
"","876","html-keyboard-response","342","319897","0.0-15.0-1.3","DgUhojZR0x","5cf31154eed13700013c1417","6617fad957f7c6a12ea16e26","6622c1a135e0eaba40993a5a","image grid","p","","","","","Ontogenetic_Distractor_Nonthreat_target","ongrid","2500","p","4","Ontogenetic","true","experimental"
"","null","html-keyboard-response","343","320049","0.0-15.0-2.3","DgUhojZR0x","5cf31154eed13700013c1417","6617fad957f7c6a12ea16e26","6622c1a135e0eaba40993a5a","
    <div id=""grid-container"">
        <!-- Grid items will be dynamically added here -->
    </div>    ","null","","","","","","","","","","","",""
"","null","html-keyboard-response","344","320753","0.0-15.0-0.4","DgUhojZR0x","5cf31154eed13700013c1417","6617fad957f7c6a12ea16e26","6622c1a135e0eaba40993a5a","fixation cross","null","","","","","","","","","","","",""
"","1073","html-keyboard-response","345","321827","0.0-15.0-1.4","DgUhojZR0x","5cf31154eed13700013c1417","6617fad957f7c6a12ea16e26","6622c1a135e0eaba40993a5a","image grid","q","","","","","Ontogenetic_Distractor_Threat_target","ongrid","2500","q","6","Ontogenetic","true","experimental"
"","null","html-keyboard-response","346","321981","0.0-15.0-2.4","DgUhojZR0x","5cf31154eed13700013c1417","6617fad957f7c6a12ea16e26","6622c1a135e0eaba40993a5a","
    <div id=""grid-container"">
        <!-- Grid items will be dynamically added here -->
    </div>    ","null","","","","","","","","","","","",""
"","null","html-keyboard-response","347","322684","0.0-15.0-0.5","DgUhojZR0x","5cf31154eed13700013c1417","6617fad957f7c6a12ea16e26","6622c1a135e0eaba40993a5a","fixation cross","null","","","","","","","","","","","",""
"","1171","html-keyboard-response","348","323856","0.0-15.0-1.5","DgUhojZR0x","5cf31154eed13700013c1417","6617fad957f7c6a12ea16e26","6622c1a135e0eaba40993a5a","image grid","q","","","","","Ontogenetic_Distractor_Threat_target","ongrid","2500","q","1","Ontogenetic","true","experimental"
"","null","html-keyboard-response","349","324009","0.0-15.0-2.5","DgUhojZR0x","5cf31154eed13700013c1417","6617fad957f7c6a12ea16e26","6622c1a135e0eaba40993a5a","
    <div id=""grid-container"">
        <!-- Grid items will be dynamically added here -->
    </div>    ","null","","","","","","","","","","","",""
"","null","html-keyboard-response","350","324710","0.0-15.0-0.6","DgUhojZR0x","5cf31154eed13700013c1417","6617fad957f7c6a12ea16e26","6622c1a135e0eaba40993a5a","fixation cross","null","","","","","","","","","","","",""
"","1610","html-keyboard-response","351","326320","0.0-15.0-1.6","DgUhojZR0x","5cf31154eed13700013c1417","6617fad957f7c6a12ea16e26","6622c1a135e0eaba40993a5a","image grid","p","","","","","Ontogenetic_Distractor_Nonthreat_target","ongrid","2500","p","4","Ontogenetic","true","experimental"
"","null","html-keyboard-response","352","326474","0.0-15.0-2.6","DgUhojZR0x","5cf31154eed13700013c1417","6617fad957f7c6a12ea16e26","6622c1a135e0eaba40993a5a","
    <div id=""grid-container"">
        <!-- Grid items will be dynamically added here -->
    </div>    ","null","","","","","","","","","","","",""
"","null","html-keyboard-response","353","327178","0.0-15.0-0.7","DgUhojZR0x","5cf31154eed13700013c1417","6617fad957f7c6a12ea16e26","6622c1a135e0eaba40993a5a","fixation cross","null","","","","","","","","","","","",""
"","1427","html-keyboard-response","354","328606","0.0-15.0-1.7","DgUhojZR0x","5cf31154eed13700013c1417","6617fad957f7c6a12ea16e26","6622c1a135e0eaba40993a5a","image grid","p","","","","","Ontogenetic_Distractor_Nonthreat_target","ongrid","2500","p","7","Ontogenetic","true","experimental"
"","null","html-keyboard-response","355","328759","0.0-15.0-2.7","DgUhojZR0x","5cf31154eed13700013c1417","6617fad957f7c6a12ea16e26","6622c1a135e0eaba40993a5a","
    <div id=""grid-container"">
        <!-- Grid items will be dynamically added here -->
    </div>    ","null","","","","","","","","","","","",""
"","null","html-keyboard-response","356","329462","0.0-15.0-0.8","DgUhojZR0x","5cf31154eed13700013c1417","6617fad957f7c6a12ea16e26","6622c1a135e0eaba40993a5a","fixation cross","null","","","","","","","","","","","",""
"","929","html-keyboard-response","357","330392","0.0-15.0-1.8","DgUhojZR0x","5cf31154eed13700013c1417","6617fad957f7c6a12ea16e26","6622c1a135e0eaba40993a5a","image grid","q","","","","","Ontogenetic_Distractor_Threat_target","ongrid","2500","q","9","Ontogenetic","true","experimental"
"","null","html-keyboard-response","358","330545","0.0-15.0-2.8","DgUhojZR0x","5cf31154eed13700013c1417","6617fad957f7c6a12ea16e26","6622c1a135e0eaba40993a5a","
    <div id=""grid-container"">
        <!-- Grid items will be dynamically added here -->
    </div>    ","null","","","","","","","","","","","",""
"","null","html-keyboard-response","359","331247","0.0-15.0-0.9","DgUhojZR0x","5cf31154eed13700013c1417","6617fad957f7c6a12ea16e26","6622c1a135e0eaba40993a5a","fixation cross","null","","","","","","","","","","","",""
"","662","html-keyboard-response","360","331909","0.0-15.0-1.9","DgUhojZR0x","5cf31154eed13700013c1417","6617fad957f7c6a12ea16e26","6622c1a135e0eaba40993a5a","image grid","q","","","","","Ontogenetic_Distractor_Threat_target","ongrid","2500","q","5","Ontogenetic","true","experimental"
"","null","html-keyboard-response","361","332062","0.0-15.0-2.9","DgUhojZR0x","5cf31154eed13700013c1417","6617fad957f7c6a12ea16e26","6622c1a135e0eaba40993a5a","
    <div id=""grid-container"">
        <!-- Grid items will be dynamically added here -->
    </div>    ","null","","","","","","","","","","","",""
"","null","html-keyboard-response","362","332765","0.0-15.0-0.10","DgUhojZR0x","5cf31154eed13700013c1417","6617fad957f7c6a12ea16e26","6622c1a135e0eaba40993a5a","fixation cross","null","","","","","","","","","","","",""
"","876","html-keyboard-response","363","333641","0.0-15.0-1.10","DgUhojZR0x","5cf31154eed13700013c1417","6617fad957f7c6a12ea16e26","6622c1a135e0eaba40993a5a","image grid","q","","","","","Ontogenetic_Distractor_Threat_target","ongrid","2500","q","3","Ontogenetic","true","experimental"
"","null","html-keyboard-response","364","333793","0.0-15.0-2.10","DgUhojZR0x","5cf31154eed13700013c1417","6617fad957f7c6a12ea16e26","6622c1a135e0eaba40993a5a","
    <div id=""grid-container"">
        <!-- Grid items will be dynamically added here -->
    </div>    ","null","","","","","","","","","","","",""
"","null","html-keyboard-response","365","334496","0.0-15.0-0.11","DgUhojZR0x","5cf31154eed13700013c1417","6617fad957f7c6a12ea16e26","6622c1a135e0eaba40993a5a","fixation cross","null","","","","","","","","","","","",""
"","1244","html-keyboard-response","366","335741","0.0-15.0-1.11","DgUhojZR0x","5cf31154eed13700013c1417","6617fad957f7c6a12ea16e26","6622c1a135e0eaba40993a5a","image grid","p","","","","","Ontogenetic_Distractor_notarget","ongrid","2500"," ","8","Ontogenetic","false","experimental"
"","null","html-keyboard-response","367","335894","0.0-15.0-2.11","DgUhojZR0x","5cf31154eed13700013c1417","6617fad957f7c6a12ea16e26","6622c1a135e0eaba40993a5a","
    <div id=""grid-container"">
        <!-- Grid items will be dynamically added here -->
    </div>    ","null","","","","","","","","","","","",""
"","null","html-keyboard-response","368","336598","0.0-15.0-0.12","DgUhojZR0x","5cf31154eed13700013c1417","6617fad957f7c6a12ea16e26","6622c1a135e0eaba40993a5a","fixation cross","null","","","","","","","","","","","",""
"","1089","html-keyboard-response","369","337688","0.0-15.0-1.12","DgUhojZR0x","5cf31154eed13700013c1417","6617fad957f7c6a12ea16e26","6622c1a135e0eaba40993a5a","image grid","p","","","","","Ontogenetic_Distractor_Nonthreat_target","ongrid","2500","p","9","Ontogenetic","true","experimental"
"","null","html-keyboard-response","370","337841","0.0-15.0-2.12","DgUhojZR0x","5cf31154eed13700013c1417","6617fad957f7c6a12ea16e26","6622c1a135e0eaba40993a5a","
