"success","rt","trial_type","trial_index","time_elapsed","internal_node_id","unique_identifier","subject_id","study_id","session_id","stimulus","response","timeout","failed_images","failed_audio","failed_video","task","time_manipulation","respondedwhen","correctresponse","targetimagelocation","blocktype","correct","roundtype"
"true","4815","fullscreen","0","5887","0.0-0.0","ly4nYM8zD0","656c9226c395c0344a63c586","6617fad957f7c6a12ea16e26","6622cf2936d1666a9ba2e961","","","","","","","","","","","","","",""
"","21128","html-keyboard-response","1","27019","0.0-1.0","ly4nYM8zD0","656c9226c395c0344a63c586","6617fad957f7c6a12ea16e26","6622cf2936d1666a9ba2e961","instruction screen 0","f","","","","","","","","","","","",""
"true","","preload","2","89306","0.0-2.0","ly4nYM8zD0","656c9226c395c0344a63c586","6617fad957f7c6a12ea16e26","6622cf2936d1666a9ba2e961","","","false","[]","[]","[]","","","","","","","",""
"","16334","html-keyboard-response","3","105642","0.0-3.0","ly4nYM8zD0","656c9226c395c0344a63c586","6617fad957f7c6a12ea16e26","6622cf2936d1666a9ba2e961","instruction screen 1","f","","","","","","","","","","","",""
"","2469","html-keyboard-response","4","108114","0.0-4.0","ly4nYM8zD0","656c9226c395c0344a63c586","6617fad957f7c6a12ea16e26","6622cf2936d1666a9ba2e961","instruction screen 2","q","","","","","","","","","","","",""
"","2014","html-keyboard-response","5","110130","0.0-5.0","ly4nYM8zD0","656c9226c395c0344a63c586","6617fad957f7c6a12ea16e26","6622cf2936d1666a9ba2e961","instruction screen 3","p","","","","","","","","","","","",""
"","7480","html-keyboard-response","6","117613","0.0-6.0","ly4nYM8zD0","656c9226c395c0344a63c586","6617fad957f7c6a12ea16e26","6622cf2936d1666a9ba2e961","instruction screen 4"," ","","","","","","","","","","","",""
"","5992","html-keyboard-response","7","123607","0.0-7.0","ly4nYM8zD0","656c9226c395c0344a63c586","6617fad957f7c6a12ea16e26","6622cf2936d1666a9ba2e961","instruction screen 5"," ","","","","","","","","","","","",""
"","null","html-keyboard-response","8","124116","0.0-8.0","ly4nYM8zD0","656c9226c395c0344a63c586","6617fad957f7c6a12ea16e26","6622cf2936d1666a9ba2e961","fixation cross","null","","","","","","","","","","","",""
"","null","html-keyboard-response","9","124618","0.0-9.0-0.0","ly4nYM8zD0","656c9226c395c0344a63c586","6617fad957f7c6a12ea16e26","6622cf2936d1666a9ba2e961","fixation cross","null","","","","","","","","","","","",""
"","2262","html-keyboard-response","10","126881","0.0-9.0-1.0","ly4nYM8zD0","656c9226c395c0344a63c586","6617fad957f7c6a12ea16e26","6622cf2936d1666a9ba2e961","image grid"," ","","","","","Phylogenetic_Distractor_notarget","3000","ongrid"," ","6","Phylogenetic","true","practice"
"","null","html-keyboard-response","11","127035","0.0-9.0-2.0","ly4nYM8zD0","656c9226c395c0344a63c586","6617fad957f7c6a12ea16e26","6622cf2936d1666a9ba2e961","
    <div id=""grid-container"">
        <!-- Grid items will be dynamically added here -->
    </div>    ","null","","","","","","","","","","","",""
"","null","html-keyboard-response","12","128246","0.0-9.0-3.0","ly4nYM8zD0","656c9226c395c0344a63c586","6617fad957f7c6a12ea16e26","6622cf2936d1666a9ba2e961","feedback screen","null","","","","","","","","","","","",""
"","null","html-keyboard-response","13","128748","0.0-9.0-0.1","ly4nYM8zD0","656c9226c395c0344a63c586","6617fad957f7c6a12ea16e26","6622cf2936d1666a9ba2e961","fixation cross","null","","","","","","","","","","","",""
"","2046","html-keyboard-response","14","130795","0.0-9.0-1.1","ly4nYM8zD0","656c9226c395c0344a63c586","6617fad957f7c6a12ea16e26","6622cf2936d1666a9ba2e961","image grid","q","","","","","Ontogenetic_Distractor_Nonthreat_target","2900","ongrid","p","8","Phylogenetic","false","practice"
"","null","html-keyboard-response","15","130946","0.0-9.0-2.1","ly4nYM8zD0","656c9226c395c0344a63c586","6617fad957f7c6a12ea16e26","6622cf2936d1666a9ba2e961","
    <div id=""grid-container"">
        <!-- Grid items will be dynamically added here -->
    </div>    ","null","","","","","","","","","","","",""
"","null","html-keyboard-response","16","132155","0.0-9.0-3.1","ly4nYM8zD0","656c9226c395c0344a63c586","6617fad957f7c6a12ea16e26","6622cf2936d1666a9ba2e961","feedback screen","null","","","","","","","","","","","",""
"","null","html-keyboard-response","17","132673","0.0-9.0-0.2","ly4nYM8zD0","656c9226c395c0344a63c586","6617fad957f7c6a12ea16e26","6622cf2936d1666a9ba2e961","fixation cross","null","","","","","","","","","","","",""
"","1942","html-keyboard-response","18","134617","0.0-9.0-1.2","ly4nYM8zD0","656c9226c395c0344a63c586","6617fad957f7c6a12ea16e26","6622cf2936d1666a9ba2e961","image grid"," ","","","","","Phylogenetic_Distractor_Nonthreat_target","2800","ongrid","p","5","Phylogenetic","false","practice"
"","null","html-keyboard-response","19","134778","0.0-9.0-2.2","ly4nYM8zD0","656c9226c395c0344a63c586","6617fad957f7c6a12ea16e26","6622cf2936d1666a9ba2e961","
    <div id=""grid-container"">
        <!-- Grid items will be dynamically added here -->
    </div>    ","null","","","","","","","","","","","",""
"","null","html-keyboard-response","20","135984","0.0-9.0-3.2","ly4nYM8zD0","656c9226c395c0344a63c586","6617fad957f7c6a12ea16e26","6622cf2936d1666a9ba2e961","feedback screen","null","","","","","","","","","","","",""
"","null","html-keyboard-response","21","136486","0.0-9.0-0.3","ly4nYM8zD0","656c9226c395c0344a63c586","6617fad957f7c6a12ea16e26","6622cf2936d1666a9ba2e961","fixation cross","null","","","","","","","","","","","",""
"","null","html-keyboard-response","22","139201","0.0-9.0-1.3","ly4nYM8zD0","656c9226c395c0344a63c586","6617fad957f7c6a12ea16e26","6622cf2936d1666a9ba2e961","
        <div id=""grid-container"">
        <!-- Grid items will be dynamically added here -->
    </div>    ","null","","","","","","","","","","","",""
"","2732","html-keyboard-response","23","139234","0.0-9.0-2.3","ly4nYM8zD0","656c9226c395c0344a63c586","6617fad957f7c6a12ea16e26","6622cf2936d1666a9ba2e961","mask grid"," ","","","","","Phylogenetic_Distractor_Nonthreat_target","2700","onmask","p","7","Phylogenetic","false","practice"
"","null","html-keyboard-response","24","140553","0.0-9.0-3.3","ly4nYM8zD0","656c9226c395c0344a63c586","6617fad957f7c6a12ea16e26","6622cf2936d1666a9ba2e961","feedback screen","null","","","","","","","","","","","",""
"","null","html-keyboard-response","25","141070","0.0-9.0-0.4","ly4nYM8zD0","656c9226c395c0344a63c586","6617fad957f7c6a12ea16e26","6622cf2936d1666a9ba2e961","fixation cross","null","","","","","","","","","","","",""
"","null","html-keyboard-response","26","143676","0.0-9.0-1.4","ly4nYM8zD0","656c9226c395c0344a63c586","6617fad957f7c6a12ea16e26","6622cf2936d1666a9ba2e961","
        <div id=""grid-container"">
        <!-- Grid items will be dynamically added here -->
    </div>    ","null","","","","","","","","","","","",""
"","2600","html-keyboard-response","27","148684","0.0-9.0-2.4","ly4nYM8zD0","656c9226c395c0344a63c586","6617fad957f7c6a12ea16e26","6622cf2936d1666a9ba2e961","mask grid","null","","","","","Ontogenetic_Distractor_notarget","2600","onmask"," ","4","Phylogenetic","false","practice"
"","null","html-keyboard-response","28","149893","0.0-9.0-3.4","ly4nYM8zD0","656c9226c395c0344a63c586","6617fad957f7c6a12ea16e26","6622cf2936d1666a9ba2e961","feedback screen","null","","","","","","","","","","","",""
"","null","html-keyboard-response","29","150396","0.0-9.0-0.5","ly4nYM8zD0","656c9226c395c0344a63c586","6617fad957f7c6a12ea16e26","6622cf2936d1666a9ba2e961","fixation cross","null","","","","","","","","","","","",""
"","1449","html-keyboard-response","30","151844","0.0-9.0-1.5","ly4nYM8zD0","656c9226c395c0344a63c586","6617fad957f7c6a12ea16e26","6622cf2936d1666a9ba2e961","image grid","p","","","","","Ontogenetic_Distractor_notarget","2500","ongrid"," ","4","Phylogenetic","false","practice"
"","null","html-keyboard-response","31","151999","0.0-9.0-2.5","ly4nYM8zD0","656c9226c395c0344a63c586","6617fad957f7c6a12ea16e26","6622cf2936d1666a9ba2e961","
    <div id=""grid-container"">
        <!-- Grid items will be dynamically added here -->
    </div>    ","null","","","","","","","","","","","",""
"","null","html-keyboard-response","32","153207","0.0-9.0-3.5","ly4nYM8zD0","656c9226c395c0344a63c586","6617fad957f7c6a12ea16e26","6622cf2936d1666a9ba2e961","feedback screen","null","","","","","","","","","","","",""
"","null","html-keyboard-response","33","153708","0.0-9.0-0.6","ly4nYM8zD0","656c9226c395c0344a63c586","6617fad957f7c6a12ea16e26","6622cf2936d1666a9ba2e961","fixation cross","null","","","","","","","","","","","",""
"","968","html-keyboard-response","34","154678","0.0-9.0-1.6","ly4nYM8zD0","656c9226c395c0344a63c586","6617fad957f7c6a12ea16e26","6622cf2936d1666a9ba2e961","image grid"," ","","","","","Phylogenetic_Distractor_Threat_target","2400","ongrid","q","7","Phylogenetic","false","practice"
"","null","html-keyboard-response","35","154839","0.0-9.0-2.6","ly4nYM8zD0","656c9226c395c0344a63c586","6617fad957f7c6a12ea16e26","6622cf2936d1666a9ba2e961","
    <div id=""grid-container"">
        <!-- Grid items will be dynamically added here -->
    </div>    ","null","","","","","","","","","","","",""
"","null","html-keyboard-response","36","156045","0.0-9.0-3.6","ly4nYM8zD0","656c9226c395c0344a63c586","6617fad957f7c6a12ea16e26","6622cf2936d1666a9ba2e961","feedback screen","null","","","","","","","","","","","",""
"","null","html-keyboard-response","37","156562","0.0-9.0-0.7","ly4nYM8zD0","656c9226c395c0344a63c586","6617fad957f7c6a12ea16e26","6622cf2936d1666a9ba2e961","fixation cross","null","","","","","","","","","","","",""
"","2248","html-keyboard-response","38","158811","0.0-9.0-1.7","ly4nYM8zD0","656c9226c395c0344a63c586","6617fad957f7c6a12ea16e26","6622cf2936d1666a9ba2e961","image grid","q","","","","","Ontogenetic_Distractor_Threat_target","2300","ongrid","q","2","Phylogenetic","true","practice"
"","null","html-keyboard-response","39","158966","0.0-9.0-2.7","ly4nYM8zD0","656c9226c395c0344a63c586","6617fad957f7c6a12ea16e26","6622cf2936d1666a9ba2e961","
    <div id=""grid-container"">
        <!-- Grid items will be dynamically added here -->
    </div>    ","null","","","","","","","","","","","",""
"","null","html-keyboard-response","40","160173","0.0-9.0-3.7","ly4nYM8zD0","656c9226c395c0344a63c586","6617fad957f7c6a12ea16e26","6622cf2936d1666a9ba2e961","feedback screen","null","","","","","","","","","","","",""
"","null","html-keyboard-response","41","160676","0.0-9.0-0.8","ly4nYM8zD0","656c9226c395c0344a63c586","6617fad957f7c6a12ea16e26","6622cf2936d1666a9ba2e961","fixation cross","null","","","","","","","","","","","",""
"","null","html-keyboard-response","42","162892","0.0-9.0-1.8","ly4nYM8zD0","656c9226c395c0344a63c586","6617fad957f7c6a12ea16e26","6622cf2936d1666a9ba2e961","
        <div id=""grid-container"">
        <!-- Grid items will be dynamically added here -->
    </div>    ","null","","","","","","","","","","","",""
"","2200","html-keyboard-response","43","167899","0.0-9.0-2.8","ly4nYM8zD0","656c9226c395c0344a63c586","6617fad957f7c6a12ea16e26","6622cf2936d1666a9ba2e961","mask grid","null","","","","","Phylogenetic_Distractor_Nonthreat_target","2200","onmask","p","7","Phylogenetic","false","practice"
"","975","html-keyboard-response","44","169078","0.0-9.0-3.8","ly4nYM8zD0","656c9226c395c0344a63c586","6617fad957f7c6a12ea16e26","6622cf2936d1666a9ba2e961","feedback screen"," ","","","","","","","","","","","",""
"","null","html-keyboard-response","45","169595","0.0-9.0-0.9","ly4nYM8zD0","656c9226c395c0344a63c586","6617fad957f7c6a12ea16e26","6622cf2936d1666a9ba2e961","fixation cross","null","","","","","","","","","","","",""
"","1249","html-keyboard-response","46","170845","0.0-9.0-1.9","ly4nYM8zD0","656c9226c395c0344a63c586","6617fad957f7c6a12ea16e26","6622cf2936d1666a9ba2e961","image grid","q","","","","","Ontogenetic_Distractor_Threat_target","2100","ongrid","q","2","Phylogenetic","true","practice"
"","null","html-keyboard-response","47","171007","0.0-9.0-2.9","ly4nYM8zD0","656c9226c395c0344a63c586","6617fad957f7c6a12ea16e26","6622cf2936d1666a9ba2e961","
    <div id=""grid-container"">
        <!-- Grid items will be dynamically added here -->
    </div>    ","null","","","","","","","","","","","",""
"","null","html-keyboard-response","48","172217","0.0-9.0-3.9","ly4nYM8zD0","656c9226c395c0344a63c586","6617fad957f7c6a12ea16e26","6622cf2936d1666a9ba2e961","feedback screen","null","","","","","","","","","","","",""
"","null","html-keyboard-response","49","172720","0.0-9.0-0.10","ly4nYM8zD0","656c9226c395c0344a63c586","6617fad957f7c6a12ea16e26","6622cf2936d1666a9ba2e961","fixation cross","null","","","","","","","","","","","",""
"","1640","html-keyboard-response","50","174361","0.0-9.0-1.10","ly4nYM8zD0","656c9226c395c0344a63c586","6617fad957f7c6a12ea16e26","6622cf2936d1666a9ba2e961","image grid","q","","","","","Phylogenetic_Distractor_Threat_target","2000","ongrid","q","5","Phylogenetic","true","practice"
"","null","html-keyboard-response","51","174514","0.0-9.0-2.10","ly4nYM8zD0","656c9226c395c0344a63c586","6617fad957f7c6a12ea16e26","6622cf2936d1666a9ba2e961","
    <div id=""grid-container"">
        <!-- Grid items will be dynamically added here -->
    </div>    ","null","","","","","","","","","","","",""
"","null","html-keyboard-response","52","175743","0.0-9.0-3.10","ly4nYM8zD0","656c9226c395c0344a63c586","6617fad957f7c6a12ea16e26","6622cf2936d1666a9ba2e961","feedback screen","null","","","","","","","","","","","",""
"","null","html-keyboard-response","53","176248","0.0-9.0-0.11","ly4nYM8zD0","656c9226c395c0344a63c586","6617fad957f7c6a12ea16e26","6622cf2936d1666a9ba2e961","fixation cross","null","","","","","","","","","","","",""
"","1664","html-keyboard-response","54","177912","0.0-9.0-1.11","ly4nYM8zD0","656c9226c395c0344a63c586","6617fad957f7c6a12ea16e26","6622cf2936d1666a9ba2e961","image grid"," ","","","","","Phylogenetic_Distractor_notarget","1900","ongrid"," ","4","Phylogenetic","true","practice"
"","null","html-keyboard-response","55","178069","0.0-9.0-2.11","ly4nYM8zD0","656c9226c395c0344a63c586","6617fad957f7c6a12ea16e26","6622cf2936d1666a9ba2e961","
    <div id=""grid-container"">
        <!-- Grid items will be dynamically added here -->
    </div>    ","null","","","","","","","","","","","",""
"","null","html-keyboard-response","56","179277","0.0-9.0-3.11","ly4nYM8zD0","656c9226c395c0344a63c586","6617fad957f7c6a12ea16e26","6622cf2936d1666a9ba2e961","feedback screen","null","","","","","","","","","","","",""
"","null","html-keyboard-response","57","179843","0.0-9.0-0.12","ly4nYM8zD0","656c9226c395c0344a63c586","6617fad957f7c6a12ea16e26","6622cf2936d1666a9ba2e961","fixation cross","null","","","","","","","","","","","",""
"","936","html-keyboard-response","58","180778","0.0-9.0-1.12","ly4nYM8zD0","656c9226c395c0344a63c586","6617fad957f7c6a12ea16e26","6622cf2936d1666a9ba2e961","image grid","q","","","","","Ontogenetic_Distractor_Threat_target","1800","ongrid","q","4","Phylogenetic","true","practice"
"","null","html-keyboard-response","59","180940","0.0-9.0-2.12","ly4nYM8zD0","656c9226c395c0344a63c586","6617fad957f7c6a12ea16e26","6622cf2936d1666a9ba2e961","
    <div id=""grid-container"">
        <!-- Grid items will be dynamically added here -->
    </div>    ","null","","","","","","","","","","","",""
"","null","html-keyboard-response","60","182148","0.0-9.0-3.12","ly4nYM8zD0","656c9226c395c0344a63c586","6617fad957f7c6a12ea16e26","6622cf2936d1666a9ba2e961","feedback screen","null","","","","","","","","","","","",""
"","null","html-keyboard-response","61","182651","0.0-9.0-0.13","ly4nYM8zD0","656c9226c395c0344a63c586","6617fad957f7c6a12ea16e26","6622cf2936d1666a9ba2e961","fixation cross","null","","","","","","","","","","","",""
"","1331","html-keyboard-response","62","183983","0.0-9.0-1.13","ly4nYM8zD0","656c9226c395c0344a63c586","6617fad957f7c6a12ea16e26","6622cf2936d1666a9ba2e961","image grid","q","","","","","Phylogenetic_Distractor_Threat_target","1700","ongrid","q","5","Phylogenetic","true","practice"
"","null","html-keyboard-response","63","184140","0.0-9.0-2.13","ly4nYM8zD0","656c9226c395c0344a63c586","6617fad957f7c6a12ea16e26","6622cf2936d1666a9ba2e961","
    <div id=""grid-container"">
        <!-- Grid items will be dynamically added here -->
    </div>    ","null","","","","","","","","","","","",""
"","null","html-keyboard-response","64","185357","0.0-9.0-3.13","ly4nYM8zD0","656c9226c395c0344a63c586","6617fad957f7c6a12ea16e26","6622cf2936d1666a9ba2e961","feedback screen","null","","","","","","","","","","","",""
"","null","html-keyboard-response","65","185871","0.0-9.0-0.14","ly4nYM8zD0","656c9226c395c0344a63c586","6617fad957f7c6a12ea16e26","6622cf2936d1666a9ba2e961","fixation cross","null","","","","","","","","","","","",""
"","1157","html-keyboard-response","66","187029","0.0-9.0-1.14","ly4nYM8zD0","656c9226c395c0344a63c586","6617fad957f7c6a12ea16e26","6622cf2936d1666a9ba2e961","image grid"," ","","","","","Ontogenetic_Distractor_Nonthreat_target","1600","ongrid","p","6","Phylogenetic","false","practice"
"","null","html-keyboard-response","67","187186","0.0-9.0-2.14","ly4nYM8zD0","656c9226c395c0344a63c586","6617fad957f7c6a12ea16e26","6622cf2936d1666a9ba2e961","
    <div id=""grid-container"">
        <!-- Grid items will be dynamically added here -->
    </div>    ","null","","","","","","","","","","","",""
"","null","html-keyboard-response","68","188407","0.0-9.0-3.14","ly4nYM8zD0","656c9226c395c0344a63c586","6617fad957f7c6a12ea16e26","6622cf2936d1666a9ba2e961","feedback screen","null","","","","","","","","","","","",""
"","null","html-keyboard-response","69","188919","0.0-9.0-0.15","ly4nYM8zD0","656c9226c395c0344a63c586","6617fad957f7c6a12ea16e26","6622cf2936d1666a9ba2e961","fixation cross","null","","","","","","","","","","","",""
"","null","html-keyboard-response","70","190422","0.0-9.0-1.15","ly4nYM8zD0","656c9226c395c0344a63c586","6617fad957f7c6a12ea16e26","6622cf2936d1666a9ba2e961","
        <div id=""grid-container"">
        <!-- Grid items will be dynamically added here -->
    </div>    ","null","","","","","","","","","","","",""
"","1883","html-keyboard-response","71","190806","0.0-9.0-2.15","ly4nYM8zD0","656c9226c395c0344a63c586","6617fad957f7c6a12ea16e26","6622cf2936d1666a9ba2e961","mask grid","q","","","","","Ontogenetic_Distractor_Nonthreat_target","1500","onmask","p","8","Phylogenetic","false","practice"
"","null","html-keyboard-response","72","192030","0.0-9.0-3.15","ly4nYM8zD0","656c9226c395c0344a63c586","6617fad957f7c6a12ea16e26","6622cf2936d1666a9ba2e961","feedback screen","null","","","","","","","","","","","",""
"","null","html-keyboard-response","73","192546","0.0-9.0-0.16","ly4nYM8zD0","656c9226c395c0344a63c586","6617fad957f7c6a12ea16e26","6622cf2936d1666a9ba2e961","fixation cross","null","","","","","","","","","","","",""
"","null","html-keyboard-response","74","193957","0.0-9.0-1.16","ly4nYM8zD0","656c9226c395c0344a63c586","6617fad957f7c6a12ea16e26","6622cf2936d1666a9ba2e961","
        <div id=""grid-container"">
        <!-- Grid items will be dynamically added here -->
    </div>    ","null","","","","","","","","","","","",""
"","1400","html-keyboard-response","75","198963","0.0-9.0-2.16","ly4nYM8zD0","656c9226c395c0344a63c586","6617fad957f7c6a12ea16e26","6622cf2936d1666a9ba2e961","mask grid","null","","","","","Phylogenetic_Distractor_Nonthreat_target","1400","onmask","p","5","Phylogenetic","false","practice"
"","null","html-keyboard-response","76","200251","0.0-9.0-3.16","ly4nYM8zD0","656c9226c395c0344a63c586","6617fad957f7c6a12ea16e26","6622cf2936d1666a9ba2e961","feedback screen","null","","","","","","","","","","","",""
"","null","html-keyboard-response","77","200753","0.0-9.0-0.17","ly4nYM8zD0","656c9226c395c0344a63c586","6617fad957f7c6a12ea16e26","6622cf2936d1666a9ba2e961","fixation cross","null","","","","","","","","","","","",""
"","null","html-keyboard-response","78","202055","0.0-9.0-1.17","ly4nYM8zD0","656c9226c395c0344a63c586","6617fad957f7c6a12ea16e26","6622cf2936d1666a9ba2e961","
        <div id=""grid-container"">
        <!-- Grid items will be dynamically added here -->
    </div>    ","null","","","","","","","","","","","",""
"","2580","html-keyboard-response","79","203336","0.0-9.0-2.17","ly4nYM8zD0","656c9226c395c0344a63c586","6617fad957f7c6a12ea16e26","6622cf2936d1666a9ba2e961","mask grid"," ","","","","","Phylogenetic_Distractor_Threat_target","1300","onmask","q","5","Phylogenetic","false","practice"
"","null","html-keyboard-response","80","204550","0.0-9.0-3.17","ly4nYM8zD0","656c9226c395c0344a63c586","6617fad957f7c6a12ea16e26","6622cf2936d1666a9ba2e961","feedback screen","null","","","","","","","","","","","",""
"","null","html-keyboard-response","81","205055","0.0-9.0-0.18","ly4nYM8zD0","656c9226c395c0344a63c586","6617fad957f7c6a12ea16e26","6622cf2936d1666a9ba2e961","fixation cross","null","","","","","","","","","","","",""
"","null","html-keyboard-response","82","206265","0.0-9.0-1.18","ly4nYM8zD0","656c9226c395c0344a63c586","6617fad957f7c6a12ea16e26","6622cf2936d1666a9ba2e961","
        <div id=""grid-container"">
        <!-- Grid items will be dynamically added here -->
    </div>    ","null","","","","","","","","","","","",""
"","1607","html-keyboard-response","83","206673","0.0-9.0-2.18","ly4nYM8zD0","656c9226c395c0344a63c586","6617fad957f7c6a12ea16e26","6622cf2936d1666a9ba2e961","mask grid","q","","","","","Ontogenetic_Distractor_Threat_target","1200","onmask","q","1","Phylogenetic","true","practice"
"","null","html-keyboard-response","84","207882","0.0-9.0-3.18","ly4nYM8zD0","656c9226c395c0344a63c586","6617fad957f7c6a12ea16e26","6622cf2936d1666a9ba2e961","feedback screen","null","","","","","","","","","","","",""
"","null","html-keyboard-response","85","208385","0.0-9.0-0.19","ly4nYM8zD0","656c9226c395c0344a63c586","6617fad957f7c6a12ea16e26","6622cf2936d1666a9ba2e961","fixation cross","null","","","","","","","","","","","",""
"","null","html-keyboard-response","86","209500","0.0-9.0-1.19","ly4nYM8zD0","656c9226c395c0344a63c586","6617fad957f7c6a12ea16e26","6622cf2936d1666a9ba2e961","
        <div id=""grid-container"">
        <!-- Grid items will be dynamically added here -->
    </div>    ","null","","","","","","","","","","","",""
"","1100","html-keyboard-response","87","214510","0.0-9.0-2.19","ly4nYM8zD0","656c9226c395c0344a63c586","6617fad957f7c6a12ea16e26","6622cf2936d1666a9ba2e961","mask grid","null","","","","","Ontogenetic_Distractor_Nonthreat_target","1100","onmask","p","3","Phylogenetic","false","practice"
"","null","html-keyboard-response","88","215721","0.0-9.0-3.19","ly4nYM8zD0","656c9226c395c0344a63c586","6617fad957f7c6a12ea16e26","6622cf2936d1666a9ba2e961","feedback screen","null","","","","","","","","","","","",""
"","5946","html-keyboard-response","89","221669","0.0-10.0","ly4nYM8zD0","656c9226c395c0344a63c586","6617fad957f7c6a12ea16e26","6622cf2936d1666a9ba2e961","pre-experimental_briefing"," ","","","","","","","","","","","",""
"","null","html-keyboard-response","90","224182","0.0-11.0-0.0","ly4nYM8zD0","656c9226c395c0344a63c586","6617fad957f7c6a12ea16e26","6622cf2936d1666a9ba2e961","fixation cross","null","","","","","","","","","","","",""
"","null","html-keyboard-response","91","226693","0.0-11.0-1.0","ly4nYM8zD0","656c9226c395c0344a63c586","6617fad957f7c6a12ea16e26","6622cf2936d1666a9ba2e961","
        <div id=""grid-container"">
        <!-- Grid items will be dynamically added here -->
    </div>    ","null","","","","","","","","","","","",""
"","2500","html-keyboard-response","92","231701","0.0-11.0-2.0","ly4nYM8zD0","656c9226c395c0344a63c586","6617fad957f7c6a12ea16e26","6622cf2936d1666a9ba2e961","mask grid","null","","","","","Phylogenetic_Distractor_Threat_target","2500","onmask","q","1","Phylogenetic","false","experimental"
"","null","html-keyboard-response","93","232406","0.0-11.0-0.1","ly4nYM8zD0","656c9226c395c0344a63c586","6617fad957f7c6a12ea16e26","6622cf2936d1666a9ba2e961","fixation cross","null","","","","","","","","","","","",""
"","null","html-keyboard-response","94","234919","0.0-11.0-1.1","ly4nYM8zD0","656c9226c395c0344a63c586","6617fad957f7c6a12ea16e26","6622cf2936d1666a9ba2e961","
        <div id=""grid-container"">
        <!-- Grid items will be dynamically added here -->
    </div>    ","null","","","","","","","","","","","",""
"","2762","html-keyboard-response","95","235183","0.0-11.0-2.1","ly4nYM8zD0","656c9226c395c0344a63c586","6617fad957f7c6a12ea16e26","6622cf2936d1666a9ba2e961","mask grid","q","","","","","Phylogenetic_Distractor_Threat_target","2500","onmask","q","6","Phylogenetic","true","experimental"
"","null","html-keyboard-response","96","235892","0.0-11.0-0.2","ly4nYM8zD0","656c9226c395c0344a63c586","6617fad957f7c6a12ea16e26","6622cf2936d1666a9ba2e961","fixation cross","null","","","","","","","","","","","",""
"","2378","html-keyboard-response","97","238270","0.0-11.0-1.2","ly4nYM8zD0","656c9226c395c0344a63c586","6617fad957f7c6a12ea16e26","6622cf2936d1666a9ba2e961","image grid","q","","","","","Phylogenetic_Distractor_Nonthreat_target","2500","ongrid","p","2","Phylogenetic","false","experimental"
"","null","html-keyboard-response","98","238435","0.0-11.0-2.2","ly4nYM8zD0","656c9226c395c0344a63c586","6617fad957f7c6a12ea16e26","6622cf2936d1666a9ba2e961","
    <div id=""grid-container"">
        <!-- Grid items will be dynamically added here -->
    </div>    ","null","","","","","","","","","","","",""
"","null","html-keyboard-response","99","239140","0.0-11.0-0.3","ly4nYM8zD0","656c9226c395c0344a63c586","6617fad957f7c6a12ea16e26","6622cf2936d1666a9ba2e961","fixation cross","null","","","","","","","","","","","",""
"","2222","html-keyboard-response","100","241365","0.0-11.0-1.3","ly4nYM8zD0","656c9226c395c0344a63c586","6617fad957f7c6a12ea16e26","6622cf2936d1666a9ba2e961","image grid","q","","","","","Phylogenetic_Distractor_Nonthreat_target","2500","ongrid","p","5","Phylogenetic","false","experimental"
"","null","html-keyboard-response","101","241526","0.0-11.0-2.3","ly4nYM8zD0","656c9226c395c0344a63c586","6617fad957f7c6a12ea16e26","6622cf2936d1666a9ba2e961","
    <div id=""grid-container"">
        <!-- Grid items will be dynamically added here -->
    </div>    ","null","","","","","","","","","","","",""
"","null","html-keyboard-response","102","242232","0.0-11.0-0.4","ly4nYM8zD0","656c9226c395c0344a63c586","6617fad957f7c6a12ea16e26","6622cf2936d1666a9ba2e961","fixation cross","null","","","","","","","","","","","",""
"","1384","html-keyboard-response","103","243616","0.0-11.0-1.4","ly4nYM8zD0","656c9226c395c0344a63c586","6617fad957f7c6a12ea16e26","6622cf2936d1666a9ba2e961","image grid","q","","","","","Phylogenetic_Distractor_Nonthreat_target","2500","ongrid","p","5","Phylogenetic","false","experimental"
"","null","html-keyboard-response","104","243771","0.0-11.0-2.4","ly4nYM8zD0","656c9226c395c0344a63c586","6617fad957f7c6a12ea16e26","6622cf2936d1666a9ba2e961","
    <div id=""grid-container"">
        <!-- Grid items will be dynamically added here -->
    </div>    ","null","","","","","","","","","","","",""
"","null","html-keyboard-response","105","244477","0.0-11.0-0.5","ly4nYM8zD0","656c9226c395c0344a63c586","6617fad957f7c6a12ea16e26","6622cf2936d1666a9ba2e961","fixation cross","null","","","","","","","","","","","",""
"","1842","html-keyboard-response","106","246321","0.0-11.0-1.5","ly4nYM8zD0","656c9226c395c0344a63c586","6617fad957f7c6a12ea16e26","6622cf2936d1666a9ba2e961","image grid"," ","","","","","Phylogenetic_Distractor_notarget","2500","ongrid"," ","4","Phylogenetic","true","experimental"
"","null","html-keyboard-response","107","246487","0.0-11.0-2.5","ly4nYM8zD0","656c9226c395c0344a63c586","6617fad957f7c6a12ea16e26","6622cf2936d1666a9ba2e961","
    <div id=""grid-container"">
        <!-- Grid items will be dynamically added here -->
    </div>    ","null","","","","","","","","","","","",""
"","null","html-keyboard-response","108","247191","0.0-11.0-0.6","ly4nYM8zD0","656c9226c395c0344a63c586","6617fad957f7c6a12ea16e26","6622cf2936d1666a9ba2e961","fixation cross","null","","","","","","","","","","","",""
"","1468","html-keyboard-response","109","248661","0.0-11.0-1.6","ly4nYM8zD0","656c9226c395c0344a63c586","6617fad957f7c6a12ea16e26","6622cf2936d1666a9ba2e961","image grid"," ","","","","","Phylogenetic_Distractor_notarget","2500","ongrid"," ","6","Phylogenetic","true","experimental"
"","null","html-keyboard-response","110","248826","0.0-11.0-2.6","ly4nYM8zD0","656c9226c395c0344a63c586","6617fad957f7c6a12ea16e26","6622cf2936d1666a9ba2e961","
    <div id=""grid-container"">
        <!-- Grid items will be dynamically added here -->
    </div>    ","null","","","","","","","","","","","",""
"","null","html-keyboard-response","111","249533","0.0-11.0-0.7","ly4nYM8zD0","656c9226c395c0344a63c586","6617fad957f7c6a12ea16e26","6622cf2936d1666a9ba2e961","fixation cross","null","","","","","","","","","","","",""
"","1674","html-keyboard-response","112","251208","0.0-11.0-1.7","ly4nYM8zD0","656c9226c395c0344a63c586","6617fad957f7c6a12ea16e26","6622cf2936d1666a9ba2e961","image grid"," ","","","","","Phylogenetic_Distractor_Threat_target","2500","ongrid","q","6","Phylogenetic","false","experimental"
"","null","html-keyboard-response","113","251367","0.0-11.0-2.7","ly4nYM8zD0","656c9226c395c0344a63c586","6617fad957f7c6a12ea16e26","6622cf2936d1666a9ba2e961","
    <div id=""grid-container"">
        <!-- Grid items will be dynamically added here -->
    </div>    ","null","","","","","","","","","","","",""
"","null","html-keyboard-response","114","252073","0.0-11.0-0.8","ly4nYM8zD0","656c9226c395c0344a63c586","6617fad957f7c6a12ea16e26","6622cf2936d1666a9ba2e961","fixation cross","null","","","","","","","","","","","",""
"","null","html-keyboard-response","115","254587","0.0-11.0-1.8","ly4nYM8zD0","656c9226c395c0344a63c586","6617fad957f7c6a12ea16e26","6622cf2936d1666a9ba2e961","
        <div id=""grid-container"">
        <!-- Grid items will be dynamically added here -->
    </div>    ","null","","","","","","","","","","","",""
"","2591","html-keyboard-response","116","254679","0.0-11.0-2.8","ly4nYM8zD0","656c9226c395c0344a63c586","6617fad957f7c6a12ea16e26","6622cf2936d1666a9ba2e961","mask grid","q","","","","","Phylogenetic_Distractor_Nonthreat_target","2500","onmask","p","6","Phylogenetic","false","experimental"
"","null","html-keyboard-response","117","255387","0.0-11.0-0.9","ly4nYM8zD0","656c9226c395c0344a63c586","6617fad957f7c6a12ea16e26","6622cf2936d1666a9ba2e961","fixation cross","null","","","","","","","","","","","",""
"","1587","html-keyboard-response","118","256975","0.0-11.0-1.9","ly4nYM8zD0","656c9226c395c0344a63c586","6617fad957f7c6a12ea16e26","6622cf2936d1666a9ba2e961","image grid"," ","","","","","Phylogenetic_Distractor_notarget","2500","ongrid"," ","3","Phylogenetic","true","experimental"
"","null","html-keyboard-response","119","257129","0.0-11.0-2.9","ly4nYM8zD0","656c9226c395c0344a63c586","6617fad957f7c6a12ea16e26","6622cf2936d1666a9ba2e961","
    <div id=""grid-container"">
        <!-- Grid items will be dynamically added here -->
    </div>    ","null","","","","","","","","","","","",""
"","null","html-keyboard-response","120","257835","0.0-11.0-0.10","ly4nYM8zD0","656c9226c395c0344a63c586","6617fad957f7c6a12ea16e26","6622cf2936d1666a9ba2e961","fixation cross","null","","","","","","","","","","","",""
"","1301","html-keyboard-response","121","259137","0.0-11.0-1.10","ly4nYM8zD0","656c9226c395c0344a63c586","6617fad957f7c6a12ea16e26","6622cf2936d1666a9ba2e961","image grid","q","","","","","Phylogenetic_Distractor_Threat_target","2500","ongrid","q","3","Phylogenetic","true","experimental"
"","null","html-keyboard-response","122","259297","0.0-11.0-2.10","ly4nYM8zD0","656c9226c395c0344a63c586","6617fad957f7c6a12ea16e26","6622cf2936d1666a9ba2e961","
    <div id=""grid-container"">
        <!-- Grid items will be dynamically added here -->
    </div>    ","null","","","","","","","","","","","",""
"","null","html-keyboard-response","123","260004","0.0-11.0-0.11","ly4nYM8zD0","656c9226c395c0344a63c586","6617fad957f7c6a12ea16e26","6622cf2936d1666a9ba2e961","fixation cross","null","","","","","","","","","","","",""
"","2297","html-keyboard-response","124","262301","0.0-11.0-1.11","ly4nYM8zD0","656c9226c395c0344a63c586","6617fad957f7c6a12ea16e26","6622cf2936d1666a9ba2e961","image grid","q","","","","","Phylogenetic_Distractor_Threat_target","2500","ongrid","q","4","Phylogenetic","true","experimental"
"","null","html-keyboard-response","125","262468","0.0-11.0-2.11","ly4nYM8zD0","656c9226c395c0344a63c586","6617fad957f7c6a12ea16e26","6622cf2936d1666a9ba2e961","
    <div id=""grid-container"">
        <!-- Grid items will be dynamically added here -->
    </div>    ","null","","","","","","","","","","","",""
"","null","html-keyboard-response","126","263173","0.0-11.0-0.12","ly4nYM8zD0","656c9226c395c0344a63c586","6617fad957f7c6a12ea16e26","6622cf2936d1666a9ba2e961","fixation cross","null","","","","","","","","","","","",""
"","2404","html-keyboard-response","127","265578","0.0-11.0-1.12","ly4nYM8zD0","656c9226c395c0344a63c586","6617fad957f7c6a12ea16e26","6622cf2936d1666a9ba2e961","image grid"," ","","","","","Phylogenetic_Distractor_Threat_target","2500","ongrid","q","7","Phylogenetic","false","experimental"
"","null","html-keyboard-response","128","265735","0.0-11.0-2.12","ly4nYM8zD0","656c9226c395c0344a63c586","6617fad957f7c6a12ea16e26","6622cf2936d1666a9ba2e961","
    <div id=""grid-container"">
        <!-- Grid items will be dynamically added here -->
    </div>    ","null","","","","","","","","","","","",""
"","null","html-keyboard-response","129","266440","0.0-11.0-0.13","ly4nYM8zD0","656c9226c395c0344a63c586","6617fad957f7c6a12ea16e26","6622cf2936d1666a9ba2e961","fixation cross","null","","","","","","","","","","","",""
"","1272","html-keyboard-response","130","267714","0.0-11.0-1.13","ly4nYM8zD0","656c9226c395c0344a63c586","6617fad957f7c6a12ea16e26","6622cf2936d1666a9ba2e961","image grid","q","","","","","Phylogenetic_Distractor_Nonthreat_target","2500","ongrid","p","8","Phylogenetic","false","experimental"
"","null","html-keyboard-response","131","267869","0.0-11.0-2.13","ly4nYM8zD0","656c9226c395c0344a63c586","6617fad957f7c6a12ea16e26","6622cf2936d1666a9ba2e961","
    <div id=""grid-container"">
        <!-- Grid items will be dynamically added here -->
    </div>    ","null","","","","","","","","","","","",""
"","null","html-keyboard-response","132","268575","0.0-11.0-0.14","ly4nYM8zD0","656c9226c395c0344a63c586","6617fad957f7c6a12ea16e26","6622cf2936d1666a9ba2e961","fixation cross","null","","","","","","","","","","","",""
"","2241","html-keyboard-response","133","270816","0.0-11.0-1.14","ly4nYM8zD0","656c9226c395c0344a63c586","6617fad957f7c6a12ea16e26","6622cf2936d1666a9ba2e961","image grid","q","","","","","Phylogenetic_Distractor_Nonthreat_target","2500","ongrid","p","3","Phylogenetic","false","experimental"
"","null","html-keyboard-response","134","270977","0.0-11.0-2.14","ly4nYM8zD0","656c9226c395c0344a63c586","6617fad957f7c6a12ea16e26","6622cf2936d1666a9ba2e961","
    <div id=""grid-container"">
        <!-- Grid items will be dynamically added here -->
    </div>    ","null","","","","","","","","","","","",""
"","null","html-keyboard-response","135","271683","0.0-11.0-0.15","ly4nYM8zD0","656c9226c395c0344a63c586","6617fad957f7c6a12ea16e26","6622cf2936d1666a9ba2e961","fixation cross","null","","","","","","","","","","","",""
"","1273","html-keyboard-response","136","272956","0.0-11.0-1.15","ly4nYM8zD0","656c9226c395c0344a63c586","6617fad957f7c6a12ea16e26","6622cf2936d1666a9ba2e961","image grid","q","","","","","Phylogenetic_Distractor_Threat_target","2500","ongrid","q","8","Phylogenetic","true","experimental"
"","null","html-keyboard-response","137","273111","0.0-11.0-2.15","ly4nYM8zD0","656c9226c395c0344a63c586","6617fad957f7c6a12ea16e26","6622cf2936d1666a9ba2e961","
    <div id=""grid-container"">
        <!-- Grid items will be dynamically added here -->
    </div>    ","null","","","","","","","","","","","",""
"","null","html-keyboard-response","138","273816","0.0-11.0-0.16","ly4nYM8zD0","656c9226c395c0344a63c586","6617fad957f7c6a12ea16e26","6622cf2936d1666a9ba2e961","fixation cross","null","","","","","","","","","","","",""
"","1568","html-keyboard-response","139","275385","0.0-11.0-1.16","ly4nYM8zD0","656c9226c395c0344a63c586","6617fad957f7c6a12ea16e26","6622cf2936d1666a9ba2e961","image grid","q","","","","","Phylogenetic_Distractor_Nonthreat_target","2500","ongrid","p","6","Phylogenetic","false","experimental"
"","null","html-keyboard-response","140","275544","0.0-11.0-2.16","ly4nYM8zD0","656c9226c395c0344a63c586","6617fad957f7c6a12ea16e26","6622cf2936d1666a9ba2e961","
    <div id=""grid-container"">
        <!-- Grid items will be dynamically added here -->
    </div>    ","null","","","","","","","","","","","",""
"","null","html-keyboard-response","141","276249","0.0-11.0-0.17","ly4nYM8zD0","656c9226c395c0344a63c586","6617fad957f7c6a12ea16e26","6622cf2936d1666a9ba2e961","fixation cross","null","","","","","","","","","","","",""
"","1378","html-keyboard-response","142","277630","0.0-11.0-1.17","ly4nYM8zD0","656c9226c395c0344a63c586","6617fad957f7c6a12ea16e26","6622cf2936d1666a9ba2e961","image grid","q","","","","","Phylogenetic_Distractor_Threat_target","2500","ongrid","q","9","Phylogenetic","true","experimental"
"","null","html-keyboard-response","143","277787","0.0-11.0-2.17","ly4nYM8zD0","656c9226c395c0344a63c586","6617fad957f7c6a12ea16e26","6622cf2936d1666a9ba2e961","
    <div id=""grid-container"">
        <!-- Grid items will be dynamically added here -->
    </div>    ","null","","","","","","","","","","","",""
"","null","html-keyboard-response","144","278493","0.0-11.0-0.18","ly4nYM8zD0","656c9226c395c0344a63c586","6617fad957f7c6a12ea16e26","6622cf2936d1666a9ba2e961","fixation cross","null","","","","","","","","","","","",""
"","1731","html-keyboard-response","145","280223","0.0-11.0-1.18","ly4nYM8zD0","656c9226c395c0344a63c586","6617fad957f7c6a12ea16e26","6622cf2936d1666a9ba2e961","image grid","q","","","","","Phylogenetic_Distractor_Threat_target","2500","ongrid","q","7","Phylogenetic","true","experimental"
"","null","html-keyboard-response","146","280375","0.0-11.0-2.18","ly4nYM8zD0","656c9226c395c0344a63c586","6617fad957f7c6a12ea16e26","6622cf2936d1666a9ba2e961","
    <div id=""grid-container"">
        <!-- Grid items will be dynamically added here -->
    </div>    ","null","","","","","","","","","","","",""
"","null","html-keyboard-response","147","281114","0.0-11.0-0.19","ly4nYM8zD0","656c9226c395c0344a63c586","6617fad957f7c6a12ea16e26","6622cf2936d1666a9ba2e961","fixation cross","null","","","","","","","","","","","",""
"","1651","html-keyboard-response","148","282766","0.0-11.0-1.19","ly4nYM8zD0","656c9226c395c0344a63c586","6617fad957f7c6a12ea16e26","6622cf2936d1666a9ba2e961","image grid"," ","","","","","Phylogenetic_Distractor_notarget","2500","ongrid"," ","8","Phylogenetic","true","experimental"
"","null","html-keyboard-response","149","282921","0.0-11.0-2.19","ly4nYM8zD0","656c9226c395c0344a63c586","6617fad957f7c6a12ea16e26","6622cf2936d1666a9ba2e961","
    <div id=""grid-container"">
        <!-- Grid items will be dynamically added here -->
    </div>    ","null","","","","","","","","","","","",""
"","null","html-keyboard-response","150","283657","0.0-11.0-0.20","ly4nYM8zD0","656c9226c395c0344a63c586","6617fad957f7c6a12ea16e26","6622cf2936d1666a9ba2e961","fixation cross","null","","","","","","","","","","","",""
"","1044","html-keyboard-response","151","284703","0.0-11.0-1.20","ly4nYM8zD0","656c9226c395c0344a63c586","6617fad957f7c6a12ea16e26","6622cf2936d1666a9ba2e961","image grid","q","","","","","Phylogenetic_Distractor_Threat_target","2500","ongrid","q","2","Phylogenetic","true","experimental"
"","null","html-keyboard-response","152","284866","0.0-11.0-2.20","ly4nYM8zD0","656c9226c395c0344a63c586","6617fad957f7c6a12ea16e26","6622cf2936d1666a9ba2e961","
    <div id=""grid-container"">
        <!-- Grid items will be dynamically added here -->
    </div>    ","null","","","","","","","","","","","",""
"","null","html-keyboard-response","153","285573","0.0-11.0-0.21","ly4nYM8zD0","656c9226c395c0344a63c586","6617fad957f7c6a12ea16e26","6622cf2936d1666a9ba2e961","fixation cross","null","","","","","","","","","","","",""
"","null","html-keyboard-response","154","288081","0.0-11.0-1.21","ly4nYM8zD0","656c9226c395c0344a63c586","6617fad957f7c6a12ea16e26","6622cf2936d1666a9ba2e961","
        <div id=""grid-container"">
        <!-- Grid items will be dynamically added here -->
    </div>    ","null","","","","","","","","","","","",""
"","2500","html-keyboard-response","155","293089","0.0-11.0-2.21","ly4nYM8zD0","656c9226c395c0344a63c586","6617fad957f7c6a12ea16e26","6622cf2936d1666a9ba2e961","mask grid","null","","","","","Phylogenetic_Distractor_Nonthreat_target","2500","onmask","p","3","Phylogenetic","false","experimental"
"","null","html-keyboard-response","156","293795","0.0-11.0-0.22","ly4nYM8zD0","656c9226c395c0344a63c586","6617fad957f7c6a12ea16e26","6622cf2936d1666a9ba2e961","fixation cross","null","","","","","","","","","","","",""
"","1742","html-keyboard-response","157","295539","0.0-11.0-1.22","ly4nYM8zD0","656c9226c395c0344a63c586","6617fad957f7c6a12ea16e26","6622cf2936d1666a9ba2e961","image grid"," ","","","","","Phylogenetic_Distractor_Nonthreat_target","2500","ongrid","p","6","Phylogenetic","false","experimental"
"","null","html-keyboard-response","158","295694","0.0-11.0-2.22","ly4nYM8zD0","656c9226c395c0344a63c586","6617fad957f7c6a12ea16e26","6622cf2936d1666a9ba2e961","
    <div id=""grid-container"">
        <!-- Grid items will be dynamically added here -->
    </div>    ","null","","","","","","","","","","","",""
"","null","html-keyboard-response","159","296399","0.0-11.0-0.23","ly4nYM8zD0","656c9226c395c0344a63c586","6617fad957f7c6a12ea16e26","6622cf2936d1666a9ba2e961","fixation cross","null","","","","","","","","","","","",""
"","1980","html-keyboard-response","160","298380","0.0-11.0-1.23","ly4nYM8zD0","656c9226c395c0344a63c586","6617fad957f7c6a12ea16e26","6622cf2936d1666a9ba2e961","image grid","q","","","","","Phylogenetic_Distractor_Threat_target","2500","ongrid","q","1","Phylogenetic","true","experimental"
"","null","html-keyboard-response","161","298534","0.0-11.0-2.23","ly4nYM8zD0","656c9226c395c0344a63c586","6617fad957f7c6a12ea16e26","6622cf2936d1666a9ba2e961","
    <div id=""grid-container"">
        <!-- Grid items will be dynamically added here -->
    </div>    ","null","","","","","","","","","","","",""
"","null","html-keyboard-response","162","299240","0.0-11.0-0.24","ly4nYM8zD0","656c9226c395c0344a63c586","6617fad957f7c6a12ea16e26","6622cf2936d1666a9ba2e961","fixation cross","null","","","","","","","","","","","",""
"","1048","html-keyboard-response","163","300289","0.0-11.0-1.24","ly4nYM8zD0","656c9226c395c0344a63c586","6617fad957f7c6a12ea16e26","6622cf2936d1666a9ba2e961","image grid","q","","","","","Phylogenetic_Distractor_Nonthreat_target","2500","ongrid","p","6","Phylogenetic","false","experimental"
"","null","html-keyboard-response","164","300448","0.0-11.0-2.24","ly4nYM8zD0","656c9226c395c0344a63c586","6617fad957f7c6a12ea16e26","6622cf2936d1666a9ba2e961","
    <div id=""grid-container"">
        <!-- Grid items will be dynamically added here -->
    </div>    ","null","","","","","","","","","","","",""
"","null","html-keyboard-response","165","301171","0.0-11.0-0.25","ly4nYM8zD0","656c9226c395c0344a63c586","6617fad957f7c6a12ea16e26","6622cf2936d1666a9ba2e961","fixation cross","null","","","","","","","","","","","",""
"","1421","html-keyboard-response","166","302592","0.0-11.0-1.25","ly4nYM8zD0","656c9226c395c0344a63c586","6617fad957f7c6a12ea16e26","6622cf2936d1666a9ba2e961","image grid","q","","","","","Phylogenetic_Distractor_Threat_target","2500","ongrid","q","1","Phylogenetic","true","experimental"
"","null","html-keyboard-response","167","302756","0.0-11.0-2.25","ly4nYM8zD0","656c9226c395c0344a63c586","6617fad957f7c6a12ea16e26","6622cf2936d1666a9ba2e961","
    <div id=""grid-container"">
        <!-- Grid items will be dynamically added here -->
    </div>    ","null","","","","","","","","","","","",""
"","null","html-keyboard-response","168","303463","0.0-11.0-0.26","ly4nYM8zD0","656c9226c395c0344a63c586","6617fad957f7c6a12ea16e26","6622cf2936d1666a9ba2e961","fixation cross","null","","","","","","","","","","","",""
"","1661","html-keyboard-response","169","305123","0.0-11.0-1.26","ly4nYM8zD0","656c9226c395c0344a63c586","6617fad957f7c6a12ea16e26","6622cf2936d1666a9ba2e961","image grid"," ","","","","","Phylogenetic_Distractor_Threat_target","2500","ongrid","q","7","Phylogenetic","false","experimental"
"","null","html-keyboard-response","170","305283","0.0-11.0-2.26","ly4nYM8zD0","656c9226c395c0344a63c586","6617fad957f7c6a12ea16e26","6622cf2936d1666a9ba2e961","
    <div id=""grid-container"">
        <!-- Grid items will be dynamically added here -->
    </div>    ","null","","","","","","","","","","","",""
"","null","html-keyboard-response","171","305990","0.0-11.0-0.27","ly4nYM8zD0","656c9226c395c0344a63c586","6617fad957f7c6a12ea16e26","6622cf2936d1666a9ba2e961","fixation cross","null","","","","","","","","","","","",""
"","1201","html-keyboard-response","172","307191","0.0-11.0-1.27","ly4nYM8zD0","656c9226c395c0344a63c586","6617fad957f7c6a12ea16e26","6622cf2936d1666a9ba2e961","image grid","q","","","","","Phylogenetic_Distractor_Nonthreat_target","2500","ongrid","p","1","Phylogenetic","false","experimental"
"","null","html-keyboard-response","173","307355","0.0-11.0-2.27","ly4nYM8zD0","656c9226c395c0344a63c586","6617fad957f7c6a12ea16e26","6622cf2936d1666a9ba2e961","
    <div id=""grid-container"">
        <!-- Grid items will be dynamically added here -->
    </div>    ","null","","","","","","","","","","","",""
"","null","html-keyboard-response","174","308062","0.0-11.0-0.28","ly4nYM8zD0","656c9226c395c0344a63c586","6617fad957f7c6a12ea16e26","6622cf2936d1666a9ba2e961","fixation cross","null","","","","","","","","","","","",""
"","1176","html-keyboard-response","175","309239","0.0-11.0-1.28","ly4nYM8zD0","656c9226c395c0344a63c586","6617fad957f7c6a12ea16e26","6622cf2936d1666a9ba2e961","image grid","q","","","","","Phylogenetic_Distractor_Nonthreat_target","2500","ongrid","p","2","Phylogenetic","false","experimental"
"","null","html-keyboard-response","176","309397","0.0-11.0-2.28","ly4nYM8zD0","656c9226c395c0344a63c586","6617fad957f7c6a12ea16e26","6622cf2936d1666a9ba2e961","
    <div id=""grid-container"">
        <!-- Grid items will be dynamically added here -->
    </div>    ","null","","","","","","","","","","","",""
"","null","html-keyboard-response","177","310103","0.0-11.0-0.29","ly4nYM8zD0","656c9226c395c0344a63c586","6617fad957f7c6a12ea16e26","6622cf2936d1666a9ba2e961","fixation cross","null","","","","","","","","","","","",""
"","1417","html-keyboard-response","178","311520","0.0-11.0-1.29","ly4nYM8zD0","656c9226c395c0344a63c586","6617fad957f7c6a12ea16e26","6622cf2936d1666a9ba2e961","image grid","q","","","","","Phylogenetic_Distractor_Nonthreat_target","2500","ongrid","p","1","Phylogenetic","false","experimental"
"","null","html-keyboard-response","179","311687","0.0-11.0-2.29","ly4nYM8zD0","656c9226c395c0344a63c586","6617fad957f7c6a12ea16e26","6622cf2936d1666a9ba2e961","
    <div id=""grid-container"">
        <!-- Grid items will be dynamically added here -->
    </div>    ","null","","","","","","","","","","","",""
"","null","html-keyboard-response","180","312391","0.0-11.0-0.30","ly4nYM8zD0","656c9226c395c0344a63c586","6617fad957f7c6a12ea16e26","6622cf2936d1666a9ba2e961","fixation cross","null","","","","","","","","","","","",""
"","920","html-keyboard-response","181","313312","0.0-11.0-1.30","ly4nYM8zD0","656c9226c395c0344a63c586","6617fad957f7c6a12ea16e26","6622cf2936d1666a9ba2e961","image grid","q","","","","","Phylogenetic_Distractor_Nonthreat_target","2500","ongrid","p","4","Phylogenetic","false","experimental"
"","null","html-keyboard-response","182","313474","0.0-11.0-2.30","ly4nYM8zD0","656c9226c395c0344a63c586","6617fad957f7c6a12ea16e26","6622cf2936d1666a9ba2e961","
    <div id=""grid-container"">
        <!-- Grid items will be dynamically added here -->
    </div>    ","null","","","","","","","","","","","",""
"","null","html-keyboard-response","183","314181","0.0-11.0-0.31","ly4nYM8zD0","656c9226c395c0344a63c586","6617fad957f7c6a12ea16e26","6622cf2936d1666a9ba2e961","fixation cross","null","","","","","","","","","","","",""
"","811","html-keyboard-response","184","314993","0.0-11.0-1.31","ly4nYM8zD0","656c9226c395c0344a63c586","6617fad957f7c6a12ea16e26","6622cf2936d1666a9ba2e961","image grid","q","","","","","Phylogenetic_Distractor_Nonthreat_target","2500","ongrid","p","5","Phylogenetic","false","experimental"
"","null","html-keyboard-response","185","315154","0.0-11.0-2.31","ly4nYM8zD0","656c9226c395c0344a63c586","6617fad957f7c6a12ea16e26","6622cf2936d1666a9ba2e961","
    <div id=""grid-container"">
        <!-- Grid items will be dynamically added here -->
    </div>    ","null","","","","","","","","","","","",""
"","null","html-keyboard-response","186","315860","0.0-11.0-0.32","ly4nYM8zD0","656c9226c395c0344a63c586","6617fad957f7c6a12ea16e26","6622cf2936d1666a9ba2e961","fixation cross","null","","","","","","","","","","","",""
"","1082","html-keyboard-response","187","316942","0.0-11.0-1.32","ly4nYM8zD0","656c9226c395c0344a63c586","6617fad957f7c6a12ea16e26","6622cf2936d1666a9ba2e961","image grid","q","","","","","Phylogenetic_Distractor_Nonthreat_target","2500","ongrid","p","1","Phylogenetic","false","experimental"
"","null","html-keyboard-response","188","317098","0.0-11.0-2.32","ly4nYM8zD0","656c9226c395c0344a63c586","6617fad957f7c6a12ea16e26","6622cf2936d1666a9ba2e961","
    <div id=""grid-container"">
        <!-- Grid items will be dynamically added here -->
    </div>    ","null","","","","","","","","","","","",""
"","null","html-keyboard-response","189","317804","0.0-11.0-0.33","ly4nYM8zD0","656c9226c395c0344a63c586","6617fad957f7c6a12ea16e26","6622cf2936d1666a9ba2e961","fixation cross","null","","","","","","","","","","","",""
"","1513","html-keyboard-response","190","319318","0.0-11.0-1.33","ly4nYM8zD0","656c9226c395c0344a63c586","6617fad957f7c6a12ea16e26","6622cf2936d1666a9ba2e961","image grid","q","","","","","Phylogenetic_Distractor_Threat_target","2500","ongrid","q","8","Phylogenetic","true","experimental"
"","null","html-keyboard-response","191","319486","0.0-11.0-2.33","ly4nYM8zD0","656c9226c395c0344a63c586","6617fad957f7c6a12ea16e26","6622cf2936d1666a9ba2e961","
    <div id=""grid-container"">
        <!-- Grid items will be dynamically added here -->
    </div>    ","null","","","","","","","","","","","",""
"","null","html-keyboard-response","192","320192","0.0-11.0-0.34","ly4nYM8zD0","656c9226c395c0344a63c586","6617fad957f7c6a12ea16e26","6622cf2936d1666a9ba2e961","fixation cross","null","","","","","","","","","","","",""
"","1372","html-keyboard-response","193","321565","0.0-11.0-1.34","ly4nYM8zD0","656c9226c395c0344a63c586","6617fad957f7c6a12ea16e26","6622cf2936d1666a9ba2e961","image grid","q","","","","","Phylogenetic_Distractor_Threat_target","2500","ongrid","q","9","Phylogenetic","true","experimental"
"","null","html-keyboard-response","194","321729","0.0-11.0-2.34","ly4nYM8zD0","656c9226c395c0344a63c586","6617fad957f7c6a12ea16e26","6622cf2936d1666a9ba2e961","
    <div id=""grid-container"">
        <!-- Grid items will be dynamically added here -->
    </div>    ","null","","","","","","","","","","","",""
"","null","html-keyboard-response","195","322436","0.0-11.0-0.35","ly4nYM8zD0","656c9226c395c0344a63c586","6617fad957f7c6a12ea16e26","6622cf2936d1666a9ba2e961","fixation cross","null","","","","","","","","","","","",""
"","1089","html-keyboard-response","196","323525","0.0-11.0-1.35","ly4nYM8zD0","656c9226c395c0344a63c586","6617fad957f7c6a12ea16e26","6622cf2936d1666a9ba2e961","image grid","q","","","","","Phylogenetic_Distractor_Threat_target","2500","ongrid","q","8","Phylogenetic","true","experimental"
"","null","html-keyboard-response","197","323692","0.0-11.0-2.35","ly4nYM8zD0","656c9226c395c0344a63c586","6617fad957f7c6a12ea16e26","6622cf2936d1666a9ba2e961","
    <div id=""grid-container"">
        <!-- Grid items will be dynamically added here -->
    </div>    ","null","","","","","","","","","","","",""
"","null","html-keyboard-response","198","324399","0.0-11.0-0.36","ly4nYM8zD0","656c9226c395c0344a63c586","6617fad957f7c6a12ea16e26","6622cf2936d1666a9ba2e961","fixation cross","null","","","","","","","","","","","",""
"","1444","html-keyboard-response","199","325845","0.0-11.0-1.36","ly4nYM8zD0","656c9226c395c0344a63c586","6617fad957f7c6a12ea16e26","6622cf2936d1666a9ba2e961","image grid","q","","","","","Phylogenetic_Distractor_Threat_target","2500","ongrid","q","2","Phylogenetic","true","experimental"
"","null","html-keyboard-response","200","326000","0.0-11.0-2.36","ly4nYM8zD0","656c9226c395c0344a63c586","6617fad957f7c6a12ea16e26","6622cf2936d1666a9ba2e961","
    <div id=""grid-container"">
        <!-- Grid items will be dynamically added here -->
    </div>    ","null","","","","","","","","","","","",""
"","null","html-keyboard-response","201","326706","0.0-11.0-0.37","ly4nYM8zD0","656c9226c395c0344a63c586","6617fad957f7c6a12ea16e26","6622cf2936d1666a9ba2e961","fixation cross","null","","","","","","","","","","","",""
"","1394","html-keyboard-response","202","328100","0.0-11.0-1.37","ly4nYM8zD0","656c9226c395c0344a63c586","6617fad957f7c6a12ea16e26","6622cf2936d1666a9ba2e961","image grid","q","","","","","Phylogenetic_Distractor_Threat_target","2500","ongrid","q","3","Phylogenetic","true","experimental"
"","null","html-keyboard-response","203","328260","0.0-11.0-2.37","ly4nYM8zD0","656c9226c395c0344a63c586","6617fad957f7c6a12ea16e26","6622cf2936d1666a9ba2e961","
    <div id=""grid-container"">
        <!-- Grid items will be dynamically added here -->
    </div>    ","null","","","","","","","","","","","",""
"","null","html-keyboard-response","204","328967","0.0-11.0-0.38","ly4nYM8zD0","656c9226c395c0344a63c586","6617fad957f7c6a12ea16e26","6622cf2936d1666a9ba2e961","fixation cross","null","","","","","","","","","","","",""
"","1091","html-keyboard-response","205","330057","0.0-11.0-1.38","ly4nYM8zD0","656c9226c395c0344a63c586","6617fad957f7c6a12ea16e26","6622cf2936d1666a9ba2e961","image grid","q","","","","","Phylogenetic_Distractor_Nonthreat_target","2500","ongrid","p","9","Phylogenetic","false","experimental"
"","null","html-keyboard-response","206","330224","0.0-11.0-2.38","ly4nYM8zD0","656c9226c395c0344a63c586","6617fad957f7c6a12ea16e26","6622cf2936d1666a9ba2e961","
    <div id=""grid-container"">
        <!-- Grid items will be dynamically added here -->
    </div>    ","null","","","","","","","","","","","",""
"","null","html-keyboard-response","207","330930","0.0-11.0-0.39","ly4nYM8zD0","656c9226c395c0344a63c586","6617fad957f7c6a12ea16e26","6622cf2936d1666a9ba2e961","fixation cross","null","","","","","","","","","","","",""
"","1397","html-keyboard-response","208","332328","0.0-11.0-1.39","ly4nYM8zD0","656c9226c395c0344a63c586","6617fad957f7c6a12ea16e26","6622cf2936d1666a9ba2e961","image grid"," ","","","","","Phylogenetic_Distractor_Nonthreat_target","2500","ongrid","p","9","Phylogenetic","false","experimental"
"","null","html-keyboard-response","209","332483","0.0-11.0-2.39","ly4nYM8zD0","656c9226c395c0344a63c586","6617fad957f7c6a12ea16e26","6622cf2936d1666a9ba2e961","
    <div id=""grid-container"">
        <!-- Grid items will be dynamically added here -->
    </div>    ","null","","","","","","","","","","","",""
"","3284","html-keyboard-response","210","335973","0.0-12.0","ly4nYM8zD0","656c9226c395c0344a63c586","6617fad957f7c6a12ea16e26","6622cf2936d1666a9ba2e961","break screen"," ","","","","","","","","","","","",""
"","null","html-keyboard-response","211","338542","0.0-13.0-0.0","ly4nYM8zD0","656c9226c395c0344a63c586","6617fad957f7c6a12ea16e26","6622cf2936d1666a9ba2e961","fixation cross","null","","","","","","","","","","","",""
"","null","html-keyboard-response","212","341054","0.0-13.0-1.0","ly4nYM8zD0","656c9226c395c0344a63c586","6617fad957f7c6a12ea16e26","6622cf2936d1666a9ba2e961","
        <div id=""grid-container"">
        <!-- Grid items will be dynamically added here -->
    </div>    ","null","","","","","","","","","","","",""
"","5054","html-keyboard-response","213","343609","0.0-13.0-2.0","ly4nYM8zD0","656c9226c395c0344a63c586","6617fad957f7c6a12ea16e26","6622cf2936d1666a9ba2e961","mask grid"," ","","","","","Ontogenetic_Distractor_Nonthreat_target","2500","onmask","p","9","Ontogenetic","false","experimental"
"","null","html-keyboard-response","214","344320","0.0-13.0-0.1","ly4nYM8zD0","656c9226c395c0344a63c586","6617fad957f7c6a12ea16e26","6622cf2936d1666a9ba2e961","fixation cross","null","","","","","","","","","","","",""
"","2096","html-keyboard-response","215","346417","0.0-13.0-1.1","ly4nYM8zD0","656c9226c395c0344a63c586","6617fad957f7c6a12ea16e26","6622cf2936d1666a9ba2e961","image grid","q","","","","","Ontogenetic_Distractor_Nonthreat_target","2500","ongrid","p","9","Ontogenetic","false","experimental"
"","null","html-keyboard-response","216","346582","0.0-13.0-2.1","ly4nYM8zD0","656c9226c395c0344a63c586","6617fad957f7c6a12ea16e26","6622cf2936d1666a9ba2e961","
    <div id=""grid-container"">
        <!-- Grid items will be dynamically added here -->
    </div>    ","null","","","","","","","","","","","",""
"","null","html-keyboard-response","217","347289","0.0-13.0-0.2","ly4nYM8zD0","656c9226c395c0344a63c586","6617fad957f7c6a12ea16e26","6622cf2936d1666a9ba2e961","fixation cross","null","","","","","","","","","","","",""
"","1986","html-keyboard-response","218","349275","0.0-13.0-1.2","ly4nYM8zD0","656c9226c395c0344a63c586","6617fad957f7c6a12ea16e26","6622cf2936d1666a9ba2e961","image grid","q","","","","","Ontogenetic_Distractor_Nonthreat_target","2500","ongrid","p","1","Ontogenetic","false","experimental"
"","null","html-keyboard-response","219","349439","0.0-13.0-2.2","ly4nYM8zD0","656c9226c395c0344a63c586","6617fad957f7c6a12ea16e26","6622cf2936d1666a9ba2e961","
    <div id=""grid-container"">
        <!-- Grid items will be dynamically added here -->
    </div>    ","null","","","","","","","","","","","",""
"","null","html-keyboard-response","220","350146","0.0-13.0-0.3","ly4nYM8zD0","656c9226c395c0344a63c586","6617fad957f7c6a12ea16e26","6622cf2936d1666a9ba2e961","fixation cross","null","","","","","","","","","","","",""
"","1541","html-keyboard-response","221","351687","0.0-13.0-1.3","ly4nYM8zD0","656c9226c395c0344a63c586","6617fad957f7c6a12ea16e26","6622cf2936d1666a9ba2e961","image grid","q","","","","","Ontogenetic_Distractor_Nonthreat_target","2500","ongrid","p","9","Ontogenetic","false","experimental"
"","null","html-keyboard-response","222","351844","0.0-13.0-2.3","ly4nYM8zD0","656c9226c395c0344a63c586","6617fad957f7c6a12ea16e26","6622cf2936d1666a9ba2e961","
    <div id=""grid-container"">
        <!-- Grid items will be dynamically added here -->
    </div>    ","null","","","","","","","","","","","",""
"","null","html-keyboard-response","223","352550","0.0-13.0-0.4","ly4nYM8zD0","656c9226c395c0344a63c586","6617fad957f7c6a12ea16e26","6622cf2936d1666a9ba2e961","fixation cross","null","","","","","","","","","","","",""
"","null","html-keyboard-response","224","355062","0.0-13.0-1.4","ly4nYM8zD0","656c9226c395c0344a63c586","6617fad957f7c6a12ea16e26","6622cf2936d1666a9ba2e961","
        <div id=""grid-container"">
        <!-- Grid items will be dynamically added here -->
    </div>    ","null","","","","","","","","","","","",""
"","7444","html-keyboard-response","225","360006","0.0-13.0-2.4","ly4nYM8zD0","656c9226c395c0344a63c586","6617fad957f7c6a12ea16e26","6622cf2936d1666a9ba2e961","mask grid"," ","","","","","Ontogenetic_Distractor_Threat_target","2500","onmask","q","6","Ontogenetic","false","experimental"
"","null","html-keyboard-response","226","360713","0.0-13.0-0.5","ly4nYM8zD0","656c9226c395c0344a63c586","6617fad957f7c6a12ea16e26","6622cf2936d1666a9ba2e961","fixation cross","null","","","","","","","","","","","",""
"","null","html-keyboard-response","227","363226","0.0-13.0-1.5","ly4nYM8zD0","656c9226c395c0344a63c586","6617fad957f7c6a12ea16e26","6622cf2936d1666a9ba2e961","
        <div id=""grid-container"">
        <!-- Grid items will be dynamically added here -->
    </div>    ","null","","","","","","","","","","","",""
"","2816","html-keyboard-response","228","363543","0.0-13.0-2.5","ly4nYM8zD0","656c9226c395c0344a63c586","6617fad957f7c6a12ea16e26","6622cf2936d1666a9ba2e961","mask grid","q","","","","","Ontogenetic_Distractor_Threat_target","2500","onmask","q","3","Ontogenetic","true","experimental"
"","null","html-keyboard-response","229","364261","0.0-13.0-0.6","ly4nYM8zD0","656c9226c395c0344a63c586","6617fad957f7c6a12ea16e26","6622cf2936d1666a9ba2e961","fixation cross","null","","","","","","","","","","","",""
"","2249","html-keyboard-response","230","366510","0.0-13.0-1.6","ly4nYM8zD0","656c9226c395c0344a63c586","6617fad957f7c6a12ea16e26","6622cf2936d1666a9ba2e961","image grid","q","","","","","Ontogenetic_Distractor_Threat_target","2500","ongrid","q","3","Ontogenetic","true","experimental"
"","null","html-keyboard-response","231","366664","0.0-13.0-2.6","ly4nYM8zD0","656c9226c395c0344a63c586","6617fad957f7c6a12ea16e26","6622cf2936d1666a9ba2e961","
    <div id=""grid-container"">
        <!-- Grid items will be dynamically added here -->
    </div>    ","null","","","","","","","","","","","",""
"","null","html-keyboard-response","232","367370","0.0-13.0-0.7","ly4nYM8zD0","656c9226c395c0344a63c586","6617fad957f7c6a12ea16e26","6622cf2936d1666a9ba2e961","fixation cross","null","","","","","","","","","","","",""
"","null","html-keyboard-response","233","369882","0.0-13.0-1.7","ly4nYM8zD0","656c9226c395c0344a63c586","6617fad957f7c6a12ea16e26","6622cf2936d1666a9ba2e961","
        <div id=""grid-container"">
        <!-- Grid items will be dynamically added here -->
    </div>    ","null","","","","","","","","","","","",""
"","2806","html-keyboard-response","234","370190","0.0-13.0-2.7","ly4nYM8zD0","656c9226c395c0344a63c586","6617fad957f7c6a12ea16e26","6622cf2936d1666a9ba2e961","mask grid","q","","","","","Ontogenetic_Distractor_Threat_target","2500","onmask","q","2","Ontogenetic","true","experimental"
"","null","html-keyboard-response","235","370901","0.0-13.0-0.8","ly4nYM8zD0","656c9226c395c0344a63c586","6617fad957f7c6a12ea16e26","6622cf2936d1666a9ba2e961","fixation cross","null","","","","","","","","","","","",""
"","null","html-keyboard-response","236","373413","0.0-13.0-1.8","ly4nYM8zD0","656c9226c395c0344a63c586","6617fad957f7c6a12ea16e26","6622cf2936d1666a9ba2e961","
        <div id=""grid-container"">
        <!-- Grid items will be dynamically added here -->
    </div>    ","null","","","","","","","","","","","",""
"","2816","html-keyboard-response","237","373730","0.0-13.0-2.8","ly4nYM8zD0","656c9226c395c0344a63c586","6617fad957f7c6a12ea16e26","6622cf2936d1666a9ba2e961","mask grid","q","","","","","Ontogenetic_Distractor_Threat_target","2500","onmask","q","3","Ontogenetic","true","experimental"
"","null","html-keyboard-response","238","374448","0.0-13.0-0.9","ly4nYM8zD0","656c9226c395c0344a63c586","6617fad957f7c6a12ea16e26","6622cf2936d1666a9ba2e961","fixation cross","null","","","","","","","","","","","",""
"","2081","html-keyboard-response","239","376531","0.0-13.0-1.9","ly4nYM8zD0","656c9226c395c0344a63c586","6617fad957f7c6a12ea16e26","6622cf2936d1666a9ba2e961","image grid","q","","","","","Ontogenetic_Distractor_Nonthreat_target","2500","ongrid","p","3","Ontogenetic","false","experimental"
"","null","html-keyboard-response","240","376692","0.0-13.0-2.9","ly4nYM8zD0","656c9226c395c0344a63c586","6617fad957f7c6a12ea16e26","6622cf2936d1666a9ba2e961","
    <div id=""grid-container"">
        <!-- Grid items will be dynamically added here -->
    </div>    ","null","","","","","","","","","","","",""
"","null","html-keyboard-response","241","377397","0.0-13.0-0.10","ly4nYM8zD0","656c9226c395c0344a63c586","6617fad957f7c6a12ea16e26","6622cf2936d1666a9ba2e961","fixation cross","null","","","","","","","","","","","",""
"","1527","html-keyboard-response","242","378926","0.0-13.0-1.10","ly4nYM8zD0","656c9226c395c0344a63c586","6617fad957f7c6a12ea16e26","6622cf2936d1666a9ba2e961","image grid"," ","","","","","Ontogenetic_Distractor_notarget","2500","ongrid"," ","5","Ontogenetic","true","experimental"
"","null","html-keyboard-response","243","379084","0.0-13.0-2.10","ly4nYM8zD0","656c9226c395c0344a63c586","6617fad957f7c6a12ea16e26","6622cf2936d1666a9ba2e961","
    <div id=""grid-container"">
        <!-- Grid items will be dynamically added here -->
    </div>    ","null","","","","","","","","","","","",""
"","null","html-keyboard-response","244","379790","0.0-13.0-0.11","ly4nYM8zD0","656c9226c395c0344a63c586","6617fad957f7c6a12ea16e26","6622cf2936d1666a9ba2e961","fixation cross","null","","","","","","","","","","","",""
"","2119","html-keyboard-response","245","381912","0.0-13.0-1.11","ly4nYM8zD0","656c9226c395c0344a63c586","6617fad957f7c6a12ea16e26","6622cf2936d1666a9ba2e961","image grid","q","","","","","Ontogenetic_Distractor_Threat_target","2500","ongrid","q","2","Ontogenetic","true","experimental"
"","null","html-keyboard-response","246","382065","0.0-13.0-2.11","ly4nYM8zD0","656c9226c395c0344a63c586","6617fad957f7c6a12ea16e26","6622cf2936d1666a9ba2e961","
    <div id=""grid-container"">
        <!-- Grid items will be dynamically added here -->
    </div>    ","null","","","","","","","","","","","",""
"","null","html-keyboard-response","247","382771","0.0-13.0-0.12","ly4nYM8zD0","656c9226c395c0344a63c586","6617fad957f7c6a12ea16e26","6622cf2936d1666a9ba2e961","fixation cross","null","","","","","","","","","","","",""
"","1983","html-keyboard-response","248","384755","0.0-13.0-1.12","ly4nYM8zD0","656c9226c395c0344a63c586","6617fad957f7c6a12ea16e26","6622cf2936d1666a9ba2e961","image grid"," ","","","","","Ontogenetic_Distractor_notarget","2500","ongrid"," ","6","Ontogenetic","true","experimental"
"","null","html-keyboard-response","249","384908","0.0-13.0-2.12","ly4nYM8zD0","656c9226c395c0344a63c586","6617fad957f7c6a12ea16e26","6622cf2936d1666a9ba2e961","
    <div id=""grid-container"">
        <!-- Grid items will be dynamically added here -->
    </div>    ","null","","","","","","","","","","","",""
"","null","html-keyboard-response","250","385614","0.0-13.0-0.13","ly4nYM8zD0","656c9226c395c0344a63c586","6617fad957f7c6a12ea16e26","6622cf2936d1666a9ba2e961","fixation cross","null","","","","","","","","","","","",""
"","1112","html-keyboard-response","251","386727","0.0-13.0-1.13","ly4nYM8zD0","656c9226c395c0344a63c586","6617fad957f7c6a12ea16e26","6622cf2936d1666a9ba2e961","image grid","q","","","","","Ontogenetic_Distractor_Nonthreat_target","2500","ongrid","p","3","Ontogenetic","false","experimental"
"","null","html-keyboard-response","252","386884","0.0-13.0-2.13","ly4nYM8zD0","656c9226c395c0344a63c586","6617fad957f7c6a12ea16e26","6622cf2936d1666a9ba2e961","
    <div id=""grid-container"">
        <!-- Grid items will be dynamically added here -->
    </div>    ","null","","","","","","","","","","","",""
"","null","html-keyboard-response","253","387590","0.0-13.0-0.14","ly4nYM8zD0","656c9226c395c0344a63c586","6617fad957f7c6a12ea16e26","6622cf2936d1666a9ba2e961","fixation cross","null","","","","","","","","","","","",""
"","1117","html-keyboard-response","254","388708","0.0-13.0-1.14","ly4nYM8zD0","656c9226c395c0344a63c586","6617fad957f7c6a12ea16e26","6622cf2936d1666a9ba2e961","image grid","q","","","","","Ontogenetic_Distractor_Nonthreat_target","2500","ongrid","p","3","Ontogenetic","false","experimental"
"","null","html-keyboard-response","255","388861","0.0-13.0-2.14","ly4nYM8zD0","656c9226c395c0344a63c586","6617fad957f7c6a12ea16e26","6622cf2936d1666a9ba2e961","
    <div id=""grid-container"">
        <!-- Grid items will be dynamically added here -->
    </div>    ","null","","","","","","","","","","","",""
"","null","html-keyboard-response","256","389568","0.0-13.0-0.15","ly4nYM8zD0","656c9226c395c0344a63c586","6617fad957f7c6a12ea16e26","6622cf2936d1666a9ba2e961","fixation cross","null","","","","","","","","","","","",""
"","1762","html-keyboard-response","257","391329","0.0-13.0-1.15","ly4nYM8zD0","656c9226c395c0344a63c586","6617fad957f7c6a12ea16e26","6622cf2936d1666a9ba2e961","image grid","q","","","","","Ontogenetic_Distractor_Threat_target","2500","ongrid","q","5","Ontogenetic","true","experimental"
"","null","html-keyboard-response","258","391482","0.0-13.0-2.15","ly4nYM8zD0","656c9226c395c0344a63c586","6617fad957f7c6a12ea16e26","6622cf2936d1666a9ba2e961","
    <div id=""grid-container"">
        <!-- Grid items will be dynamically added here -->
    </div>    ","null","","","","","","","","","","","",""
"","null","html-keyboard-response","259","392187","0.0-13.0-0.16","ly4nYM8zD0","656c9226c395c0344a63c586","6617fad957f7c6a12ea16e26","6622cf2936d1666a9ba2e961","fixation cross","null","","","","","","","","","","","",""
"","2152","html-keyboard-response","260","394340","0.0-13.0-1.16","ly4nYM8zD0","656c9226c395c0344a63c586","6617fad957f7c6a12ea16e26","6622cf2936d1666a9ba2e961","image grid","q","","","","","Ontogenetic_Distractor_Threat_target","2500","ongrid","q","3","Ontogenetic","true","experimental"
"","null","html-keyboard-response","261","394495","0.0-13.0-2.16","ly4nYM8zD0","656c9226c395c0344a63c586","6617fad957f7c6a12ea16e26","6622cf2936d1666a9ba2e961","
    <div id=""grid-container"">
        <!-- Grid items will be dynamically added here -->
    </div>    ","null","","","","","","","","","","","",""
"","null","html-keyboard-response","262","395202","0.0-13.0-0.17","ly4nYM8zD0","656c9226c395c0344a63c586","6617fad957f7c6a12ea16e26","6622cf2936d1666a9ba2e961","fixation cross","null","","","","","","","","","","","",""
"","1638","html-keyboard-response","263","396839","0.0-13.0-1.17","ly4nYM8zD0","656c9226c395c0344a63c586","6617fad957f7c6a12ea16e26","6622cf2936d1666a9ba2e961","image grid","q","","","","","Ontogenetic_Distractor_Threat_target","2500","ongrid","q","3","Ontogenetic","true","experimental"
"","null","html-keyboard-response","264","397007","0.0-13.0-2.17","ly4nYM8zD0","656c9226c395c0344a63c586","6617fad957f7c6a12ea16e26","6622cf2936d1666a9ba2e961","
    <div id=""grid-container"">
        <!-- Grid items will be dynamically added here -->
    </div>    ","null","","","","","","","","","","","",""
"","null","html-keyboard-response","265","397728","0.0-13.0-0.18","ly4nYM8zD0","656c9226c395c0344a63c586","6617fad957f7c6a12ea16e26","6622cf2936d1666a9ba2e961","fixation cross","null","","","","","","","","","","","",""
"","1496","html-keyboard-response","266","399225","0.0-13.0-1.18","ly4nYM8zD0","656c9226c395c0344a63c586","6617fad957f7c6a12ea16e26","6622cf2936d1666a9ba2e961","image grid"," ","","","","","Ontogenetic_Distractor_notarget","2500","ongrid"," ","8","Ontogenetic","true","experimental"
"","null","html-keyboard-response","267","399393","0.0-13.0-2.18","ly4nYM8zD0","656c9226c395c0344a63c586","6617fad957f7c6a12ea16e26","6622cf2936d1666a9ba2e961","
    <div id=""grid-container"">
        <!-- Grid items will be dynamically added here -->
    </div>    ","null","","","","","","","","","","","",""
"","null","html-keyboard-response","268","400100","0.0-13.0-0.19","ly4nYM8zD0","656c9226c395c0344a63c586","6617fad957f7c6a12ea16e26","6622cf2936d1666a9ba2e961","fixation cross","null","","","","","","","","","","","",""
"","1744","html-keyboard-response","269","401845","0.0-13.0-1.19","ly4nYM8zD0","656c9226c395c0344a63c586","6617fad957f7c6a12ea16e26","6622cf2936d1666a9ba2e961","image grid"," ","","","","","Ontogenetic_Distractor_notarget","2500","ongrid"," ","3","Ontogenetic","true","experimental"
"","null","html-keyboard-response","270","402000","0.0-13.0-2.19","ly4nYM8zD0","656c9226c395c0344a63c586","6617fad957f7c6a12ea16e26","6622cf2936d1666a9ba2e961","
    <div id=""grid-container"">
        <!-- Grid items will be dynamically added here -->
    </div>    ","null","","","","","","","","","","","",""
"","null","html-keyboard-response","271","402706","0.0-13.0-0.20","ly4nYM8zD0","656c9226c395c0344a63c586","6617fad957f7c6a12ea16e26","6622cf2936d1666a9ba2e961","fixation cross","null","","","","","","","","","","","",""
"","1841","html-keyboard-response","272","404547","0.0-13.0-1.20","ly4nYM8zD0","656c9226c395c0344a63c586","6617fad957f7c6a12ea16e26","6622cf2936d1666a9ba2e961","image grid","q","","","","","Ontogenetic_Distractor_Threat_target","2500","ongrid","q","2","Ontogenetic","true","experimental"
"","null","html-keyboard-response","273","404700","0.0-13.0-2.20","ly4nYM8zD0","656c9226c395c0344a63c586","6617fad957f7c6a12ea16e26","6622cf2936d1666a9ba2e961","
    <div id=""grid-container"">
        <!-- Grid items will be dynamically added here -->
    </div>    ","null","","","","","","","","","","","",""
"","null","html-keyboard-response","274","405407","0.0-13.0-0.21","ly4nYM8zD0","656c9226c395c0344a63c586","6617fad957f7c6a12ea16e26","6622cf2936d1666a9ba2e961","fixation cross","null","","","","","","","","","","","",""
"","null","html-keyboard-response","275","407918","0.0-13.0-1.21","ly4nYM8zD0","656c9226c395c0344a63c586","6617fad957f7c6a12ea16e26","6622cf2936d1666a9ba2e961","
        <div id=""grid-container"">
        <!-- Grid items will be dynamically added here -->
    </div>    ","null","","","","","","","","","","","",""
"","3222","html-keyboard-response","276","408642","0.0-13.0-2.21","ly4nYM8zD0","656c9226c395c0344a63c586","6617fad957f7c6a12ea16e26","6622cf2936d1666a9ba2e961","mask grid"," ","","","","","Ontogenetic_Distractor_Nonthreat_target","2500","onmask","p","3","Ontogenetic","false","experimental"
"","null","html-keyboard-response","277","409346","0.0-13.0-0.22","ly4nYM8zD0","656c9226c395c0344a63c586","6617fad957f7c6a12ea16e26","6622cf2936d1666a9ba2e961","fixation cross","null","","","","","","","","","","","",""
"","1201","html-keyboard-response","278","410547","0.0-13.0-1.22","ly4nYM8zD0","656c9226c395c0344a63c586","6617fad957f7c6a12ea16e26","6622cf2936d1666a9ba2e961","image grid","q","","","","","Ontogenetic_Distractor_Nonthreat_target","2500","ongrid","p","4","Ontogenetic","false","experimental"
"","null","html-keyboard-response","279","410713","0.0-13.0-2.22","ly4nYM8zD0","656c9226c395c0344a63c586","6617fad957f7c6a12ea16e26","6622cf2936d1666a9ba2e961","
    <div id=""grid-container"">
        <!-- Grid items will be dynamically added here -->
    </div>    ","null","","","","","","","","","","","",""
"","null","html-keyboard-response","280","411484","0.0-13.0-0.23","ly4nYM8zD0","656c9226c395c0344a63c586","6617fad957f7c6a12ea16e26","6622cf2936d1666a9ba2e961","fixation cross","null","","","","","","","","","","","",""
"","null","html-keyboard-response","281","413991","0.0-13.0-1.23","ly4nYM8zD0","656c9226c395c0344a63c586","6617fad957f7c6a12ea16e26","6622cf2936d1666a9ba2e961","
        <div id=""grid-container"">
        <!-- Grid items will be dynamically added here -->
    </div>    ","null","","","","","","","","","","","",""
"","2500","html-keyboard-response","282","418996","0.0-13.0-2.23","ly4nYM8zD0","656c9226c395c0344a63c586","6617fad957f7c6a12ea16e26","6622cf2936d1666a9ba2e961","mask grid","null","","","","","Ontogenetic_Distractor_Threat_target","2500","onmask","q","8","Ontogenetic","false","experimental"
"","null","html-keyboard-response","283","419703","0.0-13.0-0.24","ly4nYM8zD0","656c9226c395c0344a63c586","6617fad957f7c6a12ea16e26","6622cf2936d1666a9ba2e961","fixation cross","null","","","","","","","","","","","",""
"","2056","html-keyboard-response","284","421761","0.0-13.0-1.24","ly4nYM8zD0","656c9226c395c0344a63c586","6617fad957f7c6a12ea16e26","6622cf2936d1666a9ba2e961","image grid","q","","","","","Ontogenetic_Distractor_Threat_target","2500","ongrid","q","9","Ontogenetic","true","experimental"
"","null","html-keyboard-response","285","421914","0.0-13.0-2.24","ly4nYM8zD0","656c9226c395c0344a63c586","6617fad957f7c6a12ea16e26","6622cf2936d1666a9ba2e961","
    <div id=""grid-container"">
        <!-- Grid items will be dynamically added here -->
    </div>    ","null","","","","","","","","","","","",""
"","null","html-keyboard-response","286","422620","0.0-13.0-0.25","ly4nYM8zD0","656c9226c395c0344a63c586","6617fad957f7c6a12ea16e26","6622cf2936d1666a9ba2e961","fixation cross","null","","","","","","","","","","","",""
"","1691","html-keyboard-response","287","424313","0.0-13.0-1.25","ly4nYM8zD0","656c9226c395c0344a63c586","6617fad957f7c6a12ea16e26","6622cf2936d1666a9ba2e961","image grid","q","","","","","Ontogenetic_Distractor_Nonthreat_target","2500","ongrid","p","2","Ontogenetic","false","experimental"
"","null","html-keyboard-response","288","424469","0.0-13.0-2.25","ly4nYM8zD0","656c9226c395c0344a63c586","6617fad957f7c6a12ea16e26","6622cf2936d1666a9ba2e961","
    <div id=""grid-container"">
        <!-- Grid items will be dynamically added here -->
    </div>    ","null","","","","","","","","","","","",""
"","null","html-keyboard-response","289","425175","0.0-13.0-0.26","ly4nYM8zD0","656c9226c395c0344a63c586","6617fad957f7c6a12ea16e26","6622cf2936d1666a9ba2e961","fixation cross","null","","","","","","","","","","","",""
"","2097","html-keyboard-response","290","427272","0.0-13.0-1.26","ly4nYM8zD0","656c9226c395c0344a63c586","6617fad957f7c6a12ea16e26","6622cf2936d1666a9ba2e961","image grid","q","","","","","Ontogenetic_Distractor_Threat_target","2500","ongrid","q","7","Ontogenetic","true","experimental"
"","null","html-keyboard-response","291","427436","0.0-13.0-2.26","ly4nYM8zD0","656c9226c395c0344a63c586","6617fad957f7c6a12ea16e26","6622cf2936d1666a9ba2e961","
    <div id=""grid-container"">
        <!-- Grid items will be dynamically added here -->
    </div>    ","null","","","","","","","","","","","",""
"","null","html-keyboard-response","292","428142","0.0-13.0-0.27","ly4nYM8zD0","656c9226c395c0344a63c586","6617fad957f7c6a12ea16e26","6622cf2936d1666a9ba2e961","fixation cross","null","","","","","","","","","","","",""
"","1750","html-keyboard-response","293","429892","0.0-13.0-1.27","ly4nYM8zD0","656c9226c395c0344a63c586","6617fad957f7c6a12ea16e26","6622cf2936d1666a9ba2e961","image grid","q","","","","","Ontogenetic_Distractor_Threat_target","2500","ongrid","q","1","Ontogenetic","true","experimental"
"","null","html-keyboard-response","294","430055","0.0-13.0-2.27","ly4nYM8zD0","656c9226c395c0344a63c586","6617fad957f7c6a12ea16e26","6622cf2936d1666a9ba2e961","
    <div id=""grid-container"">
        <!-- Grid items will be dynamically added here -->
    </div>    ","null","","","","","","","","","","","",""
"","null","html-keyboard-response","295","430761","0.0-13.0-0.28","ly4nYM8zD0","656c9226c395c0344a63c586","6617fad957f7c6a12ea16e26","6622cf2936d1666a9ba2e961","fixation cross","null","","","","","","","","","","","",""
"","1664","html-keyboard-response","296","432426","0.0-13.0-1.28","ly4nYM8zD0","656c9226c395c0344a63c586","6617fad957f7c6a12ea16e26","6622cf2936d1666a9ba2e961","image grid","q","","","","","Ontogenetic_Distractor_Threat_target","2500","ongrid","q","3","Ontogenetic","true","experimental"
"","null","html-keyboard-response","297","432584","0.0-13.0-2.28","ly4nYM8zD0","656c9226c395c0344a63c586","6617fad957f7c6a12ea16e26","6622cf2936d1666a9ba2e961","
    <div id=""grid-container"">
        <!-- Grid items will be dynamically added here -->
    </div>    ","null","","","","","","","","","","","",""
"","null","html-keyboard-response","298","433288","0.0-13.0-0.29","ly4nYM8zD0","656c9226c395c0344a63c586","6617fad957f7c6a12ea16e26","6622cf2936d1666a9ba2e961","fixation cross","null","","","","","","","","","","","",""
"","1976","html-keyboard-response","299","435266","0.0-13.0-1.29","ly4nYM8zD0","656c9226c395c0344a63c586","6617fad957f7c6a12ea16e26","6622cf2936d1666a9ba2e961","image grid","q","","","","","Ontogenetic_Distractor_Threat_target","2500","ongrid","q","3","Ontogenetic","true","experimental"
"","null","html-keyboard-response","300","435424","0.0-13.0-2.29","ly4nYM8zD0","656c9226c395c0344a63c586","6617fad957f7c6a12ea16e26","6622cf2936d1666a9ba2e961","
    <div id=""grid-container"">
        <!-- Grid items will be dynamically added here -->
    </div>    ","null","","","","","","","","","","","",""
"","null","html-keyboard-response","301","436131","0.0-13.0-0.30","ly4nYM8zD0","656c9226c395c0344a63c586","6617fad957f7c6a12ea16e26","6622cf2936d1666a9ba2e961","fixation cross","null","","","","","","","","","","","",""
"","1075","html-keyboard-response","302","437206","0.0-13.0-1.30","ly4nYM8zD0","656c9226c395c0344a63c586","6617fad957f7c6a12ea16e26","6622cf2936d1666a9ba2e961","image grid","q","","","","","Ontogenetic_Distractor_Nonthreat_target","2500","ongrid","p","6","Ontogenetic","false","experimental"
"","null","html-keyboard-response","303","437372","0.0-13.0-2.30","ly4nYM8zD0","656c9226c395c0344a63c586","6617fad957f7c6a12ea16e26","6622cf2936d1666a9ba2e961","
    <div id=""grid-container"">
        <!-- Grid items will be dynamically added here -->
    </div>    ","null","","","","","","","","","","","",""
"","null","html-keyboard-response","304","438079","0.0-13.0-0.31","ly4nYM8zD0","656c9226c395c0344a63c586","6617fad957f7c6a12ea16e26","6622cf2936d1666a9ba2e961","fixation cross","null","","","","","","","","","","","",""
"","1852","html-keyboard-response","305","439931","0.0-13.0-1.31","ly4nYM8zD0","656c9226c395c0344a63c586","6617fad957f7c6a12ea16e26","6622cf2936d1666a9ba2e961","image grid","q","","","","","Ontogenetic_Distractor_Nonthreat_target","2500","ongrid","p","7","Ontogenetic","false","experimental"
"","null","html-keyboard-response","306","440088","0.0-13.0-2.31","ly4nYM8zD0","656c9226c395c0344a63c586","6617fad957f7c6a12ea16e26","6622cf2936d1666a9ba2e961","
    <div id=""grid-container"">
        <!-- Grid items will be dynamically added here -->
    </div>    ","null","","","","","","","","","","","",""
"","null","html-keyboard-response","307","440793","0.0-13.0-0.32","ly4nYM8zD0","656c9226c395c0344a63c586","6617fad957f7c6a12ea16e26","6622cf2936d1666a9ba2e961","fixation cross","null","","","","","","","","","","","",""
"","1813","html-keyboard-response","308","442606","0.0-13.0-1.32","ly4nYM8zD0","656c9226c395c0344a63c586","6617fad957f7c6a12ea16e26","6622cf2936d1666a9ba2e961","image grid","q","","","","","Ontogenetic_Distractor_Threat_target","2500","ongrid","q","3","Ontogenetic","true","experimental"
"","null","html-keyboard-response","309","442772","0.0-13.0-2.32","ly4nYM8zD0","656c9226c395c0344a63c586","6617fad957f7c6a12ea16e26","6622cf2936d1666a9ba2e961","
    <div id=""grid-container"">
        <!-- Grid items will be dynamically added here -->
    </div>    ","null","","","","","","","","","","","",""
"","null","html-keyboard-response","310","443478","0.0-13.0-0.33","ly4nYM8zD0","656c9226c395c0344a63c586","6617fad957f7c6a12ea16e26","6622cf2936d1666a9ba2e961","fixation cross","null","","","","","","","","","","","",""
"","1224","html-keyboard-response","311","444701","0.0-13.0-1.33","ly4nYM8zD0","656c9226c395c0344a63c586","6617fad957f7c6a12ea16e26","6622cf2936d1666a9ba2e961","image grid","q","","","","","Ontogenetic_Distractor_Nonthreat_target","2500","ongrid","p","4","Ontogenetic","false","experimental"
"","null","html-keyboard-response","312","444859","0.0-13.0-2.33","ly4nYM8zD0","656c9226c395c0344a63c586","6617fad957f7c6a12ea16e26","6622cf2936d1666a9ba2e961","
    <div id=""grid-container"">
        <!-- Grid items will be dynamically added here -->
    </div>    ","null","","","","","","","","","","","",""
"","null","html-keyboard-response","313","445563","0.0-13.0-0.34","ly4nYM8zD0","656c9226c395c0344a63c586","6617fad957f7c6a12ea16e26","6622cf2936d1666a9ba2e961","fixation cross","null","","","","","","","","","","","",""
"","1571","html-keyboard-response","314","447135","0.0-13.0-1.34","ly4nYM8zD0","656c9226c395c0344a63c586","6617fad957f7c6a12ea16e26","6622cf2936d1666a9ba2e961","image grid","q","","","","","Ontogenetic_Distractor_Threat_target","2500","ongrid","q","9","Ontogenetic","true","experimental"
"","75","html-keyboard-response","315","447291","0.0-13.0-2.34","ly4nYM8zD0","656c9226c395c0344a63c586","6617fad957f7c6a12ea16e26","6622cf2936d1666a9ba2e961","
    <div id=""grid-container"">
        <!-- Grid items will be dynamically added here -->
    </div>    "," ","","","","","","","","","","","",""
"","null","html-keyboard-response","316","447998","0.0-13.0-0.35","ly4nYM8zD0","656c9226c395c0344a63c586","6617fad957f7c6a12ea16e26","6622cf2936d1666a9ba2e961","fixation cross","null","","","","","","","","","","","",""
"","1093","html-keyboard-response","317","449092","0.0-13.0-1.35","ly4nYM8zD0","656c9226c395c0344a63c586","6617fad957f7c6a12ea16e26","6622cf2936d1666a9ba2e961","image grid","q","","","","","Ontogenetic_Distractor_Nonthreat_target","2500","ongrid","p","1","Ontogenetic","false","experimental"
"","null","html-keyboard-response","318","449254","0.0-13.0-2.35","ly4nYM8zD0","656c9226c395c0344a63c586","6617fad957f7c6a12ea16e26","6622cf2936d1666a9ba2e961","
    <div id=""grid-container"">
        <!-- Grid items will be dynamically added here -->
    </div>    ","null","","","","","","","","","","","",""
"","null","html-keyboard-response","319","450007","0.0-13.0-0.36","ly4nYM8zD0","656c9226c395c0344a63c586","6617fad957f7c6a12ea16e26","6622cf2936d1666a9ba2e961","fixation cross","null","","","","","","","","","","","",""
"","862","html-keyboard-response","320","450869","0.0-13.0-1.36","ly4nYM8zD0","656c9226c395c0344a63c586","6617fad957f7c6a12ea16e26","6622cf2936d1666a9ba2e961","image grid","q","","","","","Ontogenetic_Distractor_Nonthreat_target","2500","ongrid","p","1","Ontogenetic","false","experimental"
"","null","html-keyboard-response","321","451026","0.0-13.0-2.36","ly4nYM8zD0","656c9226c395c0344a63c586","6617fad957f7c6a12ea16e26","6622cf2936d1666a9ba2e961","
    <div id=""grid-container"">
        <!-- Grid items will be dynamically added here -->
    </div>    ","null","","","","","","","","","","","",""
"","null","html-keyboard-response","322","451731","0.0-13.0-0.37","ly4nYM8zD0","656c9226c395c0344a63c586","6617fad957f7c6a12ea16e26","6622cf2936d1666a9ba2e961","fixation cross","null","","","","","","","","","","","",""
"","786","html-keyboard-response","323","452518","0.0-13.0-1.37","ly4nYM8zD0","656c9226c395c0344a63c586","6617fad957f7c6a12ea16e26","6622cf2936d1666a9ba2e961","image grid","q","","","","","Ontogenetic_Distractor_Nonthreat_target","2500","ongrid","p","1","Ontogenetic","false","experimental"
"","null","html-keyboard-response","324","452673","0.0-13.0-2.37","ly4nYM8zD0","656c9226c395c0344a63c586","6617fad957f7c6a12ea16e26","6622cf2936d1666a9ba2e961","
    <div id=""grid-container"">
        <!-- Grid items will be dynamically added here -->
    </div>    ","null","","","","","","","","","","","",""
"","null","html-keyboard-response","325","453381","0.0-13.0-0.38","ly4nYM8zD0","656c9226c395c0344a63c586","6617fad957f7c6a12ea16e26","6622cf2936d1666a9ba2e961","fixation cross","null","","","","","","","","","","","",""
"","1309","html-keyboard-response","326","454690","0.0-13.0-1.38","ly4nYM8zD0","656c9226c395c0344a63c586","6617fad957f7c6a12ea16e26","6622cf2936d1666a9ba2e961","image grid","q","","","","","Ontogenetic_Distractor_Nonthreat_target","2500","ongrid","p","6","Ontogenetic","false","experimental"
"","null","html-keyboard-response","327","454857","0.0-13.0-2.38","ly4nYM8zD0","656c9226c395c0344a63c586","6617fad957f7c6a12ea16e26","6622cf2936d1666a9ba2e961","
    <div id=""grid-container"">
        <!-- Grid items will be dynamically added here -->
    </div>    ","null","","","","","","","","","","","",""
"","null","html-keyboard-response","328","455563","0.0-13.0-0.39","ly4nYM8zD0","656c9226c395c0344a63c586","6617fad957f7c6a12ea16e26","6622cf2936d1666a9ba2e961","fixation cross","null","","","","","","","","","","","",""
"","1502","html-keyboard-response","329","457064","0.0-13.0-1.39","ly4nYM8zD0","656c9226c395c0344a63c586","6617fad957f7c6a12ea16e26","6622cf2936d1666a9ba2e961","image grid","q","","","","","Ontogenetic_Distractor_Nonthreat_target","2500","ongrid","p","2","Ontogenetic","false","experimental"
"","null","html-keyboard-response","330","457226","0.0-13.0-2.39","ly4nYM8zD0","656c9226c395c0344a63c586","6617fad957f7c6a12ea16e26","6622cf2936d1666a9ba2e961","
    <div id=""grid-container"">
        <!-- Grid items will be dynamically added here -->
    </div>    ","null","","","","","","","","","","","",""
"","1786","html-keyboard-response","331","459215","0.0-14.0","ly4nYM8zD0","656c9226c395c0344a63c586","6617fad957f7c6a12ea16e26","6622cf2936d1666a9ba2e961","break screen"," ","","","","","","","","","","","",""
"","null","html-keyboard-response","332","461729","0.0-15.0-0.0","ly4nYM8zD0","656c9226c395c0344a63c586","6617fad957f7c6a12ea16e26","6622cf2936d1666a9ba2e961","fixation cross","null","","","","","","","","","","","",""
"","null","html-keyboard-response","333","462531","0.0-15.0-1.0","ly4nYM8zD0","656c9226c395c0344a63c586","6617fad957f7c6a12ea16e26","6622cf2936d1666a9ba2e961","
        <div id=""grid-container"">
        <!-- Grid items will be dynamically added here -->
    </div>    ","null","","","","","","","","","","","",""
"","1609","html-keyboard-response","334","463342","0.0-15.0-2.0","ly4nYM8zD0","656c9226c395c0344a63c586","6617fad957f7c6a12ea16e26","6622cf2936d1666a9ba2e961","mask grid","q","","","","","Phylogenetic_Distractor_Nonthreat_target","800","onmask","p","9","Phylogenetic","false","experimental"
"","null","html-keyboard-response","335","464099","0.0-15.0-0.1","ly4nYM8zD0","656c9226c395c0344a63c586","6617fad957f7c6a12ea16e26","6622cf2936d1666a9ba2e961","fixation cross","null","","","","","","","","","","","",""
"","null","html-keyboard-response","336","464900","0.0-15.0-1.1","ly4nYM8zD0","656c9226c395c0344a63c586","6617fad957f7c6a12ea16e26","6622cf2936d1666a9ba2e961","
        <div id=""grid-container"">
        <!-- Grid items will be dynamically added here -->
    </div>    ","null","","","","","","","","","","","",""
"","1088","html-keyboard-response","337","465187","0.0-15.0-2.1","ly4nYM8zD0","656c9226c395c0344a63c586","6617fad957f7c6a12ea16e26","6622cf2936d1666a9ba2e961","mask grid","q","","","","","Phylogenetic_Distractor_Nonthreat_target","800","onmask","p","3","Phylogenetic","false","experimental"
"","null","html-keyboard-response","338","465905","0.0-15.0-0.2","ly4nYM8zD0","656c9226c395c0344a63c586","6617fad957f7c6a12ea16e26","6622cf2936d1666a9ba2e961","fixation cross","null","","","","","","","","","","","",""
"","null","html-keyboard-response","339","466720","0.0-15.0-1.2","ly4nYM8zD0","656c9226c395c0344a63c586","6617fad957f7c6a12ea16e26","6622cf2936d1666a9ba2e961","
        <div id=""grid-container"">
        <!-- Grid items will be dynamically added here -->
    </div>    ","null","","","","","","","","","","","",""
"","1291","html-keyboard-response","340","467211","0.0-15.0-2.2","ly4nYM8zD0","656c9226c395c0344a63c586","6617fad957f7c6a12ea16e26","6622cf2936d1666a9ba2e961","mask grid"," ","","","","","Phylogenetic_Distractor_Threat_target","800","onmask","q","6","Phylogenetic","false","experimental"
"","null","html-keyboard-response","341","467945","0.0-15.0-0.3","ly4nYM8zD0","656c9226c395c0344a63c586","6617fad957f7c6a12ea16e26","6622cf2936d1666a9ba2e961","fixation cross","null","","","","","","","","","","","",""
"","null","html-keyboard-response","342","468759","0.0-15.0-1.3","ly4nYM8zD0","656c9226c395c0344a63c586","6617fad957f7c6a12ea16e26","6622cf2936d1666a9ba2e961","
        <div id=""grid-container"">
        <!-- Grid items will be dynamically added here -->
    </div>    ","null","","","","","","","","","","","",""
"","1655","html-keyboard-response","343","469615","0.0-15.0-2.3","ly4nYM8zD0","656c9226c395c0344a63c586","6617fad957f7c6a12ea16e26","6622cf2936d1666a9ba2e961","mask grid"," ","","","","","Phylogenetic_Distractor_Threat_target","800","onmask","q","1","Phylogenetic","false","experimental"
"","null","html-keyboard-response","344","470330","0.0-15.0-0.4","ly4nYM8zD0","656c9226c395c0344a63c586","6617fad957f7c6a12ea16e26","6622cf2936d1666a9ba2e961","fixation cross","null","","","","","","","","","","","",""
"","null","html-keyboard-response","345","471131","0.0-15.0-1.4","ly4nYM8zD0","656c9226c395c0344a63c586","6617fad957f7c6a12ea16e26","6622cf2936d1666a9ba2e961","
        <div id=""grid-container"">
        <!-- Grid items will be dynamically added here -->
    </div>    ","null","","","","","","","","","","","",""
"","1228","html-keyboard-response","346","471560","0.0-15.0-2.4","ly4nYM8zD0","656c9226c395c0344a63c586","6617fad957f7c6a12ea16e26","6622cf2936d1666a9ba2e961","mask grid","q","","","","","Phylogenetic_Distractor_Threat_target","800","onmask","q","2","Phylogenetic","true","experimental"
"","null","html-keyboard-response","347","472277","0.0-15.0-0.5","ly4nYM8zD0","656c9226c395c0344a63c586","6617fad957f7c6a12ea16e26","6622cf2936d1666a9ba2e961","fixation cross","null","","","","","","","","","","","",""
"","null","html-keyboard-response","348","473093","0.0-15.0-1.5","ly4nYM8zD0","656c9226c395c0344a63c586","6617fad957f7c6a12ea16e26","6622cf2936d1666a9ba2e961","
        <div id=""grid-container"">
        <!-- Grid items will be dynamically added here -->
    </div>    ","null","","","","","","","","","","","",""
"","1304","html-keyboard-response","349","473598","0.0-15.0-2.5","ly4nYM8zD0","656c9226c395c0344a63c586","6617fad957f7c6a12ea16e26","6622cf2936d1666a9ba2e961","mask grid","q","","","","","Phylogenetic_Distractor_Threat_target","800","onmask","q","5","Phylogenetic","true","experimental"
"","null","html-keyboard-response","350","474316","0.0-15.0-0.6","ly4nYM8zD0","656c9226c395c0344a63c586","6617fad957f7c6a12ea16e26","6622cf2936d1666a9ba2e961","fixation cross","null","","","","","","","","","","","",""
"","null","html-keyboard-response","351","475132","0.0-15.0-1.6","ly4nYM8zD0","656c9226c395c0344a63c586","6617fad957f7c6a12ea16e26","6622cf2936d1666a9ba2e961","
        <div id=""grid-container"">
        <!-- Grid items will be dynamically added here -->
    </div>    ","null","","","","","","","","","","","",""
"","959","html-keyboard-response","352","475293","0.0-15.0-2.6","ly4nYM8zD0","656c9226c395c0344a63c586","6617fad957f7c6a12ea16e26","6622cf2936d1666a9ba2e961","mask grid"," ","","","","","Phylogenetic_Distractor_Nonthreat_target","800","onmask","p","6","Phylogenetic","false","experimental"
"","null","html-keyboard-response","353","476012","0.0-15.0-0.7","ly4nYM8zD0","656c9226c395c0344a63c586","6617fad957f7c6a12ea16e26","6622cf2936d1666a9ba2e961","fixation cross","null","","","","","","","","","","","",""
"","null","html-keyboard-response","354","476829","0.0-15.0-1.7","ly4nYM8zD0","656c9226c395c0344a63c586","6617fad957f7c6a12ea16e26","6622cf2936d1666a9ba2e961","
        <div id=""grid-container"">
        <!-- Grid items will be dynamically added here -->
    </div>    ","null","","","","","","","","","","","",""
"","941","html-keyboard-response","355","476971","0.0-15.0-2.7","ly4nYM8zD0","656c9226c395c0344a63c586","6617fad957f7c6a12ea16e26","6622cf2936d1666a9ba2e961","mask grid","q","","","","","Phylogenetic_Distractor_Nonthreat_target","800","onmask","p","6","Phylogenetic","false","experimental"
"","null","html-keyboard-response","356","477676","0.0-15.0-0.8","ly4nYM8zD0","656c9226c395c0344a63c586","6617fad957f7c6a12ea16e26","6622cf2936d1666a9ba2e961","fixation cross","null","","","","","","","","","","","",""
"","null","html-keyboard-response","357","478476","0.0-15.0-1.8","ly4nYM8zD0","656c9226c395c0344a63c586","6617fad957f7c6a12ea16e26","6622cf2936d1666a9ba2e961","
        <div id=""grid-container"">
        <!-- Grid items will be dynamically added here -->
    </div>    ","null","","","","","","","","","","","",""
"","1509","html-keyboard-response","358","479187","0.0-15.0-2.8","ly4nYM8zD0","656c9226c395c0344a63c586","6617fad957f7c6a12ea16e26","6622cf2936d1666a9ba2e961","mask grid","q","","","","","Phylogenetic_Distractor_Threat_target","800","onmask","q","7","Phylogenetic","true","experimental"
"","null","html-keyboard-response","359","479905","0.0-15.0-0.9","ly4nYM8zD0","656c9226c395c0344a63c586","6617fad957f7c6a12ea16e26","6622cf2936d1666a9ba2e961","fixation cross","null","","","","","","","","","","","",""
"","null","html-keyboard-response","360","480706","0.0-15.0-1.9","ly4nYM8zD0","656c9226c395c0344a63c586","6617fad957f7c6a12ea16e26","6622cf2936d1666a9ba2e961","
        <div id=""grid-container"">
        <!-- Grid items will be dynamically added here -->
    </div>    ","null","","","","","","","","","","","",""
"","1168","html-keyboard-response","361","481075","0.0-15.0-2.9","ly4nYM8zD0","656c9226c395c0344a63c586","6617fad957f7c6a12ea16e26","6622cf2936d1666a9ba2e961","mask grid"," ","","","","","Phylogenetic_Distractor_Threat_target","800","onmask","q","2","Phylogenetic","false","experimental"
"","null","html-keyboard-response","362","481788","0.0-15.0-0.10","ly4nYM8zD0","656c9226c395c0344a63c586","6617fad957f7c6a12ea16e26","6622cf2936d1666a9ba2e961","fixation cross","null","","","","","","","","","","","",""
"","null","html-keyboard-response","363","482589","0.0-15.0-1.10","ly4nYM8zD0","656c9226c395c0344a63c586","6617fad957f7c6a12ea16e26","6622cf2936d1666a9ba2e961","
        <div id=""grid-container"">
        <!-- Grid items will be dynamically added here -->
    </div>    ","null","","","","","","","","","","","",""
"","1140","html-keyboard-response","364","482930","0.0-15.0-2.10","ly4nYM8zD0","656c9226c395c0344a63c586","6617fad957f7c6a12ea16e26","6622cf2936d1666a9ba2e961","mask grid","q","","","","","Phylogenetic_Distractor_Nonthreat_target","800","onmask","p","9","Phylogenetic","false","experimental"
"","null","html-keyboard-response","365","483639","0.0-15.0-0.11","ly4nYM8zD0","656c9226c395c0344a63c586","6617fad957f7c6a12ea16e26","6622cf2936d1666a9ba2e961","fixation cross","null","","","","","","","","","","","",""
"","null","html-keyboard-response","366","484455","0.0-15.0-1.11","ly4nYM8zD0","656c9226c395c0344a63c586","6617fad957f7c6a12ea16e26","6622cf2936d1666a9ba2e961","
        <div id=""grid-container"">
        <!-- Grid items will be dynamically added here -->
    </div>    ","null","","","","","","","","","","","",""
"","1453","html-keyboard-response","367","485109","0.0-15.0-2.11","ly4nYM8zD0","656c9226c395c0344a63c586","6617fad957f7c6a12ea16e26","6622cf2936d1666a9ba2e961","mask grid","q","","","","","Phylogenetic_Distractor_Threat_target","800","onmask","q","5","Phylogenetic","true","experimental"
"","null","html-keyboard-response","368","485820","0.0-15.0-0.12","ly4nYM8zD0","656c9226c395c0344a63c586","6617fad957f7c6a12ea16e26","6622cf2936d1666a9ba2e961","fixation cross","null","","","","","","","","","","","",""
"","null","html-keyboard-response","369","486636","0.0-15.0-1.12","ly4nYM8zD0","656c9226c395c0344a63c586","6617fad957f7c6a12ea16e26","6622cf2936d1666a9ba2e961","
        <div id=""grid-container"">
        <!-- Grid items will be dynamically added here -->
    </div>    ","null","","","","","","","","","","","",""
