"success","rt","trial_type","trial_index","time_elapsed","internal_node_id","unique_identifier","subject_id","study_id","session_id","stimulus","response","timeout","failed_images","failed_audio","failed_video","task","time_manipulation","respondedwhen","correctresponse","targetimagelocation","blocktype","correct","roundtype"
"true","11900","fullscreen","0","12915","0.0-0.0","WgwXa048SZ","55cb79e0fdf99b3c26ae4bca","6617fad957f7c6a12ea16e26","6622ccb651ece09e1349733b","","","","","","","","","","","","","",""
"","6705","html-keyboard-response","1","19622","0.0-1.0","WgwXa048SZ","55cb79e0fdf99b3c26ae4bca","6617fad957f7c6a12ea16e26","6622ccb651ece09e1349733b","instruction screen 0"," ","","","","","","","","","","","",""
"true","","preload","2","22461","0.0-2.0","WgwXa048SZ","55cb79e0fdf99b3c26ae4bca","6617fad957f7c6a12ea16e26","6622ccb651ece09e1349733b","","","false","[]","[]","[]","","","","","","","",""
"","11311","html-keyboard-response","3","33773","0.0-3.0","WgwXa048SZ","55cb79e0fdf99b3c26ae4bca","6617fad957f7c6a12ea16e26","6622ccb651ece09e1349733b","instruction screen 1"," ","","","","","","","","","","","",""
"","9410","html-keyboard-response","4","43212","0.0-4.0","WgwXa048SZ","55cb79e0fdf99b3c26ae4bca","6617fad957f7c6a12ea16e26","6622ccb651ece09e1349733b","instruction screen 2","q","","","","","","","","","","","",""
"","2831","html-keyboard-response","5","46068","0.0-5.0","WgwXa048SZ","55cb79e0fdf99b3c26ae4bca","6617fad957f7c6a12ea16e26","6622ccb651ece09e1349733b","instruction screen 3","p","","","","","","","","","","","",""
"","4649","html-keyboard-response","6","50747","0.0-6.0","WgwXa048SZ","55cb79e0fdf99b3c26ae4bca","6617fad957f7c6a12ea16e26","6622ccb651ece09e1349733b","instruction screen 4"," ","","","","","","","","","","","",""
"","12235","html-keyboard-response","7","63011","0.0-7.0","WgwXa048SZ","55cb79e0fdf99b3c26ae4bca","6617fad957f7c6a12ea16e26","6622ccb651ece09e1349733b","instruction screen 5"," ","","","","","","","","","","","",""
"","null","html-keyboard-response","8","63538","0.0-8.0","WgwXa048SZ","55cb79e0fdf99b3c26ae4bca","6617fad957f7c6a12ea16e26","6622ccb651ece09e1349733b","fixation cross","null","","","","","","","","","","","",""
"","null","html-keyboard-response","9","64042","0.0-9.0-0.0","WgwXa048SZ","55cb79e0fdf99b3c26ae4bca","6617fad957f7c6a12ea16e26","6622ccb651ece09e1349733b","fixation cross","null","","","","","","","","","","","",""
"","1320","html-keyboard-response","10","65362","0.0-9.0-1.0","WgwXa048SZ","55cb79e0fdf99b3c26ae4bca","6617fad957f7c6a12ea16e26","6622ccb651ece09e1349733b","image grid","p","","","","","Ontogenetic_Distractor_Nonthreat_target","3000","ongrid","p","9","Ontogenetic","true","practice"
"","null","html-keyboard-response","11","65522","0.0-9.0-2.0","WgwXa048SZ","55cb79e0fdf99b3c26ae4bca","6617fad957f7c6a12ea16e26","6622ccb651ece09e1349733b","
    <div id=""grid-container"">
        <!-- Grid items will be dynamically added here -->
    </div>    ","null","","","","","","","","","","","",""
"","null","html-keyboard-response","12","66738","0.0-9.0-3.0","WgwXa048SZ","55cb79e0fdf99b3c26ae4bca","6617fad957f7c6a12ea16e26","6622ccb651ece09e1349733b","feedback screen","null","","","","","","","","","","","",""
"","null","html-keyboard-response","13","67249","0.0-9.0-0.1","WgwXa048SZ","55cb79e0fdf99b3c26ae4bca","6617fad957f7c6a12ea16e26","6622ccb651ece09e1349733b","fixation cross","null","","","","","","","","","","","",""
"","null","html-keyboard-response","14","70153","0.0-9.0-1.1","WgwXa048SZ","55cb79e0fdf99b3c26ae4bca","6617fad957f7c6a12ea16e26","6622ccb651ece09e1349733b","
        <div id=""grid-container"">
        <!-- Grid items will be dynamically added here -->
    </div>    ","null","","","","","","","","","","","",""
"","3149","html-keyboard-response","15","70403","0.0-9.0-2.1","WgwXa048SZ","55cb79e0fdf99b3c26ae4bca","6617fad957f7c6a12ea16e26","6622ccb651ece09e1349733b","mask grid","q","","","","","Phylogenetic_Distractor_Threat_target","2900","onmask","q","2","Ontogenetic","true","practice"
"","null","html-keyboard-response","16","71627","0.0-9.0-3.1","WgwXa048SZ","55cb79e0fdf99b3c26ae4bca","6617fad957f7c6a12ea16e26","6622ccb651ece09e1349733b","feedback screen","null","","","","","","","","","","","",""
"","null","html-keyboard-response","17","72139","0.0-9.0-0.2","WgwXa048SZ","55cb79e0fdf99b3c26ae4bca","6617fad957f7c6a12ea16e26","6622ccb651ece09e1349733b","fixation cross","null","","","","","","","","","","","",""
"","null","html-keyboard-response","18","74947","0.0-9.0-1.2","WgwXa048SZ","55cb79e0fdf99b3c26ae4bca","6617fad957f7c6a12ea16e26","6622ccb651ece09e1349733b","
        <div id=""grid-container"">
        <!-- Grid items will be dynamically added here -->
    </div>    ","null","","","","","","","","","","","",""
"","3097","html-keyboard-response","19","75245","0.0-9.0-2.2","WgwXa048SZ","55cb79e0fdf99b3c26ae4bca","6617fad957f7c6a12ea16e26","6622ccb651ece09e1349733b","mask grid","p","","","","","Phylogenetic_Distractor_Nonthreat_target","2800","onmask","p","2","Ontogenetic","true","practice"
"","null","html-keyboard-response","20","76459","0.0-9.0-3.2","WgwXa048SZ","55cb79e0fdf99b3c26ae4bca","6617fad957f7c6a12ea16e26","6622ccb651ece09e1349733b","feedback screen","null","","","","","","","","","","","",""
"","null","html-keyboard-response","21","76971","0.0-9.0-0.3","WgwXa048SZ","55cb79e0fdf99b3c26ae4bca","6617fad957f7c6a12ea16e26","6622ccb651ece09e1349733b","fixation cross","null","","","","","","","","","","","",""
"","null","html-keyboard-response","22","79675","0.0-9.0-1.3","WgwXa048SZ","55cb79e0fdf99b3c26ae4bca","6617fad957f7c6a12ea16e26","6622ccb651ece09e1349733b","
        <div id=""grid-container"">
        <!-- Grid items will be dynamically added here -->
    </div>    ","null","","","","","","","","","","","",""
"","2948","html-keyboard-response","23","79925","0.0-9.0-2.3","WgwXa048SZ","55cb79e0fdf99b3c26ae4bca","6617fad957f7c6a12ea16e26","6622ccb651ece09e1349733b","mask grid","q","","","","","Phylogenetic_Distractor_Threat_target","2700","onmask","q","9","Ontogenetic","true","practice"
"","null","html-keyboard-response","24","81139","0.0-9.0-3.3","WgwXa048SZ","55cb79e0fdf99b3c26ae4bca","6617fad957f7c6a12ea16e26","6622ccb651ece09e1349733b","feedback screen","null","","","","","","","","","","","",""
"","null","html-keyboard-response","25","81652","0.0-9.0-0.4","WgwXa048SZ","55cb79e0fdf99b3c26ae4bca","6617fad957f7c6a12ea16e26","6622ccb651ece09e1349733b","fixation cross","null","","","","","","","","","","","",""
"","null","html-keyboard-response","26","84260","0.0-9.0-1.4","WgwXa048SZ","55cb79e0fdf99b3c26ae4bca","6617fad957f7c6a12ea16e26","6622ccb651ece09e1349733b","
        <div id=""grid-container"">
        <!-- Grid items will be dynamically added here -->
    </div>    ","null","","","","","","","","","","","",""
"","2865","html-keyboard-response","27","84525","0.0-9.0-2.4","WgwXa048SZ","55cb79e0fdf99b3c26ae4bca","6617fad957f7c6a12ea16e26","6622ccb651ece09e1349733b","mask grid","q","","","","","Phylogenetic_Distractor_Threat_target","2600","onmask","q","3","Ontogenetic","true","practice"
"","null","html-keyboard-response","28","85740","0.0-9.0-3.4","WgwXa048SZ","55cb79e0fdf99b3c26ae4bca","6617fad957f7c6a12ea16e26","6622ccb651ece09e1349733b","feedback screen","null","","","","","","","","","","","",""
"","null","html-keyboard-response","29","86252","0.0-9.0-0.5","WgwXa048SZ","55cb79e0fdf99b3c26ae4bca","6617fad957f7c6a12ea16e26","6622ccb651ece09e1349733b","fixation cross","null","","","","","","","","","","","",""
"","null","html-keyboard-response","30","88756","0.0-9.0-1.5","WgwXa048SZ","55cb79e0fdf99b3c26ae4bca","6617fad957f7c6a12ea16e26","6622ccb651ece09e1349733b","
        <div id=""grid-container"">
        <!-- Grid items will be dynamically added here -->
    </div>    ","null","","","","","","","","","","","",""
"","2781","html-keyboard-response","31","89037","0.0-9.0-2.5","WgwXa048SZ","55cb79e0fdf99b3c26ae4bca","6617fad957f7c6a12ea16e26","6622ccb651ece09e1349733b","mask grid"," ","","","","","Phylogenetic_Distractor_notarget","2500","onmask"," ","7","Ontogenetic","true","practice"
"","null","html-keyboard-response","32","90252","0.0-9.0-3.5","WgwXa048SZ","55cb79e0fdf99b3c26ae4bca","6617fad957f7c6a12ea16e26","6622ccb651ece09e1349733b","feedback screen","null","","","","","","","","","","","",""
"","null","html-keyboard-response","33","90763","0.0-9.0-0.6","WgwXa048SZ","55cb79e0fdf99b3c26ae4bca","6617fad957f7c6a12ea16e26","6622ccb651ece09e1349733b","fixation cross","null","","","","","","","","","","","",""
"","null","html-keyboard-response","34","93171","0.0-9.0-1.6","WgwXa048SZ","55cb79e0fdf99b3c26ae4bca","6617fad957f7c6a12ea16e26","6622ccb651ece09e1349733b","
        <div id=""grid-container"">
        <!-- Grid items will be dynamically added here -->
    </div>    ","null","","","","","","","","","","","",""
"","2649","html-keyboard-response","35","93420","0.0-9.0-2.6","WgwXa048SZ","55cb79e0fdf99b3c26ae4bca","6617fad957f7c6a12ea16e26","6622ccb651ece09e1349733b","mask grid","p","","","","","Ontogenetic_Distractor_Nonthreat_target","2400","onmask","p","4","Ontogenetic","true","practice"
"","null","html-keyboard-response","36","94635","0.0-9.0-3.6","WgwXa048SZ","55cb79e0fdf99b3c26ae4bca","6617fad957f7c6a12ea16e26","6622ccb651ece09e1349733b","feedback screen","null","","","","","","","","","","","",""
"","null","html-keyboard-response","37","95147","0.0-9.0-0.7","WgwXa048SZ","55cb79e0fdf99b3c26ae4bca","6617fad957f7c6a12ea16e26","6622ccb651ece09e1349733b","fixation cross","null","","","","","","","","","","","",""
"","null","html-keyboard-response","38","97451","0.0-9.0-1.7","WgwXa048SZ","55cb79e0fdf99b3c26ae4bca","6617fad957f7c6a12ea16e26","6622ccb651ece09e1349733b","
        <div id=""grid-container"">
        <!-- Grid items will be dynamically added here -->
    </div>    ","null","","","","","","","","","","","",""
"","2565","html-keyboard-response","39","97716","0.0-9.0-2.7","WgwXa048SZ","55cb79e0fdf99b3c26ae4bca","6617fad957f7c6a12ea16e26","6622ccb651ece09e1349733b","mask grid","p","","","","","Ontogenetic_Distractor_Nonthreat_target","2300","onmask","p","8","Ontogenetic","true","practice"
"","null","html-keyboard-response","40","98931","0.0-9.0-3.7","WgwXa048SZ","55cb79e0fdf99b3c26ae4bca","6617fad957f7c6a12ea16e26","6622ccb651ece09e1349733b","feedback screen","null","","","","","","","","","","","",""
"","null","html-keyboard-response","41","99443","0.0-9.0-0.8","WgwXa048SZ","55cb79e0fdf99b3c26ae4bca","6617fad957f7c6a12ea16e26","6622ccb651ece09e1349733b","fixation cross","null","","","","","","","","","","","",""
"","null","html-keyboard-response","42","101651","0.0-9.0-1.8","WgwXa048SZ","55cb79e0fdf99b3c26ae4bca","6617fad957f7c6a12ea16e26","6622ccb651ece09e1349733b","
        <div id=""grid-container"">
        <!-- Grid items will be dynamically added here -->
    </div>    ","null","","","","","","","","","","","",""
"","2489","html-keyboard-response","43","101941","0.0-9.0-2.8","WgwXa048SZ","55cb79e0fdf99b3c26ae4bca","6617fad957f7c6a12ea16e26","6622ccb651ece09e1349733b","mask grid","q","","","","","Phylogenetic_Distractor_Threat_target","2200","onmask","q","3","Ontogenetic","true","practice"
"","null","html-keyboard-response","44","103155","0.0-9.0-3.8","WgwXa048SZ","55cb79e0fdf99b3c26ae4bca","6617fad957f7c6a12ea16e26","6622ccb651ece09e1349733b","feedback screen","null","","","","","","","","","","","",""
"","null","html-keyboard-response","45","103659","0.0-9.0-0.9","WgwXa048SZ","55cb79e0fdf99b3c26ae4bca","6617fad957f7c6a12ea16e26","6622ccb651ece09e1349733b","fixation cross","null","","","","","","","","","","","",""
"","null","html-keyboard-response","46","105763","0.0-9.0-1.9","WgwXa048SZ","55cb79e0fdf99b3c26ae4bca","6617fad957f7c6a12ea16e26","6622ccb651ece09e1349733b","
        <div id=""grid-container"">
        <!-- Grid items will be dynamically added here -->
    </div>    ","null","","","","","","","","","","","",""
"","2348","html-keyboard-response","47","106012","0.0-9.0-2.9","WgwXa048SZ","55cb79e0fdf99b3c26ae4bca","6617fad957f7c6a12ea16e26","6622ccb651ece09e1349733b","mask grid","q","","","","","Ontogenetic_Distractor_Threat_target","2100","onmask","q","6","Ontogenetic","true","practice"
"","null","html-keyboard-response","48","107227","0.0-9.0-3.9","WgwXa048SZ","55cb79e0fdf99b3c26ae4bca","6617fad957f7c6a12ea16e26","6622ccb651ece09e1349733b","feedback screen","null","","","","","","","","","","","",""
"","null","html-keyboard-response","49","107731","0.0-9.0-0.10","WgwXa048SZ","55cb79e0fdf99b3c26ae4bca","6617fad957f7c6a12ea16e26","6622ccb651ece09e1349733b","fixation cross","null","","","","","","","","","","","",""
"","null","html-keyboard-response","50","109739","0.0-9.0-1.10","WgwXa048SZ","55cb79e0fdf99b3c26ae4bca","6617fad957f7c6a12ea16e26","6622ccb651ece09e1349733b","
        <div id=""grid-container"">
        <!-- Grid items will be dynamically added here -->
    </div>    ","null","","","","","","","","","","","",""
"","2424","html-keyboard-response","51","110164","0.0-9.0-2.10","WgwXa048SZ","55cb79e0fdf99b3c26ae4bca","6617fad957f7c6a12ea16e26","6622ccb651ece09e1349733b","mask grid","p","","","","","Phylogenetic_Distractor_Nonthreat_target","2000","onmask","p","1","Ontogenetic","true","practice"
"","null","html-keyboard-response","52","111380","0.0-9.0-3.10","WgwXa048SZ","55cb79e0fdf99b3c26ae4bca","6617fad957f7c6a12ea16e26","6622ccb651ece09e1349733b","feedback screen","null","","","","","","","","","","","",""
"","null","html-keyboard-response","53","111891","0.0-9.0-0.11","WgwXa048SZ","55cb79e0fdf99b3c26ae4bca","6617fad957f7c6a12ea16e26","6622ccb651ece09e1349733b","fixation cross","null","","","","","","","","","","","",""
"","null","html-keyboard-response","54","113796","0.0-9.0-1.11","WgwXa048SZ","55cb79e0fdf99b3c26ae4bca","6617fad957f7c6a12ea16e26","6622ccb651ece09e1349733b","
        <div id=""grid-container"">
        <!-- Grid items will be dynamically added here -->
    </div>    ","null","","","","","","","","","","","",""
"","2205","html-keyboard-response","55","114101","0.0-9.0-2.11","WgwXa048SZ","55cb79e0fdf99b3c26ae4bca","6617fad957f7c6a12ea16e26","6622ccb651ece09e1349733b","mask grid"," ","","","","","Phylogenetic_Distractor_notarget","1900","onmask"," ","4","Ontogenetic","true","practice"
"","null","html-keyboard-response","56","115316","0.0-9.0-3.11","WgwXa048SZ","55cb79e0fdf99b3c26ae4bca","6617fad957f7c6a12ea16e26","6622ccb651ece09e1349733b","feedback screen","null","","","","","","","","","","","",""
"","null","html-keyboard-response","57","115828","0.0-9.0-0.12","WgwXa048SZ","55cb79e0fdf99b3c26ae4bca","6617fad957f7c6a12ea16e26","6622ccb651ece09e1349733b","fixation cross","null","","","","","","","","","","","",""
"","null","html-keyboard-response","58","117636","0.0-9.0-1.12","WgwXa048SZ","55cb79e0fdf99b3c26ae4bca","6617fad957f7c6a12ea16e26","6622ccb651ece09e1349733b","
        <div id=""grid-container"">
        <!-- Grid items will be dynamically added here -->
    </div>    ","null","","","","","","","","","","","",""
"","2111","html-keyboard-response","59","117948","0.0-9.0-2.12","WgwXa048SZ","55cb79e0fdf99b3c26ae4bca","6617fad957f7c6a12ea16e26","6622ccb651ece09e1349733b","mask grid","p","","","","","Ontogenetic_Distractor_Threat_target","1800","onmask","q","2","Ontogenetic","false","practice"
"","null","html-keyboard-response","60","119164","0.0-9.0-3.12","WgwXa048SZ","55cb79e0fdf99b3c26ae4bca","6617fad957f7c6a12ea16e26","6622ccb651ece09e1349733b","feedback screen","null","","","","","","","","","","","",""
"","null","html-keyboard-response","61","119668","0.0-9.0-0.13","WgwXa048SZ","55cb79e0fdf99b3c26ae4bca","6617fad957f7c6a12ea16e26","6622ccb651ece09e1349733b","fixation cross","null","","","","","","","","","","","",""
"","null","html-keyboard-response","62","121371","0.0-9.0-1.13","WgwXa048SZ","55cb79e0fdf99b3c26ae4bca","6617fad957f7c6a12ea16e26","6622ccb651ece09e1349733b","
        <div id=""grid-container"">
        <!-- Grid items will be dynamically added here -->
    </div>    ","null","","","","","","","","","","","",""
"","1964","html-keyboard-response","63","121636","0.0-9.0-2.13","WgwXa048SZ","55cb79e0fdf99b3c26ae4bca","6617fad957f7c6a12ea16e26","6622ccb651ece09e1349733b","mask grid","p","","","","","Ontogenetic_Distractor_Nonthreat_target","1700","onmask","p","9","Ontogenetic","true","practice"
"","null","html-keyboard-response","64","122852","0.0-9.0-3.13","WgwXa048SZ","55cb79e0fdf99b3c26ae4bca","6617fad957f7c6a12ea16e26","6622ccb651ece09e1349733b","feedback screen","null","","","","","","","","","","","",""
"","null","html-keyboard-response","65","123363","0.0-9.0-0.14","WgwXa048SZ","55cb79e0fdf99b3c26ae4bca","6617fad957f7c6a12ea16e26","6622ccb651ece09e1349733b","fixation cross","null","","","","","","","","","","","",""
"","null","html-keyboard-response","66","124971","0.0-9.0-1.14","WgwXa048SZ","55cb79e0fdf99b3c26ae4bca","6617fad957f7c6a12ea16e26","6622ccb651ece09e1349733b","
        <div id=""grid-container"">
        <!-- Grid items will be dynamically added here -->
    </div>    ","null","","","","","","","","","","","",""
"","1880","html-keyboard-response","67","125252","0.0-9.0-2.14","WgwXa048SZ","55cb79e0fdf99b3c26ae4bca","6617fad957f7c6a12ea16e26","6622ccb651ece09e1349733b","mask grid","q","","","","","Ontogenetic_Distractor_Threat_target","1600","onmask","q","6","Ontogenetic","true","practice"
"","null","html-keyboard-response","68","126467","0.0-9.0-3.14","WgwXa048SZ","55cb79e0fdf99b3c26ae4bca","6617fad957f7c6a12ea16e26","6622ccb651ece09e1349733b","feedback screen","null","","","","","","","","","","","",""
"","null","html-keyboard-response","69","126979","0.0-9.0-0.15","WgwXa048SZ","55cb79e0fdf99b3c26ae4bca","6617fad957f7c6a12ea16e26","6622ccb651ece09e1349733b","fixation cross","null","","","","","","","","","","","",""
"","null","html-keyboard-response","70","128483","0.0-9.0-1.15","WgwXa048SZ","55cb79e0fdf99b3c26ae4bca","6617fad957f7c6a12ea16e26","6622ccb651ece09e1349733b","
        <div id=""grid-container"">
        <!-- Grid items will be dynamically added here -->
    </div>    ","null","","","","","","","","","","","",""
"","1788","html-keyboard-response","71","128772","0.0-9.0-2.15","WgwXa048SZ","55cb79e0fdf99b3c26ae4bca","6617fad957f7c6a12ea16e26","6622ccb651ece09e1349733b","mask grid","q","","","","","Ontogenetic_Distractor_Threat_target","1500","onmask","q","4","Ontogenetic","true","practice"
"","null","html-keyboard-response","72","129988","0.0-9.0-3.15","WgwXa048SZ","55cb79e0fdf99b3c26ae4bca","6617fad957f7c6a12ea16e26","6622ccb651ece09e1349733b","feedback screen","null","","","","","","","","","","","",""
"","null","html-keyboard-response","73","130500","0.0-9.0-0.16","WgwXa048SZ","55cb79e0fdf99b3c26ae4bca","6617fad957f7c6a12ea16e26","6622ccb651ece09e1349733b","fixation cross","null","","","","","","","","","","","",""
"","null","html-keyboard-response","74","131909","0.0-9.0-1.16","WgwXa048SZ","55cb79e0fdf99b3c26ae4bca","6617fad957f7c6a12ea16e26","6622ccb651ece09e1349733b","
        <div id=""grid-container"">
        <!-- Grid items will be dynamically added here -->
    </div>    ","null","","","","","","","","","","","",""
"","1679","html-keyboard-response","75","132188","0.0-9.0-2.16","WgwXa048SZ","55cb79e0fdf99b3c26ae4bca","6617fad957f7c6a12ea16e26","6622ccb651ece09e1349733b","mask grid"," ","","","","","Phylogenetic_Distractor_Nonthreat_target","1400","onmask","p","6","Ontogenetic","false","practice"
"","null","html-keyboard-response","76","133405","0.0-9.0-3.16","WgwXa048SZ","55cb79e0fdf99b3c26ae4bca","6617fad957f7c6a12ea16e26","6622ccb651ece09e1349733b","feedback screen","null","","","","","","","","","","","",""
"","null","html-keyboard-response","77","133917","0.0-9.0-0.17","WgwXa048SZ","55cb79e0fdf99b3c26ae4bca","6617fad957f7c6a12ea16e26","6622ccb651ece09e1349733b","fixation cross","null","","","","","","","","","","","",""
"","null","html-keyboard-response","78","135220","0.0-9.0-1.17","WgwXa048SZ","55cb79e0fdf99b3c26ae4bca","6617fad957f7c6a12ea16e26","6622ccb651ece09e1349733b","
        <div id=""grid-container"">
        <!-- Grid items will be dynamically added here -->
    </div>    ","null","","","","","","","","","","","",""
"","1781","html-keyboard-response","79","135702","0.0-9.0-2.17","WgwXa048SZ","55cb79e0fdf99b3c26ae4bca","6617fad957f7c6a12ea16e26","6622ccb651ece09e1349733b","mask grid","p","","","","","Phylogenetic_Distractor_Nonthreat_target","1300","onmask","p","6","Ontogenetic","true","practice"
"","null","html-keyboard-response","80","136916","0.0-9.0-3.17","WgwXa048SZ","55cb79e0fdf99b3c26ae4bca","6617fad957f7c6a12ea16e26","6622ccb651ece09e1349733b","feedback screen","null","","","","","","","","","","","",""
"","null","html-keyboard-response","81","137428","0.0-9.0-0.18","WgwXa048SZ","55cb79e0fdf99b3c26ae4bca","6617fad957f7c6a12ea16e26","6622ccb651ece09e1349733b","fixation cross","null","","","","","","","","","","","",""
"","null","html-keyboard-response","82","138637","0.0-9.0-1.18","WgwXa048SZ","55cb79e0fdf99b3c26ae4bca","6617fad957f7c6a12ea16e26","6622ccb651ece09e1349733b","
        <div id=""grid-container"">
        <!-- Grid items will be dynamically added here -->
    </div>    ","null","","","","","","","","","","","",""
"","1584","html-keyboard-response","83","139021","0.0-9.0-2.18","WgwXa048SZ","55cb79e0fdf99b3c26ae4bca","6617fad957f7c6a12ea16e26","6622ccb651ece09e1349733b","mask grid"," ","","","","","Ontogenetic_Distractor_notarget","1200","onmask"," ","1","Ontogenetic","true","practice"
"","null","html-keyboard-response","84","140237","0.0-9.0-3.18","WgwXa048SZ","55cb79e0fdf99b3c26ae4bca","6617fad957f7c6a12ea16e26","6622ccb651ece09e1349733b","feedback screen","null","","","","","","","","","","","",""
"","null","html-keyboard-response","85","140741","0.0-9.0-0.19","WgwXa048SZ","55cb79e0fdf99b3c26ae4bca","6617fad957f7c6a12ea16e26","6622ccb651ece09e1349733b","fixation cross","null","","","","","","","","","","","",""
"","null","html-keyboard-response","86","141845","0.0-9.0-1.19","WgwXa048SZ","55cb79e0fdf99b3c26ae4bca","6617fad957f7c6a12ea16e26","6622ccb651ece09e1349733b","
        <div id=""grid-container"">
        <!-- Grid items will be dynamically added here -->
    </div>    ","null","","","","","","","","","","","",""
"","1451","html-keyboard-response","87","142196","0.0-9.0-2.19","WgwXa048SZ","55cb79e0fdf99b3c26ae4bca","6617fad957f7c6a12ea16e26","6622ccb651ece09e1349733b","mask grid"," ","","","","","Ontogenetic_Distractor_notarget","1100","onmask"," ","4","Ontogenetic","true","practice"
"","null","html-keyboard-response","88","143413","0.0-9.0-3.19","WgwXa048SZ","55cb79e0fdf99b3c26ae4bca","6617fad957f7c6a12ea16e26","6622ccb651ece09e1349733b","feedback screen","null","","","","","","","","","","","",""
"","17337","html-keyboard-response","89","160773","0.0-10.0","WgwXa048SZ","55cb79e0fdf99b3c26ae4bca","6617fad957f7c6a12ea16e26","6622ccb651ece09e1349733b","pre-experimental_briefing"," ","","","","","","","","","","","",""
"","null","html-keyboard-response","90","163308","0.0-11.0-0.0","WgwXa048SZ","55cb79e0fdf99b3c26ae4bca","6617fad957f7c6a12ea16e26","6622ccb651ece09e1349733b","fixation cross","null","","","","","","","","","","","",""
"","null","html-keyboard-response","91","165812","0.0-11.0-1.0","WgwXa048SZ","55cb79e0fdf99b3c26ae4bca","6617fad957f7c6a12ea16e26","6622ccb651ece09e1349733b","
        <div id=""grid-container"">
        <!-- Grid items will be dynamically added here -->
    </div>    ","null","","","","","","","","","","","",""
"","2747","html-keyboard-response","92","166060","0.0-11.0-2.0","WgwXa048SZ","55cb79e0fdf99b3c26ae4bca","6617fad957f7c6a12ea16e26","6622ccb651ece09e1349733b","mask grid","q","","","","","Ontogenetic_Distractor_Threat_target","2500","onmask","q","3","Ontogenetic","true","experimental"
"","null","html-keyboard-response","93","166773","0.0-11.0-0.1","WgwXa048SZ","55cb79e0fdf99b3c26ae4bca","6617fad957f7c6a12ea16e26","6622ccb651ece09e1349733b","fixation cross","null","","","","","","","","","","","",""
"","null","html-keyboard-response","94","169277","0.0-11.0-1.1","WgwXa048SZ","55cb79e0fdf99b3c26ae4bca","6617fad957f7c6a12ea16e26","6622ccb651ece09e1349733b","
        <div id=""grid-container"">
        <!-- Grid items will be dynamically added here -->
    </div>    ","null","","","","","","","","","","","",""
"","2747","html-keyboard-response","95","169524","0.0-11.0-2.1","WgwXa048SZ","55cb79e0fdf99b3c26ae4bca","6617fad957f7c6a12ea16e26","6622ccb651ece09e1349733b","mask grid","q","","","","","Ontogenetic_Distractor_Threat_target","2500","onmask","q","5","Ontogenetic","true","experimental"
"","null","html-keyboard-response","96","170237","0.0-11.0-0.2","WgwXa048SZ","55cb79e0fdf99b3c26ae4bca","6617fad957f7c6a12ea16e26","6622ccb651ece09e1349733b","fixation cross","null","","","","","","","","","","","",""
"","null","html-keyboard-response","97","172741","0.0-11.0-1.2","WgwXa048SZ","55cb79e0fdf99b3c26ae4bca","6617fad957f7c6a12ea16e26","6622ccb651ece09e1349733b","
        <div id=""grid-container"">
        <!-- Grid items will be dynamically added here -->
    </div>    ","null","","","","","","","","","","","",""
"","2748","html-keyboard-response","98","172989","0.0-11.0-2.2","WgwXa048SZ","55cb79e0fdf99b3c26ae4bca","6617fad957f7c6a12ea16e26","6622ccb651ece09e1349733b","mask grid","p","","","","","Ontogenetic_Distractor_Nonthreat_target","2500","onmask","p","7","Ontogenetic","true","experimental"
"","null","html-keyboard-response","99","173701","0.0-11.0-0.3","WgwXa048SZ","55cb79e0fdf99b3c26ae4bca","6617fad957f7c6a12ea16e26","6622ccb651ece09e1349733b","fixation cross","null","","","","","","","","","","","",""
"","null","html-keyboard-response","100","176205","0.0-11.0-1.3","WgwXa048SZ","55cb79e0fdf99b3c26ae4bca","6617fad957f7c6a12ea16e26","6622ccb651ece09e1349733b","
        <div id=""grid-container"">
        <!-- Grid items will be dynamically added here -->
    </div>    ","null","","","","","","","","","","","",""
"","2779","html-keyboard-response","101","176484","0.0-11.0-2.3","WgwXa048SZ","55cb79e0fdf99b3c26ae4bca","6617fad957f7c6a12ea16e26","6622ccb651ece09e1349733b","mask grid","p","","","","","Ontogenetic_Distractor_Nonthreat_target","2500","onmask","p","9","Ontogenetic","true","experimental"
"","null","html-keyboard-response","102","177197","0.0-11.0-0.4","WgwXa048SZ","55cb79e0fdf99b3c26ae4bca","6617fad957f7c6a12ea16e26","6622ccb651ece09e1349733b","fixation cross","null","","","","","","","","","","","",""
"","null","html-keyboard-response","103","179701","0.0-11.0-1.4","WgwXa048SZ","55cb79e0fdf99b3c26ae4bca","6617fad957f7c6a12ea16e26","6622ccb651ece09e1349733b","
        <div id=""grid-container"">
        <!-- Grid items will be dynamically added here -->
    </div>    ","null","","","","","","","","","","","",""
"","2762","html-keyboard-response","104","179963","0.0-11.0-2.4","WgwXa048SZ","55cb79e0fdf99b3c26ae4bca","6617fad957f7c6a12ea16e26","6622ccb651ece09e1349733b","mask grid","p","","","","","Ontogenetic_Distractor_Nonthreat_target","2500","onmask","p","9","Ontogenetic","true","experimental"
"","null","html-keyboard-response","105","180669","0.0-11.0-0.5","WgwXa048SZ","55cb79e0fdf99b3c26ae4bca","6617fad957f7c6a12ea16e26","6622ccb651ece09e1349733b","fixation cross","null","","","","","","","","","","","",""
"","2367","html-keyboard-response","106","183037","0.0-11.0-1.5","WgwXa048SZ","55cb79e0fdf99b3c26ae4bca","6617fad957f7c6a12ea16e26","6622ccb651ece09e1349733b","image grid"," ","","","","","Ontogenetic_Distractor_notarget","2500","ongrid"," ","7","Ontogenetic","true","experimental"
"","null","html-keyboard-response","107","183189","0.0-11.0-2.5","WgwXa048SZ","55cb79e0fdf99b3c26ae4bca","6617fad957f7c6a12ea16e26","6622ccb651ece09e1349733b","
    <div id=""grid-container"">
        <!-- Grid items will be dynamically added here -->
    </div>    ","null","","","","","","","","","","","",""
"","null","html-keyboard-response","108","183901","0.0-11.0-0.6","WgwXa048SZ","55cb79e0fdf99b3c26ae4bca","6617fad957f7c6a12ea16e26","6622ccb651ece09e1349733b","fixation cross","null","","","","","","","","","","","",""
"","null","html-keyboard-response","109","186405","0.0-11.0-1.6","WgwXa048SZ","55cb79e0fdf99b3c26ae4bca","6617fad957f7c6a12ea16e26","6622ccb651ece09e1349733b","
        <div id=""grid-container"">
        <!-- Grid items will be dynamically added here -->
    </div>    ","null","","","","","","","","","","","",""
"","2802","html-keyboard-response","110","186707","0.0-11.0-2.6","WgwXa048SZ","55cb79e0fdf99b3c26ae4bca","6617fad957f7c6a12ea16e26","6622ccb651ece09e1349733b","mask grid"," ","","","","","Ontogenetic_Distractor_notarget","2500","onmask"," ","6","Ontogenetic","true","experimental"
"","null","html-keyboard-response","111","187413","0.0-11.0-0.7","WgwXa048SZ","55cb79e0fdf99b3c26ae4bca","6617fad957f7c6a12ea16e26","6622ccb651ece09e1349733b","fixation cross","null","","","","","","","","","","","",""
"","null","html-keyboard-response","112","189916","0.0-11.0-1.7","WgwXa048SZ","55cb79e0fdf99b3c26ae4bca","6617fad957f7c6a12ea16e26","6622ccb651ece09e1349733b","
        <div id=""grid-container"">
        <!-- Grid items will be dynamically added here -->
    </div>    ","null","","","","","","","","","","","",""
"","2770","html-keyboard-response","113","190187","0.0-11.0-2.7","WgwXa048SZ","55cb79e0fdf99b3c26ae4bca","6617fad957f7c6a12ea16e26","6622ccb651ece09e1349733b","mask grid","p","","","","","Ontogenetic_Distractor_Nonthreat_target","2500","onmask","p","2","Ontogenetic","true","experimental"
"","null","html-keyboard-response","114","190892","0.0-11.0-0.8","WgwXa048SZ","55cb79e0fdf99b3c26ae4bca","6617fad957f7c6a12ea16e26","6622ccb651ece09e1349733b","fixation cross","null","","","","","","","","","","","",""
"","null","html-keyboard-response","115","193398","0.0-11.0-1.8","WgwXa048SZ","55cb79e0fdf99b3c26ae4bca","6617fad957f7c6a12ea16e26","6622ccb651ece09e1349733b","
        <div id=""grid-container"">
        <!-- Grid items will be dynamically added here -->
    </div>    ","null","","","","","","","","","","","",""
"","2747","html-keyboard-response","116","193646","0.0-11.0-2.8","WgwXa048SZ","55cb79e0fdf99b3c26ae4bca","6617fad957f7c6a12ea16e26","6622ccb651ece09e1349733b","mask grid","q","","","","","Ontogenetic_Distractor_Threat_target","2500","onmask","q","7","Ontogenetic","true","experimental"
"","null","html-keyboard-response","117","194358","0.0-11.0-0.9","WgwXa048SZ","55cb79e0fdf99b3c26ae4bca","6617fad957f7c6a12ea16e26","6622ccb651ece09e1349733b","fixation cross","null","","","","","","","","","","","",""
"","null","html-keyboard-response","118","196863","0.0-11.0-1.9","WgwXa048SZ","55cb79e0fdf99b3c26ae4bca","6617fad957f7c6a12ea16e26","6622ccb651ece09e1349733b","
        <div id=""grid-container"">
        <!-- Grid items will be dynamically added here -->
    </div>    ","null","","","","","","","","","","","",""
"","2754","html-keyboard-response","119","197117","0.0-11.0-2.9","WgwXa048SZ","55cb79e0fdf99b3c26ae4bca","6617fad957f7c6a12ea16e26","6622ccb651ece09e1349733b","mask grid","q","","","","","Ontogenetic_Distractor_Threat_target","2500","onmask","q","5","Ontogenetic","true","experimental"
"","null","html-keyboard-response","120","197823","0.0-11.0-0.10","WgwXa048SZ","55cb79e0fdf99b3c26ae4bca","6617fad957f7c6a12ea16e26","6622ccb651ece09e1349733b","fixation cross","null","","","","","","","","","","","",""
"","null","html-keyboard-response","121","200327","0.0-11.0-1.10","WgwXa048SZ","55cb79e0fdf99b3c26ae4bca","6617fad957f7c6a12ea16e26","6622ccb651ece09e1349733b","
        <div id=""grid-container"">
        <!-- Grid items will be dynamically added here -->
    </div>    ","null","","","","","","","","","","","",""
"","2729","html-keyboard-response","122","200557","0.0-11.0-2.10","WgwXa048SZ","55cb79e0fdf99b3c26ae4bca","6617fad957f7c6a12ea16e26","6622ccb651ece09e1349733b","mask grid","p","","","","","Ontogenetic_Distractor_Nonthreat_target","2500","onmask","p","4","Ontogenetic","true","experimental"
"","null","html-keyboard-response","123","201262","0.0-11.0-0.11","WgwXa048SZ","55cb79e0fdf99b3c26ae4bca","6617fad957f7c6a12ea16e26","6622ccb651ece09e1349733b","fixation cross","null","","","","","","","","","","","",""
"","null","html-keyboard-response","124","203766","0.0-11.0-1.11","WgwXa048SZ","55cb79e0fdf99b3c26ae4bca","6617fad957f7c6a12ea16e26","6622ccb651ece09e1349733b","
        <div id=""grid-container"">
        <!-- Grid items will be dynamically added here -->
    </div>    ","null","","","","","","","","","","","",""
"","2771","html-keyboard-response","125","204037","0.0-11.0-2.11","WgwXa048SZ","55cb79e0fdf99b3c26ae4bca","6617fad957f7c6a12ea16e26","6622ccb651ece09e1349733b","mask grid","p","","","","","Ontogenetic_Distractor_Nonthreat_target","2500","onmask","p","5","Ontogenetic","true","experimental"
"","null","html-keyboard-response","126","204750","0.0-11.0-0.12","WgwXa048SZ","55cb79e0fdf99b3c26ae4bca","6617fad957f7c6a12ea16e26","6622ccb651ece09e1349733b","fixation cross","null","","","","","","","","","","","",""
"","null","html-keyboard-response","127","207254","0.0-11.0-1.12","WgwXa048SZ","55cb79e0fdf99b3c26ae4bca","6617fad957f7c6a12ea16e26","6622ccb651ece09e1349733b","
        <div id=""grid-container"">
        <!-- Grid items will be dynamically added here -->
    </div>    ","null","","","","","","","","","","","",""
"","2754","html-keyboard-response","128","207508","0.0-11.0-2.12","WgwXa048SZ","55cb79e0fdf99b3c26ae4bca","6617fad957f7c6a12ea16e26","6622ccb651ece09e1349733b","mask grid","p","","","","","Ontogenetic_Distractor_Nonthreat_target","2500","onmask","p","3","Ontogenetic","true","experimental"
"","null","html-keyboard-response","129","208214","0.0-11.0-0.13","WgwXa048SZ","55cb79e0fdf99b3c26ae4bca","6617fad957f7c6a12ea16e26","6622ccb651ece09e1349733b","fixation cross","null","","","","","","","","","","","",""
"","null","html-keyboard-response","130","210718","0.0-11.0-1.13","WgwXa048SZ","55cb79e0fdf99b3c26ae4bca","6617fad957f7c6a12ea16e26","6622ccb651ece09e1349733b","
        <div id=""grid-container"">
        <!-- Grid items will be dynamically added here -->
    </div>    ","null","","","","","","","","","","","",""
"","2754","html-keyboard-response","131","210972","0.0-11.0-2.13","WgwXa048SZ","55cb79e0fdf99b3c26ae4bca","6617fad957f7c6a12ea16e26","6622ccb651ece09e1349733b","mask grid","p","","","","","Ontogenetic_Distractor_Nonthreat_target","2500","onmask","p","8","Ontogenetic","true","experimental"
"","null","html-keyboard-response","132","211678","0.0-11.0-0.14","WgwXa048SZ","55cb79e0fdf99b3c26ae4bca","6617fad957f7c6a12ea16e26","6622ccb651ece09e1349733b","fixation cross","null","","","","","","","","","","","",""
"","null","html-keyboard-response","133","214182","0.0-11.0-1.14","WgwXa048SZ","55cb79e0fdf99b3c26ae4bca","6617fad957f7c6a12ea16e26","6622ccb651ece09e1349733b","
        <div id=""grid-container"">
        <!-- Grid items will be dynamically added here -->
    </div>    ","null","","","","","","","","","","","",""
"","2755","html-keyboard-response","134","214437","0.0-11.0-2.14","WgwXa048SZ","55cb79e0fdf99b3c26ae4bca","6617fad957f7c6a12ea16e26","6622ccb651ece09e1349733b","mask grid","q","","","","","Ontogenetic_Distractor_Threat_target","2500","onmask","q","2","Ontogenetic","true","experimental"
"","null","html-keyboard-response","135","215150","0.0-11.0-0.15","WgwXa048SZ","55cb79e0fdf99b3c26ae4bca","6617fad957f7c6a12ea16e26","6622ccb651ece09e1349733b","fixation cross","null","","","","","","","","","","","",""
"","null","html-keyboard-response","136","217654","0.0-11.0-1.15","WgwXa048SZ","55cb79e0fdf99b3c26ae4bca","6617fad957f7c6a12ea16e26","6622ccb651ece09e1349733b","
        <div id=""grid-container"">
        <!-- Grid items will be dynamically added here -->
    </div>    ","null","","","","","","","","","","","",""
"","2777","html-keyboard-response","137","217932","0.0-11.0-2.15","WgwXa048SZ","55cb79e0fdf99b3c26ae4bca","6617fad957f7c6a12ea16e26","6622ccb651ece09e1349733b","mask grid","q","","","","","Ontogenetic_Distractor_Threat_target","2500","onmask","q","2","Ontogenetic","true","experimental"
"","null","html-keyboard-response","138","218638","0.0-11.0-0.16","WgwXa048SZ","55cb79e0fdf99b3c26ae4bca","6617fad957f7c6a12ea16e26","6622ccb651ece09e1349733b","fixation cross","null","","","","","","","","","","","",""
"","null","html-keyboard-response","139","221142","0.0-11.0-1.16","WgwXa048SZ","55cb79e0fdf99b3c26ae4bca","6617fad957f7c6a12ea16e26","6622ccb651ece09e1349733b","
        <div id=""grid-container"">
        <!-- Grid items will be dynamically added here -->
    </div>    ","null","","","","","","","","","","","",""
"","2617","html-keyboard-response","140","221260","0.0-11.0-2.16","WgwXa048SZ","55cb79e0fdf99b3c26ae4bca","6617fad957f7c6a12ea16e26","6622ccb651ece09e1349733b","mask grid","p","","","","","Ontogenetic_Distractor_Nonthreat_target","2500","onmask","p","9","Ontogenetic","true","experimental"
"","null","html-keyboard-response","141","221966","0.0-11.0-0.17","WgwXa048SZ","55cb79e0fdf99b3c26ae4bca","6617fad957f7c6a12ea16e26","6622ccb651ece09e1349733b","fixation cross","null","","","","","","","","","","","",""
"","null","html-keyboard-response","142","224470","0.0-11.0-1.17","WgwXa048SZ","55cb79e0fdf99b3c26ae4bca","6617fad957f7c6a12ea16e26","6622ccb651ece09e1349733b","
        <div id=""grid-container"">
        <!-- Grid items will be dynamically added here -->
    </div>    ","null","","","","","","","","","","","",""
"","2746","html-keyboard-response","143","224717","0.0-11.0-2.17","WgwXa048SZ","55cb79e0fdf99b3c26ae4bca","6617fad957f7c6a12ea16e26","6622ccb651ece09e1349733b","mask grid","p","","","","","Ontogenetic_Distractor_Nonthreat_target","2500","onmask","p","8","Ontogenetic","true","experimental"
"","null","html-keyboard-response","144","225431","0.0-11.0-0.18","WgwXa048SZ","55cb79e0fdf99b3c26ae4bca","6617fad957f7c6a12ea16e26","6622ccb651ece09e1349733b","fixation cross","null","","","","","","","","","","","",""
"","null","html-keyboard-response","145","227935","0.0-11.0-1.18","WgwXa048SZ","55cb79e0fdf99b3c26ae4bca","6617fad957f7c6a12ea16e26","6622ccb651ece09e1349733b","
        <div id=""grid-container"">
        <!-- Grid items will be dynamically added here -->
    </div>    ","null","","","","","","","","","","","",""
"","2761","html-keyboard-response","146","228195","0.0-11.0-2.18","WgwXa048SZ","55cb79e0fdf99b3c26ae4bca","6617fad957f7c6a12ea16e26","6622ccb651ece09e1349733b","mask grid","q","","","","","Ontogenetic_Distractor_Threat_target","2500","onmask","q","9","Ontogenetic","true","experimental"
"","null","html-keyboard-response","147","228903","0.0-11.0-0.19","WgwXa048SZ","55cb79e0fdf99b3c26ae4bca","6617fad957f7c6a12ea16e26","6622ccb651ece09e1349733b","fixation cross","null","","","","","","","","","","","",""
"","null","html-keyboard-response","148","231406","0.0-11.0-1.19","WgwXa048SZ","55cb79e0fdf99b3c26ae4bca","6617fad957f7c6a12ea16e26","6622ccb651ece09e1349733b","
        <div id=""grid-container"">
        <!-- Grid items will be dynamically added here -->
    </div>    ","null","","","","","","","","","","","",""
"","2745","html-keyboard-response","149","231652","0.0-11.0-2.19","WgwXa048SZ","55cb79e0fdf99b3c26ae4bca","6617fad957f7c6a12ea16e26","6622ccb651ece09e1349733b","mask grid","q","","","","","Ontogenetic_Distractor_Threat_target","2500","onmask","q","9","Ontogenetic","true","experimental"
"","null","html-keyboard-response","150","232358","0.0-11.0-0.20","WgwXa048SZ","55cb79e0fdf99b3c26ae4bca","6617fad957f7c6a12ea16e26","6622ccb651ece09e1349733b","fixation cross","null","","","","","","","","","","","",""
"","null","html-keyboard-response","151","234862","0.0-11.0-1.20","WgwXa048SZ","55cb79e0fdf99b3c26ae4bca","6617fad957f7c6a12ea16e26","6622ccb651ece09e1349733b","
        <div id=""grid-container"">
        <!-- Grid items will be dynamically added here -->
    </div>    ","null","","","","","","","","","","","",""
"","2721","html-keyboard-response","152","235084","0.0-11.0-2.20","WgwXa048SZ","55cb79e0fdf99b3c26ae4bca","6617fad957f7c6a12ea16e26","6622ccb651ece09e1349733b","mask grid","q","","","","","Ontogenetic_Distractor_Threat_target","2500","onmask","q","3","Ontogenetic","true","experimental"
"","null","html-keyboard-response","153","235790","0.0-11.0-0.21","WgwXa048SZ","55cb79e0fdf99b3c26ae4bca","6617fad957f7c6a12ea16e26","6622ccb651ece09e1349733b","fixation cross","null","","","","","","","","","","","",""
"","null","html-keyboard-response","154","238295","0.0-11.0-1.21","WgwXa048SZ","55cb79e0fdf99b3c26ae4bca","6617fad957f7c6a12ea16e26","6622ccb651ece09e1349733b","
        <div id=""grid-container"">
        <!-- Grid items will be dynamically added here -->
    </div>    ","null","","","","","","","","","","","",""
"","2848","html-keyboard-response","155","238643","0.0-11.0-2.21","WgwXa048SZ","55cb79e0fdf99b3c26ae4bca","6617fad957f7c6a12ea16e26","6622ccb651ece09e1349733b","mask grid"," ","","","","","Ontogenetic_Distractor_Nonthreat_target","2500","onmask","p","9","Ontogenetic","false","experimental"
"","null","html-keyboard-response","156","239351","0.0-11.0-0.22","WgwXa048SZ","55cb79e0fdf99b3c26ae4bca","6617fad957f7c6a12ea16e26","6622ccb651ece09e1349733b","fixation cross","null","","","","","","","","","","","",""
"","null","html-keyboard-response","157","241855","0.0-11.0-1.22","WgwXa048SZ","55cb79e0fdf99b3c26ae4bca","6617fad957f7c6a12ea16e26","6622ccb651ece09e1349733b","
        <div id=""grid-container"">
        <!-- Grid items will be dynamically added here -->
    </div>    ","null","","","","","","","","","","","",""
"","2745","html-keyboard-response","158","242100","0.0-11.0-2.22","WgwXa048SZ","55cb79e0fdf99b3c26ae4bca","6617fad957f7c6a12ea16e26","6622ccb651ece09e1349733b","mask grid","q","","","","","Ontogenetic_Distractor_Threat_target","2500","onmask","q","8","Ontogenetic","true","experimental"
"","null","html-keyboard-response","159","242807","0.0-11.0-0.23","WgwXa048SZ","55cb79e0fdf99b3c26ae4bca","6617fad957f7c6a12ea16e26","6622ccb651ece09e1349733b","fixation cross","null","","","","","","","","","","","",""
"","null","html-keyboard-response","160","245310","0.0-11.0-1.23","WgwXa048SZ","55cb79e0fdf99b3c26ae4bca","6617fad957f7c6a12ea16e26","6622ccb651ece09e1349733b","
        <div id=""grid-container"">
        <!-- Grid items will be dynamically added here -->
    </div>    ","null","","","","","","","","","","","",""
"","2561","html-keyboard-response","161","245372","0.0-11.0-2.23","WgwXa048SZ","55cb79e0fdf99b3c26ae4bca","6617fad957f7c6a12ea16e26","6622ccb651ece09e1349733b","mask grid","p","","","","","Ontogenetic_Distractor_Nonthreat_target","2500","onmask","p","3","Ontogenetic","true","experimental"
"","null","html-keyboard-response","162","246078","0.0-11.0-0.24","WgwXa048SZ","55cb79e0fdf99b3c26ae4bca","6617fad957f7c6a12ea16e26","6622ccb651ece09e1349733b","fixation cross","null","","","","","","","","","","","",""
"","null","html-keyboard-response","163","248582","0.0-11.0-1.24","WgwXa048SZ","55cb79e0fdf99b3c26ae4bca","6617fad957f7c6a12ea16e26","6622ccb651ece09e1349733b","
        <div id=""grid-container"">
        <!-- Grid items will be dynamically added here -->
    </div>    ","null","","","","","","","","","","","",""
"","2729","html-keyboard-response","164","248811","0.0-11.0-2.24","WgwXa048SZ","55cb79e0fdf99b3c26ae4bca","6617fad957f7c6a12ea16e26","6622ccb651ece09e1349733b","mask grid","q","","","","","Ontogenetic_Distractor_Threat_target","2500","onmask","q","9","Ontogenetic","true","experimental"
"","null","html-keyboard-response","165","249518","0.0-11.0-0.25","WgwXa048SZ","55cb79e0fdf99b3c26ae4bca","6617fad957f7c6a12ea16e26","6622ccb651ece09e1349733b","fixation cross","null","","","","","","","","","","","",""
"","null","html-keyboard-response","166","252022","0.0-11.0-1.25","WgwXa048SZ","55cb79e0fdf99b3c26ae4bca","6617fad957f7c6a12ea16e26","6622ccb651ece09e1349733b","
        <div id=""grid-container"">
        <!-- Grid items will be dynamically added here -->
    </div>    ","null","","","","","","","","","","","",""
"","2753","html-keyboard-response","167","252275","0.0-11.0-2.25","WgwXa048SZ","55cb79e0fdf99b3c26ae4bca","6617fad957f7c6a12ea16e26","6622ccb651ece09e1349733b","mask grid","q","","","","","Ontogenetic_Distractor_Threat_target","2500","onmask","q","9","Ontogenetic","true","experimental"
"","null","html-keyboard-response","168","252982","0.0-11.0-0.26","WgwXa048SZ","55cb79e0fdf99b3c26ae4bca","6617fad957f7c6a12ea16e26","6622ccb651ece09e1349733b","fixation cross","null","","","","","","","","","","","",""
"","null","html-keyboard-response","169","255488","0.0-11.0-1.26","WgwXa048SZ","55cb79e0fdf99b3c26ae4bca","6617fad957f7c6a12ea16e26","6622ccb651ece09e1349733b","
        <div id=""grid-container"">
        <!-- Grid items will be dynamically added here -->
    </div>    ","null","","","","","","","","","","","",""
"","2754","html-keyboard-response","170","255742","0.0-11.0-2.26","WgwXa048SZ","55cb79e0fdf99b3c26ae4bca","6617fad957f7c6a12ea16e26","6622ccb651ece09e1349733b","mask grid","p","","","","","Ontogenetic_Distractor_Nonthreat_target","2500","onmask","p","5","Ontogenetic","true","experimental"
"","null","html-keyboard-response","171","256448","0.0-11.0-0.27","WgwXa048SZ","55cb79e0fdf99b3c26ae4bca","6617fad957f7c6a12ea16e26","6622ccb651ece09e1349733b","fixation cross","null","","","","","","","","","","","",""
"","null","html-keyboard-response","172","258952","0.0-11.0-1.27","WgwXa048SZ","55cb79e0fdf99b3c26ae4bca","6617fad957f7c6a12ea16e26","6622ccb651ece09e1349733b","
        <div id=""grid-container"">
        <!-- Grid items will be dynamically added here -->
    </div>    ","null","","","","","","","","","","","",""
"","2664","html-keyboard-response","173","259116","0.0-11.0-2.27","WgwXa048SZ","55cb79e0fdf99b3c26ae4bca","6617fad957f7c6a12ea16e26","6622ccb651ece09e1349733b","mask grid","p","","","","","Ontogenetic_Distractor_Nonthreat_target","2500","onmask","p","6","Ontogenetic","true","experimental"
"","null","html-keyboard-response","174","259824","0.0-11.0-0.28","WgwXa048SZ","55cb79e0fdf99b3c26ae4bca","6617fad957f7c6a12ea16e26","6622ccb651ece09e1349733b","fixation cross","null","","","","","","","","","","","",""
"","null","html-keyboard-response","175","262328","0.0-11.0-1.28","WgwXa048SZ","55cb79e0fdf99b3c26ae4bca","6617fad957f7c6a12ea16e26","6622ccb651ece09e1349733b","
        <div id=""grid-container"">
        <!-- Grid items will be dynamically added here -->
    </div>    ","null","","","","","","","","","","","",""
"","3176","html-keyboard-response","176","263005","0.0-11.0-2.28","WgwXa048SZ","55cb79e0fdf99b3c26ae4bca","6617fad957f7c6a12ea16e26","6622ccb651ece09e1349733b","mask grid"," ","","","","","Ontogenetic_Distractor_notarget","2500","onmask"," ","9","Ontogenetic","true","experimental"
"","null","html-keyboard-response","177","263712","0.0-11.0-0.29","WgwXa048SZ","55cb79e0fdf99b3c26ae4bca","6617fad957f7c6a12ea16e26","6622ccb651ece09e1349733b","fixation cross","null","","","","","","","","","","","",""
"","null","html-keyboard-response","178","266216","0.0-11.0-1.29","WgwXa048SZ","55cb79e0fdf99b3c26ae4bca","6617fad957f7c6a12ea16e26","6622ccb651ece09e1349733b","
        <div id=""grid-container"">
        <!-- Grid items will be dynamically added here -->
    </div>    ","null","","","","","","","","","","","",""
"","2609","html-keyboard-response","179","266325","0.0-11.0-2.29","WgwXa048SZ","55cb79e0fdf99b3c26ae4bca","6617fad957f7c6a12ea16e26","6622ccb651ece09e1349733b","mask grid","p","","","","","Ontogenetic_Distractor_Nonthreat_target","2500","onmask","p","6","Ontogenetic","true","experimental"
"","null","html-keyboard-response","180","267032","0.0-11.0-0.30","WgwXa048SZ","55cb79e0fdf99b3c26ae4bca","6617fad957f7c6a12ea16e26","6622ccb651ece09e1349733b","fixation cross","null","","","","","","","","","","","",""
"","null","html-keyboard-response","181","269535","0.0-11.0-1.30","WgwXa048SZ","55cb79e0fdf99b3c26ae4bca","6617fad957f7c6a12ea16e26","6622ccb651ece09e1349733b","
        <div id=""grid-container"">
        <!-- Grid items will be dynamically added here -->
    </div>    ","null","","","","","","","","","","","",""
"","2785","html-keyboard-response","182","269821","0.0-11.0-2.30","WgwXa048SZ","55cb79e0fdf99b3c26ae4bca","6617fad957f7c6a12ea16e26","6622ccb651ece09e1349733b","mask grid"," ","","","","","Ontogenetic_Distractor_notarget","2500","onmask"," ","8","Ontogenetic","true","experimental"
"","null","html-keyboard-response","183","270527","0.0-11.0-0.31","WgwXa048SZ","55cb79e0fdf99b3c26ae4bca","6617fad957f7c6a12ea16e26","6622ccb651ece09e1349733b","fixation cross","null","","","","","","","","","","","",""
"","null","html-keyboard-response","184","273031","0.0-11.0-1.31","WgwXa048SZ","55cb79e0fdf99b3c26ae4bca","6617fad957f7c6a12ea16e26","6622ccb651ece09e1349733b","
        <div id=""grid-container"">
        <!-- Grid items will be dynamically added here -->
    </div>    ","null","","","","","","","","","","","",""
"","2744","html-keyboard-response","185","273276","0.0-11.0-2.31","WgwXa048SZ","55cb79e0fdf99b3c26ae4bca","6617fad957f7c6a12ea16e26","6622ccb651ece09e1349733b","mask grid","q","","","","","Ontogenetic_Distractor_Threat_target","2500","onmask","q","4","Ontogenetic","true","experimental"
"","null","html-keyboard-response","186","273983","0.0-11.0-0.32","WgwXa048SZ","55cb79e0fdf99b3c26ae4bca","6617fad957f7c6a12ea16e26","6622ccb651ece09e1349733b","fixation cross","null","","","","","","","","","","","",""
"","null","html-keyboard-response","187","276488","0.0-11.0-1.32","WgwXa048SZ","55cb79e0fdf99b3c26ae4bca","6617fad957f7c6a12ea16e26","6622ccb651ece09e1349733b","
        <div id=""grid-container"">
        <!-- Grid items will be dynamically added here -->
    </div>    ","null","","","","","","","","","","","",""
"","2769","html-keyboard-response","188","276757","0.0-11.0-2.32","WgwXa048SZ","55cb79e0fdf99b3c26ae4bca","6617fad957f7c6a12ea16e26","6622ccb651ece09e1349733b","mask grid","p","","","","","Ontogenetic_Distractor_Nonthreat_target","2500","onmask","p","3","Ontogenetic","true","experimental"
"","null","html-keyboard-response","189","277464","0.0-11.0-0.33","WgwXa048SZ","55cb79e0fdf99b3c26ae4bca","6617fad957f7c6a12ea16e26","6622ccb651ece09e1349733b","fixation cross","null","","","","","","","","","","","",""
"","null","html-keyboard-response","190","279968","0.0-11.0-1.33","WgwXa048SZ","55cb79e0fdf99b3c26ae4bca","6617fad957f7c6a12ea16e26","6622ccb651ece09e1349733b","
        <div id=""grid-container"">
        <!-- Grid items will be dynamically added here -->
    </div>    ","null","","","","","","","","","","","",""
"","2792","html-keyboard-response","191","280260","0.0-11.0-2.33","WgwXa048SZ","55cb79e0fdf99b3c26ae4bca","6617fad957f7c6a12ea16e26","6622ccb651ece09e1349733b","mask grid","q","","","","","Ontogenetic_Distractor_Threat_target","2500","onmask","q","3","Ontogenetic","true","experimental"
"","null","html-keyboard-response","192","280968","0.0-11.0-0.34","WgwXa048SZ","55cb79e0fdf99b3c26ae4bca","6617fad957f7c6a12ea16e26","6622ccb651ece09e1349733b","fixation cross","null","","","","","","","","","","","",""
"","null","html-keyboard-response","193","283472","0.0-11.0-1.34","WgwXa048SZ","55cb79e0fdf99b3c26ae4bca","6617fad957f7c6a12ea16e26","6622ccb651ece09e1349733b","
        <div id=""grid-container"">
        <!-- Grid items will be dynamically added here -->
    </div>    ","null","","","","","","","","","","","",""
"","2752","html-keyboard-response","194","283724","0.0-11.0-2.34","WgwXa048SZ","55cb79e0fdf99b3c26ae4bca","6617fad957f7c6a12ea16e26","6622ccb651ece09e1349733b","mask grid","p","","","","","Ontogenetic_Distractor_Nonthreat_target","2500","onmask","p","6","Ontogenetic","true","experimental"
"","null","html-keyboard-response","195","284432","0.0-11.0-0.35","WgwXa048SZ","55cb79e0fdf99b3c26ae4bca","6617fad957f7c6a12ea16e26","6622ccb651ece09e1349733b","fixation cross","null","","","","","","","","","","","",""
"","null","html-keyboard-response","196","286936","0.0-11.0-1.35","WgwXa048SZ","55cb79e0fdf99b3c26ae4bca","6617fad957f7c6a12ea16e26","6622ccb651ece09e1349733b","
        <div id=""grid-container"">
        <!-- Grid items will be dynamically added here -->
    </div>    ","null","","","","","","","","","","","",""
"","2784","html-keyboard-response","197","287221","0.0-11.0-2.35","WgwXa048SZ","55cb79e0fdf99b3c26ae4bca","6617fad957f7c6a12ea16e26","6622ccb651ece09e1349733b","mask grid","q","","","","","Ontogenetic_Distractor_Threat_target","2500","onmask","q","6","Ontogenetic","true","experimental"
"","null","html-keyboard-response","198","287928","0.0-11.0-0.36","WgwXa048SZ","55cb79e0fdf99b3c26ae4bca","6617fad957f7c6a12ea16e26","6622ccb651ece09e1349733b","fixation cross","null","","","","","","","","","","","",""
"","null","html-keyboard-response","199","290432","0.0-11.0-1.36","WgwXa048SZ","55cb79e0fdf99b3c26ae4bca","6617fad957f7c6a12ea16e26","6622ccb651ece09e1349733b","
        <div id=""grid-container"">
        <!-- Grid items will be dynamically added here -->
    </div>    ","null","","","","","","","","","","","",""
"","2783","html-keyboard-response","200","290716","0.0-11.0-2.36","WgwXa048SZ","55cb79e0fdf99b3c26ae4bca","6617fad957f7c6a12ea16e26","6622ccb651ece09e1349733b","mask grid","p","","","","","Ontogenetic_Distractor_Nonthreat_target","2500","onmask","p","3","Ontogenetic","true","experimental"
"","null","html-keyboard-response","201","291424","0.0-11.0-0.37","WgwXa048SZ","55cb79e0fdf99b3c26ae4bca","6617fad957f7c6a12ea16e26","6622ccb651ece09e1349733b","fixation cross","null","","","","","","","","","","","",""
"","null","html-keyboard-response","202","293928","0.0-11.0-1.37","WgwXa048SZ","55cb79e0fdf99b3c26ae4bca","6617fad957f7c6a12ea16e26","6622ccb651ece09e1349733b","
        <div id=""grid-container"">
        <!-- Grid items will be dynamically added here -->
    </div>    ","null","","","","","","","","","","","",""
"","2719","html-keyboard-response","203","294147","0.0-11.0-2.37","WgwXa048SZ","55cb79e0fdf99b3c26ae4bca","6617fad957f7c6a12ea16e26","6622ccb651ece09e1349733b","mask grid","q","","","","","Ontogenetic_Distractor_Threat_target","2500","onmask","q","7","Ontogenetic","true","experimental"
"","null","html-keyboard-response","204","294856","0.0-11.0-0.38","WgwXa048SZ","55cb79e0fdf99b3c26ae4bca","6617fad957f7c6a12ea16e26","6622ccb651ece09e1349733b","fixation cross","null","","","","","","","","","","","",""
"","null","html-keyboard-response","205","297360","0.0-11.0-1.38","WgwXa048SZ","55cb79e0fdf99b3c26ae4bca","6617fad957f7c6a12ea16e26","6622ccb651ece09e1349733b","
        <div id=""grid-container"">
        <!-- Grid items will be dynamically added here -->
    </div>    ","null","","","","","","","","","","","",""
"","2760","html-keyboard-response","206","297621","0.0-11.0-2.38","WgwXa048SZ","55cb79e0fdf99b3c26ae4bca","6617fad957f7c6a12ea16e26","6622ccb651ece09e1349733b","mask grid","q","","","","","Ontogenetic_Distractor_Threat_target","2500","onmask","q","8","Ontogenetic","true","experimental"
"","null","html-keyboard-response","207","298328","0.0-11.0-0.39","WgwXa048SZ","55cb79e0fdf99b3c26ae4bca","6617fad957f7c6a12ea16e26","6622ccb651ece09e1349733b","fixation cross","null","","","","","","","","","","","",""
"","null","html-keyboard-response","208","300831","0.0-11.0-1.39","WgwXa048SZ","55cb79e0fdf99b3c26ae4bca","6617fad957f7c6a12ea16e26","6622ccb651ece09e1349733b","
        <div id=""grid-container"">
        <!-- Grid items will be dynamically added here -->
    </div>    ","null","","","","","","","","","","","",""
"","2807","html-keyboard-response","209","301139","0.0-11.0-2.39","WgwXa048SZ","55cb79e0fdf99b3c26ae4bca","6617fad957f7c6a12ea16e26","6622ccb651ece09e1349733b","mask grid","q","","","","","Ontogenetic_Distractor_Threat_target","2500","onmask","q","9","Ontogenetic","true","experimental"
"","4468","html-keyboard-response","210","305844","0.0-12.0","WgwXa048SZ","55cb79e0fdf99b3c26ae4bca","6617fad957f7c6a12ea16e26","6622ccb651ece09e1349733b","break screen"," ","","","","","","","","","","","",""
"","null","html-keyboard-response","211","308384","0.0-13.0-0.0","WgwXa048SZ","55cb79e0fdf99b3c26ae4bca","6617fad957f7c6a12ea16e26","6622ccb651ece09e1349733b","fixation cross","null","","","","","","","","","","","",""
"","null","html-keyboard-response","212","310888","0.0-13.0-1.0","WgwXa048SZ","55cb79e0fdf99b3c26ae4bca","6617fad957f7c6a12ea16e26","6622ccb651ece09e1349733b","
        <div id=""grid-container"">
        <!-- Grid items will be dynamically added here -->
    </div>    ","null","","","","","","","","","","","",""
"","2568","html-keyboard-response","213","310956","0.0-13.0-2.0","WgwXa048SZ","55cb79e0fdf99b3c26ae4bca","6617fad957f7c6a12ea16e26","6622ccb651ece09e1349733b","mask grid","q","","","","","Phylogenetic_Distractor_Threat_target","2500","onmask","q","6","Phylogenetic","true","experimental"
"","null","html-keyboard-response","214","311664","0.0-13.0-0.1","WgwXa048SZ","55cb79e0fdf99b3c26ae4bca","6617fad957f7c6a12ea16e26","6622ccb651ece09e1349733b","fixation cross","null","","","","","","","","","","","",""
"","1531","html-keyboard-response","215","313195","0.0-13.0-1.1","WgwXa048SZ","55cb79e0fdf99b3c26ae4bca","6617fad957f7c6a12ea16e26","6622ccb651ece09e1349733b","image grid","p","","","","","Phylogenetic_Distractor_Nonthreat_target","2500","ongrid","p","9","Phylogenetic","true","experimental"
"","null","html-keyboard-response","216","313352","0.0-13.0-2.1","WgwXa048SZ","55cb79e0fdf99b3c26ae4bca","6617fad957f7c6a12ea16e26","6622ccb651ece09e1349733b","
    <div id=""grid-container"">
        <!-- Grid items will be dynamically added here -->
    </div>    ","null","","","","","","","","","","","",""
"","null","html-keyboard-response","217","314064","0.0-13.0-0.2","WgwXa048SZ","55cb79e0fdf99b3c26ae4bca","6617fad957f7c6a12ea16e26","6622ccb651ece09e1349733b","fixation cross","null","","","","","","","","","","","",""
"","null","html-keyboard-response","218","316569","0.0-13.0-1.2","WgwXa048SZ","55cb79e0fdf99b3c26ae4bca","6617fad957f7c6a12ea16e26","6622ccb651ece09e1349733b","
        <div id=""grid-container"">
        <!-- Grid items will be dynamically added here -->
    </div>    ","null","","","","","","","","","","","",""
"","2751","html-keyboard-response","219","316821","0.0-13.0-2.2","WgwXa048SZ","55cb79e0fdf99b3c26ae4bca","6617fad957f7c6a12ea16e26","6622ccb651ece09e1349733b","mask grid","q","","","","","Phylogenetic_Distractor_Threat_target","2500","onmask","q","7","Phylogenetic","true","experimental"
"","null","html-keyboard-response","220","317529","0.0-13.0-0.3","WgwXa048SZ","55cb79e0fdf99b3c26ae4bca","6617fad957f7c6a12ea16e26","6622ccb651ece09e1349733b","fixation cross","null","","","","","","","","","","","",""
"","null","html-keyboard-response","221","320033","0.0-13.0-1.3","WgwXa048SZ","55cb79e0fdf99b3c26ae4bca","6617fad957f7c6a12ea16e26","6622ccb651ece09e1349733b","
        <div id=""grid-container"">
        <!-- Grid items will be dynamically added here -->
    </div>    ","null","","","","","","","","","","","",""
"","2775","html-keyboard-response","222","320309","0.0-13.0-2.3","WgwXa048SZ","55cb79e0fdf99b3c26ae4bca","6617fad957f7c6a12ea16e26","6622ccb651ece09e1349733b","mask grid","p","","","","","Phylogenetic_Distractor_Nonthreat_target","2500","onmask","p","2","Phylogenetic","true","experimental"
"","null","html-keyboard-response","223","321017","0.0-13.0-0.4","WgwXa048SZ","55cb79e0fdf99b3c26ae4bca","6617fad957f7c6a12ea16e26","6622ccb651ece09e1349733b","fixation cross","null","","","","","","","","","","","",""
"","null","html-keyboard-response","224","323521","0.0-13.0-1.4","WgwXa048SZ","55cb79e0fdf99b3c26ae4bca","6617fad957f7c6a12ea16e26","6622ccb651ece09e1349733b","
        <div id=""grid-container"">
        <!-- Grid items will be dynamically added here -->
    </div>    ","null","","","","","","","","","","","",""
"","2768","html-keyboard-response","225","323790","0.0-13.0-2.4","WgwXa048SZ","55cb79e0fdf99b3c26ae4bca","6617fad957f7c6a12ea16e26","6622ccb651ece09e1349733b","mask grid","q","","","","","Phylogenetic_Distractor_Threat_target","2500","onmask","q","2","Phylogenetic","true","experimental"
"","null","html-keyboard-response","226","324497","0.0-13.0-0.5","WgwXa048SZ","55cb79e0fdf99b3c26ae4bca","6617fad957f7c6a12ea16e26","6622ccb651ece09e1349733b","fixation cross","null","","","","","","","","","","","",""
"","null","html-keyboard-response","227","327001","0.0-13.0-1.5","WgwXa048SZ","55cb79e0fdf99b3c26ae4bca","6617fad957f7c6a12ea16e26","6622ccb651ece09e1349733b","
        <div id=""grid-container"">
        <!-- Grid items will be dynamically added here -->
    </div>    ","null","","","","","","","","","","","",""
"","2743","html-keyboard-response","228","327244","0.0-13.0-2.5","WgwXa048SZ","55cb79e0fdf99b3c26ae4bca","6617fad957f7c6a12ea16e26","6622ccb651ece09e1349733b","mask grid","p","","","","","Phylogenetic_Distractor_Nonthreat_target","2500","onmask","p","2","Phylogenetic","true","experimental"
"","null","html-keyboard-response","229","327953","0.0-13.0-0.6","WgwXa048SZ","55cb79e0fdf99b3c26ae4bca","6617fad957f7c6a12ea16e26","6622ccb651ece09e1349733b","fixation cross","null","","","","","","","","","","","",""
"","null","html-keyboard-response","230","330457","0.0-13.0-1.6","WgwXa048SZ","55cb79e0fdf99b3c26ae4bca","6617fad957f7c6a12ea16e26","6622ccb651ece09e1349733b","
        <div id=""grid-container"">
        <!-- Grid items will be dynamically added here -->
    </div>    ","null","","","","","","","","","","","",""
"","2735","html-keyboard-response","231","330693","0.0-13.0-2.6","WgwXa048SZ","55cb79e0fdf99b3c26ae4bca","6617fad957f7c6a12ea16e26","6622ccb651ece09e1349733b","mask grid","q","","","","","Phylogenetic_Distractor_Threat_target","2500","onmask","q","2","Phylogenetic","true","experimental"
"","null","html-keyboard-response","232","331401","0.0-13.0-0.7","WgwXa048SZ","55cb79e0fdf99b3c26ae4bca","6617fad957f7c6a12ea16e26","6622ccb651ece09e1349733b","fixation cross","null","","","","","","","","","","","",""
"","null","html-keyboard-response","233","333905","0.0-13.0-1.7","WgwXa048SZ","55cb79e0fdf99b3c26ae4bca","6617fad957f7c6a12ea16e26","6622ccb651ece09e1349733b","
        <div id=""grid-container"">
        <!-- Grid items will be dynamically added here -->
    </div>    ","null","","","","","","","","","","","",""
"","2719","html-keyboard-response","234","334125","0.0-13.0-2.7","WgwXa048SZ","55cb79e0fdf99b3c26ae4bca","6617fad957f7c6a12ea16e26","6622ccb651ece09e1349733b","mask grid","q","","","","","Phylogenetic_Distractor_Threat_target","2500","onmask","q","1","Phylogenetic","true","experimental"
"","null","html-keyboard-response","235","334833","0.0-13.0-0.8","WgwXa048SZ","55cb79e0fdf99b3c26ae4bca","6617fad957f7c6a12ea16e26","6622ccb651ece09e1349733b","fixation cross","null","","","","","","","","","","","",""
"","null","html-keyboard-response","236","337337","0.0-13.0-1.8","WgwXa048SZ","55cb79e0fdf99b3c26ae4bca","6617fad957f7c6a12ea16e26","6622ccb651ece09e1349733b","
        <div id=""grid-container"">
        <!-- Grid items will be dynamically added here -->
    </div>    ","null","","","","","","","","","","","",""
"","2798","html-keyboard-response","237","337636","0.0-13.0-2.8","WgwXa048SZ","55cb79e0fdf99b3c26ae4bca","6617fad957f7c6a12ea16e26","6622ccb651ece09e1349733b","mask grid"," ","","","","","Phylogenetic_Distractor_notarget","2500","onmask"," ","5","Phylogenetic","true","experimental"
"","null","html-keyboard-response","238","338345","0.0-13.0-0.9","WgwXa048SZ","55cb79e0fdf99b3c26ae4bca","6617fad957f7c6a12ea16e26","6622ccb651ece09e1349733b","fixation cross","null","","","","","","","","","","","",""
"","null","html-keyboard-response","239","340850","0.0-13.0-1.9","WgwXa048SZ","55cb79e0fdf99b3c26ae4bca","6617fad957f7c6a12ea16e26","6622ccb651ece09e1349733b","
        <div id=""grid-container"">
        <!-- Grid items will be dynamically added here -->
    </div>    ","null","","","","","","","","","","","",""
"","2758","html-keyboard-response","240","341108","0.0-13.0-2.9","WgwXa048SZ","55cb79e0fdf99b3c26ae4bca","6617fad957f7c6a12ea16e26","6622ccb651ece09e1349733b","mask grid","p","","","","","Phylogenetic_Distractor_Nonthreat_target","2500","onmask","p","4","Phylogenetic","true","experimental"
"","null","html-keyboard-response","241","341817","0.0-13.0-0.10","WgwXa048SZ","55cb79e0fdf99b3c26ae4bca","6617fad957f7c6a12ea16e26","6622ccb651ece09e1349733b","fixation cross","null","","","","","","","","","","","",""
"","null","html-keyboard-response","242","344322","0.0-13.0-1.10","WgwXa048SZ","55cb79e0fdf99b3c26ae4bca","6617fad957f7c6a12ea16e26","6622ccb651ece09e1349733b","
        <div id=""grid-container"">
        <!-- Grid items will be dynamically added here -->
    </div>    ","null","","","","","","","","","","","",""
"","2767","html-keyboard-response","243","344589","0.0-13.0-2.10","WgwXa048SZ","55cb79e0fdf99b3c26ae4bca","6617fad957f7c6a12ea16e26","6622ccb651ece09e1349733b","mask grid","p","","","","","Phylogenetic_Distractor_Nonthreat_target","2500","onmask","p","5","Phylogenetic","true","experimental"
"","null","html-keyboard-response","244","345298","0.0-13.0-0.11","WgwXa048SZ","55cb79e0fdf99b3c26ae4bca","6617fad957f7c6a12ea16e26","6622ccb651ece09e1349733b","fixation cross","null","","","","","","","","","","","",""
"","null","html-keyboard-response","245","347802","0.0-13.0-1.11","WgwXa048SZ","55cb79e0fdf99b3c26ae4bca","6617fad957f7c6a12ea16e26","6622ccb651ece09e1349733b","
        <div id=""grid-container"">
        <!-- Grid items will be dynamically added here -->
    </div>    ","null","","","","","","","","","","","",""
"","2734","html-keyboard-response","246","348035","0.0-13.0-2.11","WgwXa048SZ","55cb79e0fdf99b3c26ae4bca","6617fad957f7c6a12ea16e26","6622ccb651ece09e1349733b","mask grid","p","","","","","Phylogenetic_Distractor_Nonthreat_target","2500","onmask","p","7","Phylogenetic","true","experimental"
"","null","html-keyboard-response","247","348746","0.0-13.0-0.12","WgwXa048SZ","55cb79e0fdf99b3c26ae4bca","6617fad957f7c6a12ea16e26","6622ccb651ece09e1349733b","fixation cross","null","","","","","","","","","","","",""
"","null","html-keyboard-response","248","351249","0.0-13.0-1.12","WgwXa048SZ","55cb79e0fdf99b3c26ae4bca","6617fad957f7c6a12ea16e26","6622ccb651ece09e1349733b","
        <div id=""grid-container"">
        <!-- Grid items will be dynamically added here -->
    </div>    ","null","","","","","","","","","","","",""
"","2743","html-keyboard-response","249","351492","0.0-13.0-2.12","WgwXa048SZ","55cb79e0fdf99b3c26ae4bca","6617fad957f7c6a12ea16e26","6622ccb651ece09e1349733b","mask grid","q","","","","","Phylogenetic_Distractor_Threat_target","2500","onmask","q","2","Phylogenetic","true","experimental"
"","null","html-keyboard-response","250","352201","0.0-13.0-0.13","WgwXa048SZ","55cb79e0fdf99b3c26ae4bca","6617fad957f7c6a12ea16e26","6622ccb651ece09e1349733b","fixation cross","null","","","","","","","","","","","",""
"","null","html-keyboard-response","251","354705","0.0-13.0-1.13","WgwXa048SZ","55cb79e0fdf99b3c26ae4bca","6617fad957f7c6a12ea16e26","6622ccb651ece09e1349733b","
        <div id=""grid-container"">
        <!-- Grid items will be dynamically added here -->
    </div>    ","null","","","","","","","","","","","",""
"","2720","html-keyboard-response","252","354925","0.0-13.0-2.13","WgwXa048SZ","55cb79e0fdf99b3c26ae4bca","6617fad957f7c6a12ea16e26","6622ccb651ece09e1349733b","mask grid","q","","","","","Phylogenetic_Distractor_Threat_target","2500","onmask","q","8","Phylogenetic","true","experimental"
"","null","html-keyboard-response","253","355633","0.0-13.0-0.14","WgwXa048SZ","55cb79e0fdf99b3c26ae4bca","6617fad957f7c6a12ea16e26","6622ccb651ece09e1349733b","fixation cross","null","","","","","","","","","","","",""
"","2179","html-keyboard-response","254","357812","0.0-13.0-1.14","WgwXa048SZ","55cb79e0fdf99b3c26ae4bca","6617fad957f7c6a12ea16e26","6622ccb651ece09e1349733b","image grid","p","","","","","Phylogenetic_Distractor_Nonthreat_target","2500","ongrid","p","5","Phylogenetic","true","experimental"
"","null","html-keyboard-response","255","357969","0.0-13.0-2.14","WgwXa048SZ","55cb79e0fdf99b3c26ae4bca","6617fad957f7c6a12ea16e26","6622ccb651ece09e1349733b","
    <div id=""grid-container"">
        <!-- Grid items will be dynamically added here -->
    </div>    ","null","","","","","","","","","","","",""
"","null","html-keyboard-response","256","358681","0.0-13.0-0.15","WgwXa048SZ","55cb79e0fdf99b3c26ae4bca","6617fad957f7c6a12ea16e26","6622ccb651ece09e1349733b","fixation cross","null","","","","","","","","","","","",""
"","null","html-keyboard-response","257","361185","0.0-13.0-1.15","WgwXa048SZ","55cb79e0fdf99b3c26ae4bca","6617fad957f7c6a12ea16e26","6622ccb651ece09e1349733b","
        <div id=""grid-container"">
        <!-- Grid items will be dynamically added here -->
    </div>    ","null","","","","","","","","","","","",""
"","2518","html-keyboard-response","258","361203","0.0-13.0-2.15","WgwXa048SZ","55cb79e0fdf99b3c26ae4bca","6617fad957f7c6a12ea16e26","6622ccb651ece09e1349733b","mask grid","q","","","","","Phylogenetic_Distractor_Threat_target","2500","onmask","q","7","Phylogenetic","true","experimental"
"","null","html-keyboard-response","259","361913","0.0-13.0-0.16","WgwXa048SZ","55cb79e0fdf99b3c26ae4bca","6617fad957f7c6a12ea16e26","6622ccb651ece09e1349733b","fixation cross","null","","","","","","","","","","","",""
"","null","html-keyboard-response","260","364417","0.0-13.0-1.16","WgwXa048SZ","55cb79e0fdf99b3c26ae4bca","6617fad957f7c6a12ea16e26","6622ccb651ece09e1349733b","
        <div id=""grid-container"">
        <!-- Grid items will be dynamically added here -->
    </div>    ","null","","","","","","","","","","","",""
"","2750","html-keyboard-response","261","364668","0.0-13.0-2.16","WgwXa048SZ","55cb79e0fdf99b3c26ae4bca","6617fad957f7c6a12ea16e26","6622ccb651ece09e1349733b","mask grid","q","","","","","Phylogenetic_Distractor_Threat_target","2500","onmask","q","9","Phylogenetic","true","experimental"
"","null","html-keyboard-response","262","365377","0.0-13.0-0.17","WgwXa048SZ","55cb79e0fdf99b3c26ae4bca","6617fad957f7c6a12ea16e26","6622ccb651ece09e1349733b","fixation cross","null","","","","","","","","","","","",""
"","null","html-keyboard-response","263","367881","0.0-13.0-1.17","WgwXa048SZ","55cb79e0fdf99b3c26ae4bca","6617fad957f7c6a12ea16e26","6622ccb651ece09e1349733b","
        <div id=""grid-container"">
        <!-- Grid items will be dynamically added here -->
    </div>    ","null","","","","","","","","","","","",""
"","2727","html-keyboard-response","264","368109","0.0-13.0-2.17","WgwXa048SZ","55cb79e0fdf99b3c26ae4bca","6617fad957f7c6a12ea16e26","6622ccb651ece09e1349733b","mask grid","p","","","","","Phylogenetic_Distractor_Nonthreat_target","2500","onmask","p","3","Phylogenetic","true","experimental"
"","null","html-keyboard-response","265","368817","0.0-13.0-0.18","WgwXa048SZ","55cb79e0fdf99b3c26ae4bca","6617fad957f7c6a12ea16e26","6622ccb651ece09e1349733b","fixation cross","null","","","","","","","","","","","",""
"","null","html-keyboard-response","266","371322","0.0-13.0-1.18","WgwXa048SZ","55cb79e0fdf99b3c26ae4bca","6617fad957f7c6a12ea16e26","6622ccb651ece09e1349733b","
        <div id=""grid-container"">
        <!-- Grid items will be dynamically added here -->
    </div>    ","null","","","","","","","","","","","",""
"","2734","html-keyboard-response","267","371556","0.0-13.0-2.18","WgwXa048SZ","55cb79e0fdf99b3c26ae4bca","6617fad957f7c6a12ea16e26","6622ccb651ece09e1349733b","mask grid","q","","","","","Phylogenetic_Distractor_Threat_target","2500","onmask","q","1","Phylogenetic","true","experimental"
"","null","html-keyboard-response","268","372265","0.0-13.0-0.19","WgwXa048SZ","55cb79e0fdf99b3c26ae4bca","6617fad957f7c6a12ea16e26","6622ccb651ece09e1349733b","fixation cross","null","","","","","","","","","","","",""
"","null","html-keyboard-response","269","374770","0.0-13.0-1.19","WgwXa048SZ","55cb79e0fdf99b3c26ae4bca","6617fad957f7c6a12ea16e26","6622ccb651ece09e1349733b","
        <div id=""grid-container"">
        <!-- Grid items will be dynamically added here -->
    </div>    ","null","","","","","","","","","","","",""
"","2742","html-keyboard-response","270","375012","0.0-13.0-2.19","WgwXa048SZ","55cb79e0fdf99b3c26ae4bca","6617fad957f7c6a12ea16e26","6622ccb651ece09e1349733b","mask grid","p","","","","","Phylogenetic_Distractor_Nonthreat_target","2500","onmask","p","9","Phylogenetic","true","experimental"
"","null","html-keyboard-response","271","375722","0.0-13.0-0.20","WgwXa048SZ","55cb79e0fdf99b3c26ae4bca","6617fad957f7c6a12ea16e26","6622ccb651ece09e1349733b","fixation cross","null","","","","","","","","","","","",""
"","null","html-keyboard-response","272","378227","0.0-13.0-1.20","WgwXa048SZ","55cb79e0fdf99b3c26ae4bca","6617fad957f7c6a12ea16e26","6622ccb651ece09e1349733b","
        <div id=""grid-container"">
        <!-- Grid items will be dynamically added here -->
    </div>    ","null","","","","","","","","","","","",""
"","2590","html-keyboard-response","273","378317","0.0-13.0-2.20","WgwXa048SZ","55cb79e0fdf99b3c26ae4bca","6617fad957f7c6a12ea16e26","6622ccb651ece09e1349733b","mask grid","q","","","","","Phylogenetic_Distractor_Threat_target","2500","onmask","q","6","Phylogenetic","true","experimental"
"","null","html-keyboard-response","274","379027","0.0-13.0-0.21","WgwXa048SZ","55cb79e0fdf99b3c26ae4bca","6617fad957f7c6a12ea16e26","6622ccb651ece09e1349733b","fixation cross","null","","","","","","","","","","","",""
"","null","html-keyboard-response","275","381531","0.0-13.0-1.21","WgwXa048SZ","55cb79e0fdf99b3c26ae4bca","6617fad957f7c6a12ea16e26","6622ccb651ece09e1349733b","
        <div id=""grid-container"">
        <!-- Grid items will be dynamically added here -->
    </div>    ","null","","","","","","","","","","","",""
"","2734","html-keyboard-response","276","381765","0.0-13.0-2.21","WgwXa048SZ","55cb79e0fdf99b3c26ae4bca","6617fad957f7c6a12ea16e26","6622ccb651ece09e1349733b","mask grid","q","","","","","Phylogenetic_Distractor_Threat_target","2500","onmask","q","1","Phylogenetic","true","experimental"
"","null","html-keyboard-response","277","382474","0.0-13.0-0.22","WgwXa048SZ","55cb79e0fdf99b3c26ae4bca","6617fad957f7c6a12ea16e26","6622ccb651ece09e1349733b","fixation cross","null","","","","","","","","","","","",""
"","null","html-keyboard-response","278","384979","0.0-13.0-1.22","WgwXa048SZ","55cb79e0fdf99b3c26ae4bca","6617fad957f7c6a12ea16e26","6622ccb651ece09e1349733b","
        <div id=""grid-container"">
        <!-- Grid items will be dynamically added here -->
    </div>    ","null","","","","","","","","","","","",""
"","2726","html-keyboard-response","279","385205","0.0-13.0-2.22","WgwXa048SZ","55cb79e0fdf99b3c26ae4bca","6617fad957f7c6a12ea16e26","6622ccb651ece09e1349733b","mask grid","p","","","","","Phylogenetic_Distractor_Nonthreat_target","2500","onmask","p","4","Phylogenetic","true","experimental"
"","null","html-keyboard-response","280","385915","0.0-13.0-0.23","WgwXa048SZ","55cb79e0fdf99b3c26ae4bca","6617fad957f7c6a12ea16e26","6622ccb651ece09e1349733b","fixation cross","null","","","","","","","","","","","",""
"","null","html-keyboard-response","281","388419","0.0-13.0-1.23","WgwXa048SZ","55cb79e0fdf99b3c26ae4bca","6617fad957f7c6a12ea16e26","6622ccb651ece09e1349733b","
        <div id=""grid-container"">
        <!-- Grid items will be dynamically added here -->
    </div>    ","null","","","","","","","","","","","",""
"","2783","html-keyboard-response","282","388702","0.0-13.0-2.23","WgwXa048SZ","55cb79e0fdf99b3c26ae4bca","6617fad957f7c6a12ea16e26","6622ccb651ece09e1349733b","mask grid"," ","","","","","Phylogenetic_Distractor_notarget","2500","onmask"," ","1","Phylogenetic","true","experimental"
"","null","html-keyboard-response","283","389411","0.0-13.0-0.24","WgwXa048SZ","55cb79e0fdf99b3c26ae4bca","6617fad957f7c6a12ea16e26","6622ccb651ece09e1349733b","fixation cross","null","","","","","","","","","","","",""
"","2105","html-keyboard-response","284","391517","0.0-13.0-1.24","WgwXa048SZ","55cb79e0fdf99b3c26ae4bca","6617fad957f7c6a12ea16e26","6622ccb651ece09e1349733b","image grid","p","","","","","Phylogenetic_Distractor_Nonthreat_target","2500","ongrid","p","2","Phylogenetic","true","experimental"
"","null","html-keyboard-response","285","391675","0.0-13.0-2.24","WgwXa048SZ","55cb79e0fdf99b3c26ae4bca","6617fad957f7c6a12ea16e26","6622ccb651ece09e1349733b","
    <div id=""grid-container"">
        <!-- Grid items will be dynamically added here -->
    </div>    ","null","","","","","","","","","","","",""
"","null","html-keyboard-response","286","392387","0.0-13.0-0.25","WgwXa048SZ","55cb79e0fdf99b3c26ae4bca","6617fad957f7c6a12ea16e26","6622ccb651ece09e1349733b","fixation cross","null","","","","","","","","","","","",""
"","2401","html-keyboard-response","287","394788","0.0-13.0-1.25","WgwXa048SZ","55cb79e0fdf99b3c26ae4bca","6617fad957f7c6a12ea16e26","6622ccb651ece09e1349733b","image grid","p","","","","","Phylogenetic_Distractor_Nonthreat_target","2500","ongrid","p","8","Phylogenetic","true","experimental"
"","null","html-keyboard-response","288","394947","0.0-13.0-2.25","WgwXa048SZ","55cb79e0fdf99b3c26ae4bca","6617fad957f7c6a12ea16e26","6622ccb651ece09e1349733b","
    <div id=""grid-container"">
        <!-- Grid items will be dynamically added here -->
    </div>    ","null","","","","","","","","","","","",""
"","null","html-keyboard-response","289","395659","0.0-13.0-0.26","WgwXa048SZ","55cb79e0fdf99b3c26ae4bca","6617fad957f7c6a12ea16e26","6622ccb651ece09e1349733b","fixation cross","null","","","","","","","","","","","",""
"","null","html-keyboard-response","290","398163","0.0-13.0-1.26","WgwXa048SZ","55cb79e0fdf99b3c26ae4bca","6617fad957f7c6a12ea16e26","6622ccb651ece09e1349733b","
        <div id=""grid-container"">
        <!-- Grid items will be dynamically added here -->
    </div>    ","null","","","","","","","","","","","",""
"","2725","html-keyboard-response","291","398388","0.0-13.0-2.26","WgwXa048SZ","55cb79e0fdf99b3c26ae4bca","6617fad957f7c6a12ea16e26","6622ccb651ece09e1349733b","mask grid","q","","","","","Phylogenetic_Distractor_Threat_target","2500","onmask","q","3","Phylogenetic","true","experimental"
"","null","html-keyboard-response","292","399099","0.0-13.0-0.27","WgwXa048SZ","55cb79e0fdf99b3c26ae4bca","6617fad957f7c6a12ea16e26","6622ccb651ece09e1349733b","fixation cross","null","","","","","","","","","","","",""
"","null","html-keyboard-response","293","401603","0.0-13.0-1.27","WgwXa048SZ","55cb79e0fdf99b3c26ae4bca","6617fad957f7c6a12ea16e26","6622ccb651ece09e1349733b","
        <div id=""grid-container"">
        <!-- Grid items will be dynamically added here -->
    </div>    ","null","","","","","","","","","","","",""
"","2733","html-keyboard-response","294","401836","0.0-13.0-2.27","WgwXa048SZ","55cb79e0fdf99b3c26ae4bca","6617fad957f7c6a12ea16e26","6622ccb651ece09e1349733b","mask grid","q","","","","","Phylogenetic_Distractor_Threat_target","2500","onmask","q","1","Phylogenetic","true","experimental"
"","null","html-keyboard-response","295","402547","0.0-13.0-0.28","WgwXa048SZ","55cb79e0fdf99b3c26ae4bca","6617fad957f7c6a12ea16e26","6622ccb651ece09e1349733b","fixation cross","null","","","","","","","","","","","",""
"","null","html-keyboard-response","296","405051","0.0-13.0-1.28","WgwXa048SZ","55cb79e0fdf99b3c26ae4bca","6617fad957f7c6a12ea16e26","6622ccb651ece09e1349733b","
        <div id=""grid-container"">
        <!-- Grid items will be dynamically added here -->
    </div>    ","null","","","","","","","","","","","",""
"","2740","html-keyboard-response","297","405292","0.0-13.0-2.28","WgwXa048SZ","55cb79e0fdf99b3c26ae4bca","6617fad957f7c6a12ea16e26","6622ccb651ece09e1349733b","mask grid","p","","","","","Phylogenetic_Distractor_Nonthreat_target","2500","onmask","p","5","Phylogenetic","true","experimental"
"","null","html-keyboard-response","298","406003","0.0-13.0-0.29","WgwXa048SZ","55cb79e0fdf99b3c26ae4bca","6617fad957f7c6a12ea16e26","6622ccb651ece09e1349733b","fixation cross","null","","","","","","","","","","","",""
"","null","html-keyboard-response","299","408507","0.0-13.0-1.29","WgwXa048SZ","55cb79e0fdf99b3c26ae4bca","6617fad957f7c6a12ea16e26","6622ccb651ece09e1349733b","
        <div id=""grid-container"">
        <!-- Grid items will be dynamically added here -->
    </div>    ","null","","","","","","","","","","","",""
"","2717","html-keyboard-response","300","408724","0.0-13.0-2.29","WgwXa048SZ","55cb79e0fdf99b3c26ae4bca","6617fad957f7c6a12ea16e26","6622ccb651ece09e1349733b","mask grid","q","","","","","Phylogenetic_Distractor_Threat_target","2500","onmask","q","6","Phylogenetic","true","experimental"
"","null","html-keyboard-response","301","409435","0.0-13.0-0.30","WgwXa048SZ","55cb79e0fdf99b3c26ae4bca","6617fad957f7c6a12ea16e26","6622ccb651ece09e1349733b","fixation cross","null","","","","","","","","","","","",""
"","null","html-keyboard-response","302","411938","0.0-13.0-1.30","WgwXa048SZ","55cb79e0fdf99b3c26ae4bca","6617fad957f7c6a12ea16e26","6622ccb651ece09e1349733b","
        <div id=""grid-container"">
        <!-- Grid items will be dynamically added here -->
    </div>    ","null","","","","","","","","","","","",""
"","2773","html-keyboard-response","303","412212","0.0-13.0-2.30","WgwXa048SZ","55cb79e0fdf99b3c26ae4bca","6617fad957f7c6a12ea16e26","6622ccb651ece09e1349733b","mask grid","q","","","","","Phylogenetic_Distractor_Threat_target","2500","onmask","q","4","Phylogenetic","true","experimental"
"","null","html-keyboard-response","304","412922","0.0-13.0-0.31","WgwXa048SZ","55cb79e0fdf99b3c26ae4bca","6617fad957f7c6a12ea16e26","6622ccb651ece09e1349733b","fixation cross","null","","","","","","","","","","","",""
"","null","html-keyboard-response","305","415427","0.0-13.0-1.31","WgwXa048SZ","55cb79e0fdf99b3c26ae4bca","6617fad957f7c6a12ea16e26","6622ccb651ece09e1349733b","
        <div id=""grid-container"">
        <!-- Grid items will be dynamically added here -->
    </div>    ","null","","","","","","","","","","","",""
"","2589","html-keyboard-response","306","415516","0.0-13.0-2.31","WgwXa048SZ","55cb79e0fdf99b3c26ae4bca","6617fad957f7c6a12ea16e26","6622ccb651ece09e1349733b","mask grid","p","","","","","Phylogenetic_Distractor_Nonthreat_target","2500","onmask","p","8","Phylogenetic","true","experimental"
"","null","html-keyboard-response","307","416227","0.0-13.0-0.32","WgwXa048SZ","55cb79e0fdf99b3c26ae4bca","6617fad957f7c6a12ea16e26","6622ccb651ece09e1349733b","fixation cross","null","","","","","","","","","","","",""
"","null","html-keyboard-response","308","418731","0.0-13.0-1.32","WgwXa048SZ","55cb79e0fdf99b3c26ae4bca","6617fad957f7c6a12ea16e26","6622ccb651ece09e1349733b","
        <div id=""grid-container"">
        <!-- Grid items will be dynamically added here -->
    </div>    ","null","","","","","","","","","","","",""
"","2741","html-keyboard-response","309","418972","0.0-13.0-2.32","WgwXa048SZ","55cb79e0fdf99b3c26ae4bca","6617fad957f7c6a12ea16e26","6622ccb651ece09e1349733b","mask grid"," ","","","","","Phylogenetic_Distractor_notarget","2500","onmask"," ","4","Phylogenetic","true","experimental"
"","null","html-keyboard-response","310","419683","0.0-13.0-0.33","WgwXa048SZ","55cb79e0fdf99b3c26ae4bca","6617fad957f7c6a12ea16e26","6622ccb651ece09e1349733b","fixation cross","null","","","","","","","","","","","",""
"","2257","html-keyboard-response","311","421940","0.0-13.0-1.33","WgwXa048SZ","55cb79e0fdf99b3c26ae4bca","6617fad957f7c6a12ea16e26","6622ccb651ece09e1349733b","image grid","p","","","","","Phylogenetic_Distractor_Nonthreat_target","2500","ongrid","p","7","Phylogenetic","true","experimental"
"","null","html-keyboard-response","312","422099","0.0-13.0-2.33","WgwXa048SZ","55cb79e0fdf99b3c26ae4bca","6617fad957f7c6a12ea16e26","6622ccb651ece09e1349733b","
    <div id=""grid-container"">
        <!-- Grid items will be dynamically added here -->
    </div>    ","null","","","","","","","","","","","",""
"","null","html-keyboard-response","313","422811","0.0-13.0-0.34","WgwXa048SZ","55cb79e0fdf99b3c26ae4bca","6617fad957f7c6a12ea16e26","6622ccb651ece09e1349733b","fixation cross","null","","","","","","","","","","","",""
"","null","html-keyboard-response","314","425315","0.0-13.0-1.34","WgwXa048SZ","55cb79e0fdf99b3c26ae4bca","6617fad957f7c6a12ea16e26","6622ccb651ece09e1349733b","
        <div id=""grid-container"">
        <!-- Grid items will be dynamically added here -->
    </div>    ","null","","","","","","","","","","","",""
"","2541","html-keyboard-response","315","425356","0.0-13.0-2.34","WgwXa048SZ","55cb79e0fdf99b3c26ae4bca","6617fad957f7c6a12ea16e26","6622ccb651ece09e1349733b","mask grid","p","","","","","Phylogenetic_Distractor_Nonthreat_target","2500","onmask","p","9","Phylogenetic","true","experimental"
"","null","html-keyboard-response","316","426067","0.0-13.0-0.35","WgwXa048SZ","55cb79e0fdf99b3c26ae4bca","6617fad957f7c6a12ea16e26","6622ccb651ece09e1349733b","fixation cross","null","","","","","","","","","","","",""
"","null","html-keyboard-response","317","428571","0.0-13.0-1.35","WgwXa048SZ","55cb79e0fdf99b3c26ae4bca","6617fad957f7c6a12ea16e26","6622ccb651ece09e1349733b","
        <div id=""grid-container"">
        <!-- Grid items will be dynamically added here -->
    </div>    ","null","","","","","","","","","","","",""
"","2740","html-keyboard-response","318","428812","0.0-13.0-2.35","WgwXa048SZ","55cb79e0fdf99b3c26ae4bca","6617fad957f7c6a12ea16e26","6622ccb651ece09e1349733b","mask grid","q","","","","","Phylogenetic_Distractor_Threat_target","2500","onmask","q","4","Phylogenetic","true","experimental"
"","null","html-keyboard-response","319","429523","0.0-13.0-0.36","WgwXa048SZ","55cb79e0fdf99b3c26ae4bca","6617fad957f7c6a12ea16e26","6622ccb651ece09e1349733b","fixation cross","null","","","","","","","","","","","",""
"","null","html-keyboard-response","320","432027","0.0-13.0-1.36","WgwXa048SZ","55cb79e0fdf99b3c26ae4bca","6617fad957f7c6a12ea16e26","6622ccb651ece09e1349733b","
        <div id=""grid-container"">
        <!-- Grid items will be dynamically added here -->
    </div>    ","null","","","","","","","","","","","",""
"","2716","html-keyboard-response","321","432244","0.0-13.0-2.36","WgwXa048SZ","55cb79e0fdf99b3c26ae4bca","6617fad957f7c6a12ea16e26","6622ccb651ece09e1349733b","mask grid"," ","","","","","Phylogenetic_Distractor_notarget","2500","onmask"," ","3","Phylogenetic","true","experimental"
"","null","html-keyboard-response","322","432955","0.0-13.0-0.37","WgwXa048SZ","55cb79e0fdf99b3c26ae4bca","6617fad957f7c6a12ea16e26","6622ccb651ece09e1349733b","fixation cross","null","","","","","","","","","","","",""
"","2264","html-keyboard-response","323","435219","0.0-13.0-1.37","WgwXa048SZ","55cb79e0fdf99b3c26ae4bca","6617fad957f7c6a12ea16e26","6622ccb651ece09e1349733b","image grid","p","","","","","Phylogenetic_Distractor_Nonthreat_target","2500","ongrid","p","4","Phylogenetic","true","experimental"
"","null","html-keyboard-response","324","435371","0.0-13.0-2.37","WgwXa048SZ","55cb79e0fdf99b3c26ae4bca","6617fad957f7c6a12ea16e26","6622ccb651ece09e1349733b","
    <div id=""grid-container"">
        <!-- Grid items will be dynamically added here -->
    </div>    ","null","","","","","","","","","","","",""
"","null","html-keyboard-response","325","436083","0.0-13.0-0.38","WgwXa048SZ","55cb79e0fdf99b3c26ae4bca","6617fad957f7c6a12ea16e26","6622ccb651ece09e1349733b","fixation cross","null","","","","","","","","","","","",""
"","1993","html-keyboard-response","326","438077","0.0-13.0-1.38","WgwXa048SZ","55cb79e0fdf99b3c26ae4bca","6617fad957f7c6a12ea16e26","6622ccb651ece09e1349733b","image grid","p","","","","","Phylogenetic_Distractor_Nonthreat_target","2500","ongrid","p","6","Phylogenetic","true","experimental"
"","null","html-keyboard-response","327","438237","0.0-13.0-2.38","WgwXa048SZ","55cb79e0fdf99b3c26ae4bca","6617fad957f7c6a12ea16e26","6622ccb651ece09e1349733b","
    <div id=""grid-container"">
        <!-- Grid items will be dynamically added here -->
    </div>    ","null","","","","","","","","","","","",""
"","null","html-keyboard-response","328","438948","0.0-13.0-0.39","WgwXa048SZ","55cb79e0fdf99b3c26ae4bca","6617fad957f7c6a12ea16e26","6622ccb651ece09e1349733b","fixation cross","null","","","","","","","","","","","",""
"","2152","html-keyboard-response","329","441101","0.0-13.0-1.39","WgwXa048SZ","55cb79e0fdf99b3c26ae4bca","6617fad957f7c6a12ea16e26","6622ccb651ece09e1349733b","image grid","q","","","","","Phylogenetic_Distractor_Threat_target","2500","ongrid","q","7","Phylogenetic","true","experimental"
"","null","html-keyboard-response","330","441260","0.0-13.0-2.39","WgwXa048SZ","55cb79e0fdf99b3c26ae4bca","6617fad957f7c6a12ea16e26","6622ccb651ece09e1349733b","
    <div id=""grid-container"">
        <!-- Grid items will be dynamically added here -->
    </div>    ","null","","","","","","","","","","","",""
"","5695","html-keyboard-response","331","447164","0.0-14.0","WgwXa048SZ","55cb79e0fdf99b3c26ae4bca","6617fad957f7c6a12ea16e26","6622ccb651ece09e1349733b","break screen"," ","","","","","","","","","","","",""
"","null","html-keyboard-response","332","449677","0.0-15.0-0.0","WgwXa048SZ","55cb79e0fdf99b3c26ae4bca","6617fad957f7c6a12ea16e26","6622ccb651ece09e1349733b","fixation cross","null","","","","","","","","","","","",""
"","null","html-keyboard-response","333","450485","0.0-15.0-1.0","WgwXa048SZ","55cb79e0fdf99b3c26ae4bca","6617fad957f7c6a12ea16e26","6622ccb651ece09e1349733b","
        <div id=""grid-container"">
        <!-- Grid items will be dynamically added here -->
    </div>    ","null","","","","","","","","","","","",""
"","1329","html-keyboard-response","334","451014","0.0-15.0-2.0","WgwXa048SZ","55cb79e0fdf99b3c26ae4bca","6617fad957f7c6a12ea16e26","6622ccb651ece09e1349733b","mask grid","q","","","","","Phylogenetic_Distractor_Threat_target","800","onmask","q","9","Phylogenetic","true","experimental"
"","null","html-keyboard-response","335","451725","0.0-15.0-0.1","WgwXa048SZ","55cb79e0fdf99b3c26ae4bca","6617fad957f7c6a12ea16e26","6622ccb651ece09e1349733b","fixation cross","null","","","","","","","","","","","",""
"","null","html-keyboard-response","336","452533","0.0-15.0-1.1","WgwXa048SZ","55cb79e0fdf99b3c26ae4bca","6617fad957f7c6a12ea16e26","6622ccb651ece09e1349733b","
        <div id=""grid-container"">
        <!-- Grid items will be dynamically added here -->
    </div>    ","null","","","","","","","","","","","",""
"","1087","html-keyboard-response","337","452821","0.0-15.0-2.1","WgwXa048SZ","55cb79e0fdf99b3c26ae4bca","6617fad957f7c6a12ea16e26","6622ccb651ece09e1349733b","mask grid","q","","","","","Phylogenetic_Distractor_Threat_target","800","onmask","q","2","Phylogenetic","true","experimental"
"","null","html-keyboard-response","338","453533","0.0-15.0-0.2","WgwXa048SZ","55cb79e0fdf99b3c26ae4bca","6617fad957f7c6a12ea16e26","6622ccb651ece09e1349733b","fixation cross","null","","","","","","","","","","","",""
"","null","html-keyboard-response","339","454341","0.0-15.0-1.2","WgwXa048SZ","55cb79e0fdf99b3c26ae4bca","6617fad957f7c6a12ea16e26","6622ccb651ece09e1349733b","
        <div id=""grid-container"">
        <!-- Grid items will be dynamically added here -->
    </div>    ","null","","","","","","","","","","","",""
"","3567","html-keyboard-response","340","457109","0.0-15.0-2.2","WgwXa048SZ","55cb79e0fdf99b3c26ae4bca","6617fad957f7c6a12ea16e26","6622ccb651ece09e1349733b","mask grid"," ","","","","","Phylogenetic_Distractor_Nonthreat_target","800","onmask","p","7","Phylogenetic","false","experimental"
"","null","html-keyboard-response","341","457820","0.0-15.0-0.3","WgwXa048SZ","55cb79e0fdf99b3c26ae4bca","6617fad957f7c6a12ea16e26","6622ccb651ece09e1349733b","fixation cross","null","","","","","","","","","","","",""
"","null","html-keyboard-response","342","458628","0.0-15.0-1.3","WgwXa048SZ","55cb79e0fdf99b3c26ae4bca","6617fad957f7c6a12ea16e26","6622ccb651ece09e1349733b","
        <div id=""grid-container"">
        <!-- Grid items will be dynamically added here -->
    </div>    ","null","","","","","","","","","","","",""
"","1536","html-keyboard-response","343","459365","0.0-15.0-2.3","WgwXa048SZ","55cb79e0fdf99b3c26ae4bca","6617fad957f7c6a12ea16e26","6622ccb651ece09e1349733b","mask grid"," ","","","","","Phylogenetic_Distractor_Nonthreat_target","800","onmask","p","7","Phylogenetic","false","experimental"
"","null","html-keyboard-response","344","460076","0.0-15.0-0.4","WgwXa048SZ","55cb79e0fdf99b3c26ae4bca","6617fad957f7c6a12ea16e26","6622ccb651ece09e1349733b","fixation cross","null","","","","","","","","","","","",""
"","null","html-keyboard-response","345","460884","0.0-15.0-1.4","WgwXa048SZ","55cb79e0fdf99b3c26ae4bca","6617fad957f7c6a12ea16e26","6622ccb651ece09e1349733b","
        <div id=""grid-container"">
        <!-- Grid items will be dynamically added here -->
    </div>    ","null","","","","","","","","","","","",""
"","1577","html-keyboard-response","346","461662","0.0-15.0-2.4","WgwXa048SZ","55cb79e0fdf99b3c26ae4bca","6617fad957f7c6a12ea16e26","6622ccb651ece09e1349733b","mask grid","q","","","","","Phylogenetic_Distractor_Threat_target","800","onmask","q","3","Phylogenetic","true","experimental"
"","null","html-keyboard-response","347","462372","0.0-15.0-0.5","WgwXa048SZ","55cb79e0fdf99b3c26ae4bca","6617fad957f7c6a12ea16e26","6622ccb651ece09e1349733b","fixation cross","null","","","","","","","","","","","",""
"","null","html-keyboard-response","348","463180","0.0-15.0-1.5","WgwXa048SZ","55cb79e0fdf99b3c26ae4bca","6617fad957f7c6a12ea16e26","6622ccb651ece09e1349733b","
        <div id=""grid-container"">
        <!-- Grid items will be dynamically added here -->
    </div>    ","null","","","","","","","","","","","",""
"","1096","html-keyboard-response","349","463477","0.0-15.0-2.5","WgwXa048SZ","55cb79e0fdf99b3c26ae4bca","6617fad957f7c6a12ea16e26","6622ccb651ece09e1349733b","mask grid","q","","","","","Phylogenetic_Distractor_Threat_target","800","onmask","q","7","Phylogenetic","true","experimental"
"","null","html-keyboard-response","350","464188","0.0-15.0-0.6","WgwXa048SZ","55cb79e0fdf99b3c26ae4bca","6617fad957f7c6a12ea16e26","6622ccb651ece09e1349733b","fixation cross","null","","","","","","","","","","","",""
"","null","html-keyboard-response","351","464996","0.0-15.0-1.6","WgwXa048SZ","55cb79e0fdf99b3c26ae4bca","6617fad957f7c6a12ea16e26","6622ccb651ece09e1349733b","
        <div id=""grid-container"">
        <!-- Grid items will be dynamically added here -->
    </div>    ","null","","","","","","","","","","","",""
"","1064","html-keyboard-response","352","465260","0.0-15.0-2.6","WgwXa048SZ","55cb79e0fdf99b3c26ae4bca","6617fad957f7c6a12ea16e26","6622ccb651ece09e1349733b","mask grid","q","","","","","Phylogenetic_Distractor_Threat_target","800","onmask","q","8","Phylogenetic","true","experimental"
"","null","html-keyboard-response","353","465972","0.0-15.0-0.7","WgwXa048SZ","55cb79e0fdf99b3c26ae4bca","6617fad957f7c6a12ea16e26","6622ccb651ece09e1349733b","fixation cross","null","","","","","","","","","","","",""
"","null","html-keyboard-response","354","466780","0.0-15.0-1.7","WgwXa048SZ","55cb79e0fdf99b3c26ae4bca","6617fad957f7c6a12ea16e26","6622ccb651ece09e1349733b","
        <div id=""grid-container"">
        <!-- Grid items will be dynamically added here -->
    </div>    ","null","","","","","","","","","","","",""
"","1799","html-keyboard-response","355","467780","0.0-15.0-2.7","WgwXa048SZ","55cb79e0fdf99b3c26ae4bca","6617fad957f7c6a12ea16e26","6622ccb651ece09e1349733b","mask grid"," ","","","","","Phylogenetic_Distractor_notarget","800","onmask"," ","5","Phylogenetic","true","experimental"
"","null","html-keyboard-response","356","468492","0.0-15.0-0.8","WgwXa048SZ","55cb79e0fdf99b3c26ae4bca","6617fad957f7c6a12ea16e26","6622ccb651ece09e1349733b","fixation cross","null","","","","","","","","","","","",""
"","null","html-keyboard-response","357","469300","0.0-15.0-1.8","WgwXa048SZ","55cb79e0fdf99b3c26ae4bca","6617fad957f7c6a12ea16e26","6622ccb651ece09e1349733b","
        <div id=""grid-container"">
        <!-- Grid items will be dynamically added here -->
    </div>    ","null","","","","","","","","","","","",""
"","1248","html-keyboard-response","358","469749","0.0-15.0-2.8","WgwXa048SZ","55cb79e0fdf99b3c26ae4bca","6617fad957f7c6a12ea16e26","6622ccb651ece09e1349733b","mask grid","p","","","","","Phylogenetic_Distractor_Nonthreat_target","800","onmask","p","5","Phylogenetic","true","experimental"
"","null","html-keyboard-response","359","470460","0.0-15.0-0.9","WgwXa048SZ","55cb79e0fdf99b3c26ae4bca","6617fad957f7c6a12ea16e26","6622ccb651ece09e1349733b","fixation cross","null","","","","","","","","","","","",""
"","null","html-keyboard-response","360","471268","0.0-15.0-1.9","WgwXa048SZ","55cb79e0fdf99b3c26ae4bca","6617fad957f7c6a12ea16e26","6622ccb651ece09e1349733b","
        <div id=""grid-container"">
        <!-- Grid items will be dynamically added here -->
    </div>    ","null","","","","","","","","","","","",""
"","1457","html-keyboard-response","361","471925","0.0-15.0-2.9","WgwXa048SZ","55cb79e0fdf99b3c26ae4bca","6617fad957f7c6a12ea16e26","6622ccb651ece09e1349733b","mask grid"," ","","","","","Phylogenetic_Distractor_Nonthreat_target","800","onmask","p","5","Phylogenetic","false","experimental"
"","null","html-keyboard-response","362","472636","0.0-15.0-0.10","WgwXa048SZ","55cb79e0fdf99b3c26ae4bca","6617fad957f7c6a12ea16e26","6622ccb651ece09e1349733b","fixation cross","null","","","","","","","","","","","",""
"","null","html-keyboard-response","363","473444","0.0-15.0-1.10","WgwXa048SZ","55cb79e0fdf99b3c26ae4bca","6617fad957f7c6a12ea16e26","6622ccb651ece09e1349733b","
        <div id=""grid-container"">
        <!-- Grid items will be dynamically added here -->
    </div>    ","null","","","","","","","","","","","",""
"","1607","html-keyboard-response","364","474252","0.0-15.0-2.10","WgwXa048SZ","55cb79e0fdf99b3c26ae4bca","6617fad957f7c6a12ea16e26","6622ccb651ece09e1349733b","mask grid"," ","","","","","Phylogenetic_Distractor_Threat_target","800","onmask","q","7","Phylogenetic","false","experimental"
"","null","html-keyboard-response","365","474965","0.0-15.0-0.11","WgwXa048SZ","55cb79e0fdf99b3c26ae4bca","6617fad957f7c6a12ea16e26","6622ccb651ece09e1349733b","fixation cross","null","","","","","","","","","","","",""
"","null","html-keyboard-response","366","475772","0.0-15.0-1.11","WgwXa048SZ","55cb79e0fdf99b3c26ae4bca","6617fad957f7c6a12ea16e26","6622ccb651ece09e1349733b","
        <div id=""grid-container"">
        <!-- Grid items will be dynamically added here -->
    </div>    ","null","","","","","","","","","","","",""
"","848","html-keyboard-response","367","475820","0.0-15.0-2.11","WgwXa048SZ","55cb79e0fdf99b3c26ae4bca","6617fad957f7c6a12ea16e26","6622ccb651ece09e1349733b","mask grid","q","","","","","Phylogenetic_Distractor_Threat_target","800","onmask","q","4","Phylogenetic","true","experimental"
"","null","html-keyboard-response","368","476532","0.0-15.0-0.12","WgwXa048SZ","55cb79e0fdf99b3c26ae4bca","6617fad957f7c6a12ea16e26","6622ccb651ece09e1349733b","fixation cross","null","","","","","","","","","","","",""
