"success","rt","trial_type","trial_index","time_elapsed","internal_node_id","unique_identifier","subject_id","study_id","session_id","stimulus","response","timeout","failed_images","failed_audio","failed_video","task","time_manipulation","respondedwhen","correctresponse","targetimagelocation","blocktype","correct","roundtype"
"true","2328","fullscreen","0","3331","0.0-0.0","ZApwugu7XI","5beccd423b6489000156596f","6617fad957f7c6a12ea16e26","6622dee863a409274c7ee538","","","","","","","","","","","","","",""
"","6181","html-keyboard-response","1","9513","0.0-1.0","ZApwugu7XI","5beccd423b6489000156596f","6617fad957f7c6a12ea16e26","6622dee863a409274c7ee538","instruction screen 0","enter","","","","","","","","","","","",""
"true","","preload","2","15138","0.0-2.0","ZApwugu7XI","5beccd423b6489000156596f","6617fad957f7c6a12ea16e26","6622dee863a409274c7ee538","","","false","[]","[]","[]","","","","","","","",""
"","14889","html-keyboard-response","3","30028","0.0-3.0","ZApwugu7XI","5beccd423b6489000156596f","6617fad957f7c6a12ea16e26","6622dee863a409274c7ee538","instruction screen 1","enter","","","","","","","","","","","",""
"","4940","html-keyboard-response","4","34970","0.0-4.0","ZApwugu7XI","5beccd423b6489000156596f","6617fad957f7c6a12ea16e26","6622dee863a409274c7ee538","instruction screen 2","q","","","","","","","","","","","",""
"","9714","html-keyboard-response","5","44685","0.0-5.0","ZApwugu7XI","5beccd423b6489000156596f","6617fad957f7c6a12ea16e26","6622dee863a409274c7ee538","instruction screen 3","p","","","","","","","","","","","",""
"","4072","html-keyboard-response","6","48759","0.0-6.0","ZApwugu7XI","5beccd423b6489000156596f","6617fad957f7c6a12ea16e26","6622dee863a409274c7ee538","instruction screen 4"," ","","","","","","","","","","","",""
"","9399","html-keyboard-response","7","58160","0.0-7.0","ZApwugu7XI","5beccd423b6489000156596f","6617fad957f7c6a12ea16e26","6622dee863a409274c7ee538","instruction screen 5"," ","","","","","","","","","","","",""
"","null","html-keyboard-response","8","58676","0.0-8.0","ZApwugu7XI","5beccd423b6489000156596f","6617fad957f7c6a12ea16e26","6622dee863a409274c7ee538","fixation cross","null","","","","","","","","","","","",""
"","null","html-keyboard-response","9","59181","0.0-9.0-0.0","ZApwugu7XI","5beccd423b6489000156596f","6617fad957f7c6a12ea16e26","6622dee863a409274c7ee538","fixation cross","null","","","","","","","","","","","",""
"","1834","html-keyboard-response","10","61016","0.0-9.0-1.0","ZApwugu7XI","5beccd423b6489000156596f","6617fad957f7c6a12ea16e26","6622dee863a409274c7ee538","image grid"," ","","","","","Phylogenetic_Distractor_Nonthreat_target","3000","ongrid","p","1","Ontogenetic","false","practice"
"","null","html-keyboard-response","11","61170","0.0-9.0-2.0","ZApwugu7XI","5beccd423b6489000156596f","6617fad957f7c6a12ea16e26","6622dee863a409274c7ee538","
    <div id=""grid-container"">
        <!-- Grid items will be dynamically added here -->
    </div>    ","null","","","","","","","","","","","",""
"","null","html-keyboard-response","12","62376","0.0-9.0-3.0","ZApwugu7XI","5beccd423b6489000156596f","6617fad957f7c6a12ea16e26","6622dee863a409274c7ee538","feedback screen","null","","","","","","","","","","","",""
"","null","html-keyboard-response","13","62888","0.0-9.0-0.1","ZApwugu7XI","5beccd423b6489000156596f","6617fad957f7c6a12ea16e26","6622dee863a409274c7ee538","fixation cross","null","","","","","","","","","","","",""
"","2852","html-keyboard-response","14","65740","0.0-9.0-1.1","ZApwugu7XI","5beccd423b6489000156596f","6617fad957f7c6a12ea16e26","6622dee863a409274c7ee538","image grid"," ","","","","","Ontogenetic_Distractor_notarget","2900","ongrid"," ","7","Ontogenetic","true","practice"
"","null","html-keyboard-response","15","65891","0.0-9.0-2.1","ZApwugu7XI","5beccd423b6489000156596f","6617fad957f7c6a12ea16e26","6622dee863a409274c7ee538","
    <div id=""grid-container"">
        <!-- Grid items will be dynamically added here -->
    </div>    ","null","","","","","","","","","","","",""
"","null","html-keyboard-response","16","67113","0.0-9.0-3.1","ZApwugu7XI","5beccd423b6489000156596f","6617fad957f7c6a12ea16e26","6622dee863a409274c7ee538","feedback screen","null","","","","","","","","","","","",""
"","null","html-keyboard-response","17","67624","0.0-9.0-0.2","ZApwugu7XI","5beccd423b6489000156596f","6617fad957f7c6a12ea16e26","6622dee863a409274c7ee538","fixation cross","null","","","","","","","","","","","",""
"","2575","html-keyboard-response","18","70199","0.0-9.0-1.2","ZApwugu7XI","5beccd423b6489000156596f","6617fad957f7c6a12ea16e26","6622dee863a409274c7ee538","image grid","p","","","","","Phylogenetic_Distractor_Nonthreat_target","2800","ongrid","p","3","Ontogenetic","true","practice"
"","null","html-keyboard-response","19","70363","0.0-9.0-2.2","ZApwugu7XI","5beccd423b6489000156596f","6617fad957f7c6a12ea16e26","6622dee863a409274c7ee538","
    <div id=""grid-container"">
        <!-- Grid items will be dynamically added here -->
    </div>    ","null","","","","","","","","","","","",""
"","null","html-keyboard-response","20","71571","0.0-9.0-3.2","ZApwugu7XI","5beccd423b6489000156596f","6617fad957f7c6a12ea16e26","6622dee863a409274c7ee538","feedback screen","null","","","","","","","","","","","",""
"","null","html-keyboard-response","21","72082","0.0-9.0-0.3","ZApwugu7XI","5beccd423b6489000156596f","6617fad957f7c6a12ea16e26","6622dee863a409274c7ee538","fixation cross","null","","","","","","","","","","","",""
"","null","html-keyboard-response","22","74788","0.0-9.0-1.3","ZApwugu7XI","5beccd423b6489000156596f","6617fad957f7c6a12ea16e26","6622dee863a409274c7ee538","
        <div id=""grid-container"">
        <!-- Grid items will be dynamically added here -->
    </div>    ","null","","","","","","","","","","","",""
"","2870","html-keyboard-response","23","74959","0.0-9.0-2.3","ZApwugu7XI","5beccd423b6489000156596f","6617fad957f7c6a12ea16e26","6622dee863a409274c7ee538","mask grid","p","","","","","Phylogenetic_Distractor_Threat_target","2700","onmask","q","6","Ontogenetic","false","practice"
"","193","html-keyboard-response","24","75357","0.0-9.0-3.3","ZApwugu7XI","5beccd423b6489000156596f","6617fad957f7c6a12ea16e26","6622dee863a409274c7ee538","feedback screen","q","","","","","","","","","","","",""
"","null","html-keyboard-response","25","75861","0.0-9.0-0.4","ZApwugu7XI","5beccd423b6489000156596f","6617fad957f7c6a12ea16e26","6622dee863a409274c7ee538","fixation cross","null","","","","","","","","","","","",""
"","1519","html-keyboard-response","26","77380","0.0-9.0-1.4","ZApwugu7XI","5beccd423b6489000156596f","6617fad957f7c6a12ea16e26","6622dee863a409274c7ee538","image grid","q","","","","","Phylogenetic_Distractor_Threat_target","2600","ongrid","q","3","Ontogenetic","true","practice"
"","null","html-keyboard-response","27","77533","0.0-9.0-2.4","ZApwugu7XI","5beccd423b6489000156596f","6617fad957f7c6a12ea16e26","6622dee863a409274c7ee538","
    <div id=""grid-container"">
        <!-- Grid items will be dynamically added here -->
    </div>    ","null","","","","","","","","","","","",""
"","null","html-keyboard-response","28","78739","0.0-9.0-3.4","ZApwugu7XI","5beccd423b6489000156596f","6617fad957f7c6a12ea16e26","6622dee863a409274c7ee538","feedback screen","null","","","","","","","","","","","",""
"","null","html-keyboard-response","29","79251","0.0-9.0-0.5","ZApwugu7XI","5beccd423b6489000156596f","6617fad957f7c6a12ea16e26","6622dee863a409274c7ee538","fixation cross","null","","","","","","","","","","","",""
"","908","html-keyboard-response","30","80159","0.0-9.0-1.5","ZApwugu7XI","5beccd423b6489000156596f","6617fad957f7c6a12ea16e26","6622dee863a409274c7ee538","image grid","q","","","","","Ontogenetic_Distractor_Threat_target","2500","ongrid","q","2","Ontogenetic","true","practice"
"","null","html-keyboard-response","31","80319","0.0-9.0-2.5","ZApwugu7XI","5beccd423b6489000156596f","6617fad957f7c6a12ea16e26","6622dee863a409274c7ee538","
    <div id=""grid-container"">
        <!-- Grid items will be dynamically added here -->
    </div>    ","null","","","","","","","","","","","",""
"","null","html-keyboard-response","32","81526","0.0-9.0-3.5","ZApwugu7XI","5beccd423b6489000156596f","6617fad957f7c6a12ea16e26","6622dee863a409274c7ee538","feedback screen","null","","","","","","","","","","","",""
"","null","html-keyboard-response","33","82037","0.0-9.0-0.6","ZApwugu7XI","5beccd423b6489000156596f","6617fad957f7c6a12ea16e26","6622dee863a409274c7ee538","fixation cross","null","","","","","","","","","","","",""
"","1300","html-keyboard-response","34","83337","0.0-9.0-1.6","ZApwugu7XI","5beccd423b6489000156596f","6617fad957f7c6a12ea16e26","6622dee863a409274c7ee538","image grid","q","","","","","Phylogenetic_Distractor_Threat_target","2400","ongrid","q","8","Ontogenetic","true","practice"
"","null","html-keyboard-response","35","83492","0.0-9.0-2.6","ZApwugu7XI","5beccd423b6489000156596f","6617fad957f7c6a12ea16e26","6622dee863a409274c7ee538","
    <div id=""grid-container"">
        <!-- Grid items will be dynamically added here -->
    </div>    ","null","","","","","","","","","","","",""
"","null","html-keyboard-response","36","84700","0.0-9.0-3.6","ZApwugu7XI","5beccd423b6489000156596f","6617fad957f7c6a12ea16e26","6622dee863a409274c7ee538","feedback screen","null","","","","","","","","","","","",""
"","null","html-keyboard-response","37","85207","0.0-9.0-0.7","ZApwugu7XI","5beccd423b6489000156596f","6617fad957f7c6a12ea16e26","6622dee863a409274c7ee538","fixation cross","null","","","","","","","","","","","",""
"","1126","html-keyboard-response","38","86333","0.0-9.0-1.7","ZApwugu7XI","5beccd423b6489000156596f","6617fad957f7c6a12ea16e26","6622dee863a409274c7ee538","image grid","q","","","","","Ontogenetic_Distractor_Threat_target","2300","ongrid","q","3","Ontogenetic","true","practice"
"","null","html-keyboard-response","39","86497","0.0-9.0-2.7","ZApwugu7XI","5beccd423b6489000156596f","6617fad957f7c6a12ea16e26","6622dee863a409274c7ee538","
    <div id=""grid-container"">
        <!-- Grid items will be dynamically added here -->
    </div>    ","null","","","","","","","","","","","",""
"","null","html-keyboard-response","40","87705","0.0-9.0-3.7","ZApwugu7XI","5beccd423b6489000156596f","6617fad957f7c6a12ea16e26","6622dee863a409274c7ee538","feedback screen","null","","","","","","","","","","","",""
"","null","html-keyboard-response","41","88215","0.0-9.0-0.8","ZApwugu7XI","5beccd423b6489000156596f","6617fad957f7c6a12ea16e26","6622dee863a409274c7ee538","fixation cross","null","","","","","","","","","","","",""
"","1722","html-keyboard-response","42","89937","0.0-9.0-1.8","ZApwugu7XI","5beccd423b6489000156596f","6617fad957f7c6a12ea16e26","6622dee863a409274c7ee538","image grid","q","","","","","Ontogenetic_Distractor_Threat_target","2200","ongrid","q","7","Ontogenetic","true","practice"
"","null","html-keyboard-response","43","90088","0.0-9.0-2.8","ZApwugu7XI","5beccd423b6489000156596f","6617fad957f7c6a12ea16e26","6622dee863a409274c7ee538","
    <div id=""grid-container"">
        <!-- Grid items will be dynamically added here -->
    </div>    ","null","","","","","","","","","","","",""
"","null","html-keyboard-response","44","91296","0.0-9.0-3.8","ZApwugu7XI","5beccd423b6489000156596f","6617fad957f7c6a12ea16e26","6622dee863a409274c7ee538","feedback screen","null","","","","","","","","","","","",""
"","null","html-keyboard-response","45","91798","0.0-9.0-0.9","ZApwugu7XI","5beccd423b6489000156596f","6617fad957f7c6a12ea16e26","6622dee863a409274c7ee538","fixation cross","null","","","","","","","","","","","",""
"","null","html-keyboard-response","46","93913","0.0-9.0-1.9","ZApwugu7XI","5beccd423b6489000156596f","6617fad957f7c6a12ea16e26","6622dee863a409274c7ee538","
        <div id=""grid-container"">
        <!-- Grid items will be dynamically added here -->
    </div>    ","null","","","","","","","","","","","",""
"","2316","html-keyboard-response","47","94130","0.0-9.0-2.9","ZApwugu7XI","5beccd423b6489000156596f","6617fad957f7c6a12ea16e26","6622dee863a409274c7ee538","mask grid"," ","","","","","Phylogenetic_Distractor_Threat_target","2100","onmask","q","6","Ontogenetic","false","practice"
"","null","html-keyboard-response","48","95337","0.0-9.0-3.9","ZApwugu7XI","5beccd423b6489000156596f","6617fad957f7c6a12ea16e26","6622dee863a409274c7ee538","feedback screen","null","","","","","","","","","","","",""
"","null","html-keyboard-response","49","95847","0.0-9.0-0.10","ZApwugu7XI","5beccd423b6489000156596f","6617fad957f7c6a12ea16e26","6622dee863a409274c7ee538","fixation cross","null","","","","","","","","","","","",""
"","984","html-keyboard-response","50","96832","0.0-9.0-1.10","ZApwugu7XI","5beccd423b6489000156596f","6617fad957f7c6a12ea16e26","6622dee863a409274c7ee538","image grid","p","","","","","Ontogenetic_Distractor_Nonthreat_target","2000","ongrid","p","2","Ontogenetic","true","practice"
"","null","html-keyboard-response","51","96986","0.0-9.0-2.10","ZApwugu7XI","5beccd423b6489000156596f","6617fad957f7c6a12ea16e26","6622dee863a409274c7ee538","
    <div id=""grid-container"">
        <!-- Grid items will be dynamically added here -->
    </div>    ","null","","","","","","","","","","","",""
"","null","html-keyboard-response","52","98195","0.0-9.0-3.10","ZApwugu7XI","5beccd423b6489000156596f","6617fad957f7c6a12ea16e26","6622dee863a409274c7ee538","feedback screen","null","","","","","","","","","","","",""
"","null","html-keyboard-response","53","98707","0.0-9.0-0.11","ZApwugu7XI","5beccd423b6489000156596f","6617fad957f7c6a12ea16e26","6622dee863a409274c7ee538","fixation cross","null","","","","","","","","","","","",""
"","1030","html-keyboard-response","54","99737","0.0-9.0-1.11","ZApwugu7XI","5beccd423b6489000156596f","6617fad957f7c6a12ea16e26","6622dee863a409274c7ee538","image grid","p","","","","","Phylogenetic_Distractor_Nonthreat_target","1900","ongrid","p","3","Ontogenetic","true","practice"
"","null","html-keyboard-response","55","99898","0.0-9.0-2.11","ZApwugu7XI","5beccd423b6489000156596f","6617fad957f7c6a12ea16e26","6622dee863a409274c7ee538","
    <div id=""grid-container"">
        <!-- Grid items will be dynamically added here -->
    </div>    ","null","","","","","","","","","","","",""
"","null","html-keyboard-response","56","101106","0.0-9.0-3.11","ZApwugu7XI","5beccd423b6489000156596f","6617fad957f7c6a12ea16e26","6622dee863a409274c7ee538","feedback screen","null","","","","","","","","","","","",""
"","null","html-keyboard-response","57","101617","0.0-9.0-0.12","ZApwugu7XI","5beccd423b6489000156596f","6617fad957f7c6a12ea16e26","6622dee863a409274c7ee538","fixation cross","null","","","","","","","","","","","",""
"","null","html-keyboard-response","58","103428","0.0-9.0-1.12","ZApwugu7XI","5beccd423b6489000156596f","6617fad957f7c6a12ea16e26","6622dee863a409274c7ee538","
        <div id=""grid-container"">
        <!-- Grid items will be dynamically added here -->
    </div>    ","null","","","","","","","","","","","",""
"","2154","html-keyboard-response","59","103782","0.0-9.0-2.12","ZApwugu7XI","5beccd423b6489000156596f","6617fad957f7c6a12ea16e26","6622dee863a409274c7ee538","mask grid"," ","","","","","Phylogenetic_Distractor_notarget","1800","onmask"," ","5","Ontogenetic","true","practice"
"","null","html-keyboard-response","60","104992","0.0-9.0-3.12","ZApwugu7XI","5beccd423b6489000156596f","6617fad957f7c6a12ea16e26","6622dee863a409274c7ee538","feedback screen","null","","","","","","","","","","","",""
"","null","html-keyboard-response","61","105502","0.0-9.0-0.13","ZApwugu7XI","5beccd423b6489000156596f","6617fad957f7c6a12ea16e26","6622dee863a409274c7ee538","fixation cross","null","","","","","","","","","","","",""
"","786","html-keyboard-response","62","106288","0.0-9.0-1.13","ZApwugu7XI","5beccd423b6489000156596f","6617fad957f7c6a12ea16e26","6622dee863a409274c7ee538","image grid","p","","","","","Ontogenetic_Distractor_Nonthreat_target","1700","ongrid","p","5","Ontogenetic","true","practice"
"","null","html-keyboard-response","63","106446","0.0-9.0-2.13","ZApwugu7XI","5beccd423b6489000156596f","6617fad957f7c6a12ea16e26","6622dee863a409274c7ee538","
    <div id=""grid-container"">
        <!-- Grid items will be dynamically added here -->
    </div>    ","null","","","","","","","","","","","",""
"","null","html-keyboard-response","64","107654","0.0-9.0-3.13","ZApwugu7XI","5beccd423b6489000156596f","6617fad957f7c6a12ea16e26","6622dee863a409274c7ee538","feedback screen","null","","","","","","","","","","","",""
"","null","html-keyboard-response","65","108165","0.0-9.0-0.14","ZApwugu7XI","5beccd423b6489000156596f","6617fad957f7c6a12ea16e26","6622dee863a409274c7ee538","fixation cross","null","","","","","","","","","","","",""
"","741","html-keyboard-response","66","108906","0.0-9.0-1.14","ZApwugu7XI","5beccd423b6489000156596f","6617fad957f7c6a12ea16e26","6622dee863a409274c7ee538","image grid","q","","","","","Ontogenetic_Distractor_Threat_target","1600","ongrid","q","2","Ontogenetic","true","practice"
"","null","html-keyboard-response","67","109063","0.0-9.0-2.14","ZApwugu7XI","5beccd423b6489000156596f","6617fad957f7c6a12ea16e26","6622dee863a409274c7ee538","
    <div id=""grid-container"">
        <!-- Grid items will be dynamically added here -->
    </div>    ","null","","","","","","","","","","","",""
"","null","html-keyboard-response","68","110269","0.0-9.0-3.14","ZApwugu7XI","5beccd423b6489000156596f","6617fad957f7c6a12ea16e26","6622dee863a409274c7ee538","feedback screen","null","","","","","","","","","","","",""
"","null","html-keyboard-response","69","110774","0.0-9.0-0.15","ZApwugu7XI","5beccd423b6489000156596f","6617fad957f7c6a12ea16e26","6622dee863a409274c7ee538","fixation cross","null","","","","","","","","","","","",""
"","694","html-keyboard-response","70","111468","0.0-9.0-1.15","ZApwugu7XI","5beccd423b6489000156596f","6617fad957f7c6a12ea16e26","6622dee863a409274c7ee538","image grid","p","","","","","Ontogenetic_Distractor_Nonthreat_target","1500","ongrid","p","8","Ontogenetic","true","practice"
"","null","html-keyboard-response","71","111630","0.0-9.0-2.15","ZApwugu7XI","5beccd423b6489000156596f","6617fad957f7c6a12ea16e26","6622dee863a409274c7ee538","
    <div id=""grid-container"">
        <!-- Grid items will be dynamically added here -->
    </div>    ","null","","","","","","","","","","","",""
"","null","html-keyboard-response","72","112837","0.0-9.0-3.15","ZApwugu7XI","5beccd423b6489000156596f","6617fad957f7c6a12ea16e26","6622dee863a409274c7ee538","feedback screen","null","","","","","","","","","","","",""
"","null","html-keyboard-response","73","113348","0.0-9.0-0.16","ZApwugu7XI","5beccd423b6489000156596f","6617fad957f7c6a12ea16e26","6622dee863a409274c7ee538","fixation cross","null","","","","","","","","","","","",""
"","1269","html-keyboard-response","74","114618","0.0-9.0-1.16","ZApwugu7XI","5beccd423b6489000156596f","6617fad957f7c6a12ea16e26","6622dee863a409274c7ee538","image grid","p","","","","","Ontogenetic_Distractor_notarget","1400","ongrid"," ","8","Ontogenetic","false","practice"
"","null","html-keyboard-response","75","114772","0.0-9.0-2.16","ZApwugu7XI","5beccd423b6489000156596f","6617fad957f7c6a12ea16e26","6622dee863a409274c7ee538","
    <div id=""grid-container"">
        <!-- Grid items will be dynamically added here -->
    </div>    ","null","","","","","","","","","","","",""
"","null","html-keyboard-response","76","115976","0.0-9.0-3.16","ZApwugu7XI","5beccd423b6489000156596f","6617fad957f7c6a12ea16e26","6622dee863a409274c7ee538","feedback screen","null","","","","","","","","","","","",""
"","null","html-keyboard-response","77","116488","0.0-9.0-0.17","ZApwugu7XI","5beccd423b6489000156596f","6617fad957f7c6a12ea16e26","6622dee863a409274c7ee538","fixation cross","null","","","","","","","","","","","",""
"","null","html-keyboard-response","78","117789","0.0-9.0-1.17","ZApwugu7XI","5beccd423b6489000156596f","6617fad957f7c6a12ea16e26","6622dee863a409274c7ee538","
        <div id=""grid-container"">
        <!-- Grid items will be dynamically added here -->
    </div>    ","null","","","","","","","","","","","",""
"","1488","html-keyboard-response","79","117977","0.0-9.0-2.17","ZApwugu7XI","5beccd423b6489000156596f","6617fad957f7c6a12ea16e26","6622dee863a409274c7ee538","mask grid"," ","","","","","Phylogenetic_Distractor_Nonthreat_target","1300","onmask","p","3","Ontogenetic","false","practice"
"","null","html-keyboard-response","80","119179","0.0-9.0-3.17","ZApwugu7XI","5beccd423b6489000156596f","6617fad957f7c6a12ea16e26","6622dee863a409274c7ee538","feedback screen","null","","","","","","","","","","","",""
"","null","html-keyboard-response","81","119693","0.0-9.0-0.18","ZApwugu7XI","5beccd423b6489000156596f","6617fad957f7c6a12ea16e26","6622dee863a409274c7ee538","fixation cross","null","","","","","","","","","","","",""
"","727","html-keyboard-response","82","120421","0.0-9.0-1.18","ZApwugu7XI","5beccd423b6489000156596f","6617fad957f7c6a12ea16e26","6622dee863a409274c7ee538","image grid","p","","","","","Ontogenetic_Distractor_Nonthreat_target","1200","ongrid","p","8","Ontogenetic","true","practice"
"","null","html-keyboard-response","83","120575","0.0-9.0-2.18","ZApwugu7XI","5beccd423b6489000156596f","6617fad957f7c6a12ea16e26","6622dee863a409274c7ee538","
    <div id=""grid-container"">
        <!-- Grid items will be dynamically added here -->
    </div>    ","null","","","","","","","","","","","",""
"","null","html-keyboard-response","84","121783","0.0-9.0-3.18","ZApwugu7XI","5beccd423b6489000156596f","6617fad957f7c6a12ea16e26","6622dee863a409274c7ee538","feedback screen","null","","","","","","","","","","","",""
"","null","html-keyboard-response","85","122294","0.0-9.0-0.19","ZApwugu7XI","5beccd423b6489000156596f","6617fad957f7c6a12ea16e26","6622dee863a409274c7ee538","fixation cross","null","","","","","","","","","","","",""
"","null","html-keyboard-response","86","123408","0.0-9.0-1.19","ZApwugu7XI","5beccd423b6489000156596f","6617fad957f7c6a12ea16e26","6622dee863a409274c7ee538","
        <div id=""grid-container"">
        <!-- Grid items will be dynamically added here -->
    </div>    ","null","","","","","","","","","","","",""
"","1276","html-keyboard-response","87","123584","0.0-9.0-2.19","ZApwugu7XI","5beccd423b6489000156596f","6617fad957f7c6a12ea16e26","6622dee863a409274c7ee538","mask grid"," ","","","","","Phylogenetic_Distractor_notarget","1100","onmask"," ","1","Ontogenetic","true","practice"
"","null","html-keyboard-response","88","124798","0.0-9.0-3.19","ZApwugu7XI","5beccd423b6489000156596f","6617fad957f7c6a12ea16e26","6622dee863a409274c7ee538","feedback screen","null","","","","","","","","","","","",""
"","6629","html-keyboard-response","89","131445","0.0-10.0","ZApwugu7XI","5beccd423b6489000156596f","6617fad957f7c6a12ea16e26","6622dee863a409274c7ee538","pre-experimental_briefing"," ","","","","","","","","","","","",""
"","null","html-keyboard-response","90","133973","0.0-11.0-0.0","ZApwugu7XI","5beccd423b6489000156596f","6617fad957f7c6a12ea16e26","6622dee863a409274c7ee538","fixation cross","null","","","","","","","","","","","",""
"","1153","html-keyboard-response","91","135126","0.0-11.0-1.0","ZApwugu7XI","5beccd423b6489000156596f","6617fad957f7c6a12ea16e26","6622dee863a409274c7ee538","image grid"," ","","","","","Ontogenetic_Distractor_Nonthreat_target","2500","ongrid","p","3","Ontogenetic","false","experimental"
"","null","html-keyboard-response","92","135280","0.0-11.0-2.0","ZApwugu7XI","5beccd423b6489000156596f","6617fad957f7c6a12ea16e26","6622dee863a409274c7ee538","
    <div id=""grid-container"">
        <!-- Grid items will be dynamically added here -->
    </div>    ","null","","","","","","","","","","","",""
"","null","html-keyboard-response","93","135987","0.0-11.0-0.1","ZApwugu7XI","5beccd423b6489000156596f","6617fad957f7c6a12ea16e26","6622dee863a409274c7ee538","fixation cross","null","","","","","","","","","","","",""
"","721","html-keyboard-response","94","136708","0.0-11.0-1.1","ZApwugu7XI","5beccd423b6489000156596f","6617fad957f7c6a12ea16e26","6622dee863a409274c7ee538","image grid","q","","","","","Ontogenetic_Distractor_Threat_target","2500","ongrid","q","2","Ontogenetic","true","experimental"
"","null","html-keyboard-response","95","136859","0.0-11.0-2.1","ZApwugu7XI","5beccd423b6489000156596f","6617fad957f7c6a12ea16e26","6622dee863a409274c7ee538","
    <div id=""grid-container"">
        <!-- Grid items will be dynamically added here -->
    </div>    ","null","","","","","","","","","","","",""
"","null","html-keyboard-response","96","137570","0.0-11.0-0.2","ZApwugu7XI","5beccd423b6489000156596f","6617fad957f7c6a12ea16e26","6622dee863a409274c7ee538","fixation cross","null","","","","","","","","","","","",""
"","1322","html-keyboard-response","97","138892","0.0-11.0-1.2","ZApwugu7XI","5beccd423b6489000156596f","6617fad957f7c6a12ea16e26","6622dee863a409274c7ee538","image grid"," ","","","","","Ontogenetic_Distractor_notarget","2500","ongrid"," ","4","Ontogenetic","true","experimental"
"","null","html-keyboard-response","98","139057","0.0-11.0-2.2","ZApwugu7XI","5beccd423b6489000156596f","6617fad957f7c6a12ea16e26","6622dee863a409274c7ee538","
    <div id=""grid-container"">
        <!-- Grid items will be dynamically added here -->
    </div>    ","null","","","","","","","","","","","",""
"","null","html-keyboard-response","99","139769","0.0-11.0-0.3","ZApwugu7XI","5beccd423b6489000156596f","6617fad957f7c6a12ea16e26","6622dee863a409274c7ee538","fixation cross","null","","","","","","","","","","","",""
"","1005","html-keyboard-response","100","140775","0.0-11.0-1.3","ZApwugu7XI","5beccd423b6489000156596f","6617fad957f7c6a12ea16e26","6622dee863a409274c7ee538","image grid","p","","","","","Ontogenetic_Distractor_Nonthreat_target","2500","ongrid","p","8","Ontogenetic","true","experimental"
"","null","html-keyboard-response","101","140931","0.0-11.0-2.3","ZApwugu7XI","5beccd423b6489000156596f","6617fad957f7c6a12ea16e26","6622dee863a409274c7ee538","
    <div id=""grid-container"">
        <!-- Grid items will be dynamically added here -->
    </div>    ","null","","","","","","","","","","","",""
"","null","html-keyboard-response","102","141642","0.0-11.0-0.4","ZApwugu7XI","5beccd423b6489000156596f","6617fad957f7c6a12ea16e26","6622dee863a409274c7ee538","fixation cross","null","","","","","","","","","","","",""
"","1198","html-keyboard-response","103","142840","0.0-11.0-1.4","ZApwugu7XI","5beccd423b6489000156596f","6617fad957f7c6a12ea16e26","6622dee863a409274c7ee538","image grid","q","","","","","Ontogenetic_Distractor_Threat_target","2500","ongrid","q","6","Ontogenetic","true","experimental"
"","null","html-keyboard-response","104","142994","0.0-11.0-2.4","ZApwugu7XI","5beccd423b6489000156596f","6617fad957f7c6a12ea16e26","6622dee863a409274c7ee538","
    <div id=""grid-container"">
        <!-- Grid items will be dynamically added here -->
    </div>    ","null","","","","","","","","","","","",""
"","null","html-keyboard-response","105","143698","0.0-11.0-0.5","ZApwugu7XI","5beccd423b6489000156596f","6617fad957f7c6a12ea16e26","6622dee863a409274c7ee538","fixation cross","null","","","","","","","","","","","",""
"","793","html-keyboard-response","106","144492","0.0-11.0-1.5","ZApwugu7XI","5beccd423b6489000156596f","6617fad957f7c6a12ea16e26","6622dee863a409274c7ee538","image grid","q","","","","","Ontogenetic_Distractor_Threat_target","2500","ongrid","q","7","Ontogenetic","true","experimental"
"","null","html-keyboard-response","107","144658","0.0-11.0-2.5","ZApwugu7XI","5beccd423b6489000156596f","6617fad957f7c6a12ea16e26","6622dee863a409274c7ee538","
    <div id=""grid-container"">
        <!-- Grid items will be dynamically added here -->
    </div>    ","null","","","","","","","","","","","",""
"","null","html-keyboard-response","108","145369","0.0-11.0-0.6","ZApwugu7XI","5beccd423b6489000156596f","6617fad957f7c6a12ea16e26","6622dee863a409274c7ee538","fixation cross","null","","","","","","","","","","","",""
"","921","html-keyboard-response","109","146291","0.0-11.0-1.6","ZApwugu7XI","5beccd423b6489000156596f","6617fad957f7c6a12ea16e26","6622dee863a409274c7ee538","image grid","q","","","","","Ontogenetic_Distractor_Threat_target","2500","ongrid","q","3","Ontogenetic","true","experimental"
"","null","html-keyboard-response","110","146453","0.0-11.0-2.6","ZApwugu7XI","5beccd423b6489000156596f","6617fad957f7c6a12ea16e26","6622dee863a409274c7ee538","
    <div id=""grid-container"">
        <!-- Grid items will be dynamically added here -->
    </div>    ","null","","","","","","","","","","","",""
"","null","html-keyboard-response","111","147170","0.0-11.0-0.7","ZApwugu7XI","5beccd423b6489000156596f","6617fad957f7c6a12ea16e26","6622dee863a409274c7ee538","fixation cross","null","","","","","","","","","","","",""
"","982","html-keyboard-response","112","148153","0.0-11.0-1.7","ZApwugu7XI","5beccd423b6489000156596f","6617fad957f7c6a12ea16e26","6622dee863a409274c7ee538","image grid","q","","","","","Ontogenetic_Distractor_Threat_target","2500","ongrid","q","5","Ontogenetic","true","experimental"
"","null","html-keyboard-response","113","148312","0.0-11.0-2.7","ZApwugu7XI","5beccd423b6489000156596f","6617fad957f7c6a12ea16e26","6622dee863a409274c7ee538","
    <div id=""grid-container"">
        <!-- Grid items will be dynamically added here -->
    </div>    ","null","","","","","","","","","","","",""
"","null","html-keyboard-response","114","149039","0.0-11.0-0.8","ZApwugu7XI","5beccd423b6489000156596f","6617fad957f7c6a12ea16e26","6622dee863a409274c7ee538","fixation cross","null","","","","","","","","","","","",""
"","1094","html-keyboard-response","115","150133","0.0-11.0-1.8","ZApwugu7XI","5beccd423b6489000156596f","6617fad957f7c6a12ea16e26","6622dee863a409274c7ee538","image grid","p","","","","","Ontogenetic_Distractor_Nonthreat_target","2500","ongrid","p","7","Ontogenetic","true","experimental"
"","null","html-keyboard-response","116","150294","0.0-11.0-2.8","ZApwugu7XI","5beccd423b6489000156596f","6617fad957f7c6a12ea16e26","6622dee863a409274c7ee538","
    <div id=""grid-container"">
        <!-- Grid items will be dynamically added here -->
    </div>    ","null","","","","","","","","","","","",""
"","null","html-keyboard-response","117","150997","0.0-11.0-0.9","ZApwugu7XI","5beccd423b6489000156596f","6617fad957f7c6a12ea16e26","6622dee863a409274c7ee538","fixation cross","null","","","","","","","","","","","",""
"","872","html-keyboard-response","118","151869","0.0-11.0-1.9","ZApwugu7XI","5beccd423b6489000156596f","6617fad957f7c6a12ea16e26","6622dee863a409274c7ee538","image grid","p","","","","","Ontogenetic_Distractor_Nonthreat_target","2500","ongrid","p","7","Ontogenetic","true","experimental"
"","null","html-keyboard-response","119","152028","0.0-11.0-2.9","ZApwugu7XI","5beccd423b6489000156596f","6617fad957f7c6a12ea16e26","6622dee863a409274c7ee538","
    <div id=""grid-container"">
        <!-- Grid items will be dynamically added here -->
    </div>    ","null","","","","","","","","","","","",""
"","null","html-keyboard-response","120","152741","0.0-11.0-0.10","ZApwugu7XI","5beccd423b6489000156596f","6617fad957f7c6a12ea16e26","6622dee863a409274c7ee538","fixation cross","null","","","","","","","","","","","",""
"","1025","html-keyboard-response","121","153766","0.0-11.0-1.10","ZApwugu7XI","5beccd423b6489000156596f","6617fad957f7c6a12ea16e26","6622dee863a409274c7ee538","image grid","p","","","","","Ontogenetic_Distractor_notarget","2500","ongrid"," ","1","Ontogenetic","false","experimental"
"","null","html-keyboard-response","122","153931","0.0-11.0-2.10","ZApwugu7XI","5beccd423b6489000156596f","6617fad957f7c6a12ea16e26","6622dee863a409274c7ee538","
    <div id=""grid-container"">
        <!-- Grid items will be dynamically added here -->
    </div>    ","null","","","","","","","","","","","",""
"","null","html-keyboard-response","123","154643","0.0-11.0-0.11","ZApwugu7XI","5beccd423b6489000156596f","6617fad957f7c6a12ea16e26","6622dee863a409274c7ee538","fixation cross","null","","","","","","","","","","","",""
"","942","html-keyboard-response","124","155586","0.0-11.0-1.11","ZApwugu7XI","5beccd423b6489000156596f","6617fad957f7c6a12ea16e26","6622dee863a409274c7ee538","image grid","q","","","","","Ontogenetic_Distractor_Threat_target","2500","ongrid","q","4","Ontogenetic","true","experimental"
"","null","html-keyboard-response","125","155743","0.0-11.0-2.11","ZApwugu7XI","5beccd423b6489000156596f","6617fad957f7c6a12ea16e26","6622dee863a409274c7ee538","
    <div id=""grid-container"">
        <!-- Grid items will be dynamically added here -->
    </div>    ","null","","","","","","","","","","","",""
"","null","html-keyboard-response","126","156456","0.0-11.0-0.12","ZApwugu7XI","5beccd423b6489000156596f","6617fad957f7c6a12ea16e26","6622dee863a409274c7ee538","fixation cross","null","","","","","","","","","","","",""
"","1131","html-keyboard-response","127","157588","0.0-11.0-1.12","ZApwugu7XI","5beccd423b6489000156596f","6617fad957f7c6a12ea16e26","6622dee863a409274c7ee538","image grid","p","","","","","Ontogenetic_Distractor_Nonthreat_target","2500","ongrid","p","5","Ontogenetic","true","experimental"
"","null","html-keyboard-response","128","157742","0.0-11.0-2.12","ZApwugu7XI","5beccd423b6489000156596f","6617fad957f7c6a12ea16e26","6622dee863a409274c7ee538","
    <div id=""grid-container"">
        <!-- Grid items will be dynamically added here -->
    </div>    ","null","","","","","","","","","","","",""
"","null","html-keyboard-response","129","158453","0.0-11.0-0.13","ZApwugu7XI","5beccd423b6489000156596f","6617fad957f7c6a12ea16e26","6622dee863a409274c7ee538","fixation cross","null","","","","","","","","","","","",""
"","731","html-keyboard-response","130","159184","0.0-11.0-1.13","ZApwugu7XI","5beccd423b6489000156596f","6617fad957f7c6a12ea16e26","6622dee863a409274c7ee538","image grid","p","","","","","Ontogenetic_Distractor_Nonthreat_target","2500","ongrid","p","7","Ontogenetic","true","experimental"
"","null","html-keyboard-response","131","159350","0.0-11.0-2.13","ZApwugu7XI","5beccd423b6489000156596f","6617fad957f7c6a12ea16e26","6622dee863a409274c7ee538","
    <div id=""grid-container"">
        <!-- Grid items will be dynamically added here -->
    </div>    ","null","","","","","","","","","","","",""
"","null","html-keyboard-response","132","160062","0.0-11.0-0.14","ZApwugu7XI","5beccd423b6489000156596f","6617fad957f7c6a12ea16e26","6622dee863a409274c7ee538","fixation cross","null","","","","","","","","","","","",""
"","1298","html-keyboard-response","133","161361","0.0-11.0-1.14","ZApwugu7XI","5beccd423b6489000156596f","6617fad957f7c6a12ea16e26","6622dee863a409274c7ee538","image grid"," ","","","","","Ontogenetic_Distractor_Nonthreat_target","2500","ongrid","p","9","Ontogenetic","false","experimental"
"","null","html-keyboard-response","134","161515","0.0-11.0-2.14","ZApwugu7XI","5beccd423b6489000156596f","6617fad957f7c6a12ea16e26","6622dee863a409274c7ee538","
    <div id=""grid-container"">
        <!-- Grid items will be dynamically added here -->
    </div>    ","null","","","","","","","","","","","",""
"","null","html-keyboard-response","135","162230","0.0-11.0-0.15","ZApwugu7XI","5beccd423b6489000156596f","6617fad957f7c6a12ea16e26","6622dee863a409274c7ee538","fixation cross","null","","","","","","","","","","","",""
"","880","html-keyboard-response","136","163111","0.0-11.0-1.15","ZApwugu7XI","5beccd423b6489000156596f","6617fad957f7c6a12ea16e26","6622dee863a409274c7ee538","image grid","p","","","","","Ontogenetic_Distractor_Nonthreat_target","2500","ongrid","p","2","Ontogenetic","true","experimental"
"","null","html-keyboard-response","137","163267","0.0-11.0-2.15","ZApwugu7XI","5beccd423b6489000156596f","6617fad957f7c6a12ea16e26","6622dee863a409274c7ee538","
    <div id=""grid-container"">
        <!-- Grid items will be dynamically added here -->
    </div>    ","null","","","","","","","","","","","",""
"","null","html-keyboard-response","138","163972","0.0-11.0-0.16","ZApwugu7XI","5beccd423b6489000156596f","6617fad957f7c6a12ea16e26","6622dee863a409274c7ee538","fixation cross","null","","","","","","","","","","","",""
"","840","html-keyboard-response","139","164811","0.0-11.0-1.16","ZApwugu7XI","5beccd423b6489000156596f","6617fad957f7c6a12ea16e26","6622dee863a409274c7ee538","image grid","q","","","","","Ontogenetic_Distractor_Threat_target","2500","ongrid","q","8","Ontogenetic","true","experimental"
"","null","html-keyboard-response","140","164968","0.0-11.0-2.16","ZApwugu7XI","5beccd423b6489000156596f","6617fad957f7c6a12ea16e26","6622dee863a409274c7ee538","
    <div id=""grid-container"">
        <!-- Grid items will be dynamically added here -->
    </div>    ","null","","","","","","","","","","","",""
"","null","html-keyboard-response","141","165680","0.0-11.0-0.17","ZApwugu7XI","5beccd423b6489000156596f","6617fad957f7c6a12ea16e26","6622dee863a409274c7ee538","fixation cross","null","","","","","","","","","","","",""
"","1392","html-keyboard-response","142","167072","0.0-11.0-1.17","ZApwugu7XI","5beccd423b6489000156596f","6617fad957f7c6a12ea16e26","6622dee863a409274c7ee538","image grid"," ","","","","","Ontogenetic_Distractor_notarget","2500","ongrid"," ","8","Ontogenetic","true","experimental"
"","null","html-keyboard-response","143","167229","0.0-11.0-2.17","ZApwugu7XI","5beccd423b6489000156596f","6617fad957f7c6a12ea16e26","6622dee863a409274c7ee538","
    <div id=""grid-container"">
        <!-- Grid items will be dynamically added here -->
    </div>    ","null","","","","","","","","","","","",""
"","null","html-keyboard-response","144","167941","0.0-11.0-0.18","ZApwugu7XI","5beccd423b6489000156596f","6617fad957f7c6a12ea16e26","6622dee863a409274c7ee538","fixation cross","null","","","","","","","","","","","",""
"","1945","html-keyboard-response","145","169886","0.0-11.0-1.18","ZApwugu7XI","5beccd423b6489000156596f","6617fad957f7c6a12ea16e26","6622dee863a409274c7ee538","image grid"," ","","","","","Ontogenetic_Distractor_notarget","2500","ongrid"," ","9","Ontogenetic","true","experimental"
"","null","html-keyboard-response","146","170048","0.0-11.0-2.18","ZApwugu7XI","5beccd423b6489000156596f","6617fad957f7c6a12ea16e26","6622dee863a409274c7ee538","
    <div id=""grid-container"">
        <!-- Grid items will be dynamically added here -->
    </div>    ","null","","","","","","","","","","","",""
"","null","html-keyboard-response","147","170760","0.0-11.0-0.19","ZApwugu7XI","5beccd423b6489000156596f","6617fad957f7c6a12ea16e26","6622dee863a409274c7ee538","fixation cross","null","","","","","","","","","","","",""
"","1107","html-keyboard-response","148","171867","0.0-11.0-1.19","ZApwugu7XI","5beccd423b6489000156596f","6617fad957f7c6a12ea16e26","6622dee863a409274c7ee538","image grid","p","","","","","Ontogenetic_Distractor_Nonthreat_target","2500","ongrid","p","1","Ontogenetic","true","experimental"
"","null","html-keyboard-response","149","172028","0.0-11.0-2.19","ZApwugu7XI","5beccd423b6489000156596f","6617fad957f7c6a12ea16e26","6622dee863a409274c7ee538","
    <div id=""grid-container"">
        <!-- Grid items will be dynamically added here -->
    </div>    ","null","","","","","","","","","","","",""
"","null","html-keyboard-response","150","172741","0.0-11.0-0.20","ZApwugu7XI","5beccd423b6489000156596f","6617fad957f7c6a12ea16e26","6622dee863a409274c7ee538","fixation cross","null","","","","","","","","","","","",""
"","1282","html-keyboard-response","151","174023","0.0-11.0-1.20","ZApwugu7XI","5beccd423b6489000156596f","6617fad957f7c6a12ea16e26","6622dee863a409274c7ee538","image grid","p","","","","","Ontogenetic_Distractor_Nonthreat_target","2500","ongrid","p","5","Ontogenetic","true","experimental"
"","null","html-keyboard-response","152","174175","0.0-11.0-2.20","ZApwugu7XI","5beccd423b6489000156596f","6617fad957f7c6a12ea16e26","6622dee863a409274c7ee538","
    <div id=""grid-container"">
        <!-- Grid items will be dynamically added here -->
    </div>    ","null","","","","","","","","","","","",""
"","null","html-keyboard-response","153","174877","0.0-11.0-0.21","ZApwugu7XI","5beccd423b6489000156596f","6617fad957f7c6a12ea16e26","6622dee863a409274c7ee538","fixation cross","null","","","","","","","","","","","",""
"","790","html-keyboard-response","154","175668","0.0-11.0-1.21","ZApwugu7XI","5beccd423b6489000156596f","6617fad957f7c6a12ea16e26","6622dee863a409274c7ee538","image grid","p","","","","","Ontogenetic_Distractor_Nonthreat_target","2500","ongrid","p","1","Ontogenetic","true","experimental"
"","null","html-keyboard-response","155","175821","0.0-11.0-2.21","ZApwugu7XI","5beccd423b6489000156596f","6617fad957f7c6a12ea16e26","6622dee863a409274c7ee538","
    <div id=""grid-container"">
        <!-- Grid items will be dynamically added here -->
    </div>    ","null","","","","","","","","","","","",""
"","null","html-keyboard-response","156","176533","0.0-11.0-0.22","ZApwugu7XI","5beccd423b6489000156596f","6617fad957f7c6a12ea16e26","6622dee863a409274c7ee538","fixation cross","null","","","","","","","","","","","",""
"","1682","html-keyboard-response","157","178215","0.0-11.0-1.22","ZApwugu7XI","5beccd423b6489000156596f","6617fad957f7c6a12ea16e26","6622dee863a409274c7ee538","image grid","p","","","","","Ontogenetic_Distractor_Nonthreat_target","2500","ongrid","p","9","Ontogenetic","true","experimental"
"","null","html-keyboard-response","158","178370","0.0-11.0-2.22","ZApwugu7XI","5beccd423b6489000156596f","6617fad957f7c6a12ea16e26","6622dee863a409274c7ee538","
    <div id=""grid-container"">
        <!-- Grid items will be dynamically added here -->
    </div>    ","null","","","","","","","","","","","",""
"","null","html-keyboard-response","159","179087","0.0-11.0-0.23","ZApwugu7XI","5beccd423b6489000156596f","6617fad957f7c6a12ea16e26","6622dee863a409274c7ee538","fixation cross","null","","","","","","","","","","","",""
"","738","html-keyboard-response","160","179826","0.0-11.0-1.23","ZApwugu7XI","5beccd423b6489000156596f","6617fad957f7c6a12ea16e26","6622dee863a409274c7ee538","image grid","p","","","","","Ontogenetic_Distractor_Nonthreat_target","2500","ongrid","p","4","Ontogenetic","true","experimental"
"","null","html-keyboard-response","161","179982","0.0-11.0-2.23","ZApwugu7XI","5beccd423b6489000156596f","6617fad957f7c6a12ea16e26","6622dee863a409274c7ee538","
    <div id=""grid-container"">
        <!-- Grid items will be dynamically added here -->
    </div>    ","null","","","","","","","","","","","",""
"","null","html-keyboard-response","162","180696","0.0-11.0-0.24","ZApwugu7XI","5beccd423b6489000156596f","6617fad957f7c6a12ea16e26","6622dee863a409274c7ee538","fixation cross","null","","","","","","","","","","","",""
"","592","html-keyboard-response","163","181289","0.0-11.0-1.24","ZApwugu7XI","5beccd423b6489000156596f","6617fad957f7c6a12ea16e26","6622dee863a409274c7ee538","image grid","q","","","","","Ontogenetic_Distractor_Threat_target","2500","ongrid","q","4","Ontogenetic","true","experimental"
"","null","html-keyboard-response","164","181455","0.0-11.0-2.24","ZApwugu7XI","5beccd423b6489000156596f","6617fad957f7c6a12ea16e26","6622dee863a409274c7ee538","
    <div id=""grid-container"">
        <!-- Grid items will be dynamically added here -->
    </div>    ","null","","","","","","","","","","","",""
"","null","html-keyboard-response","165","182167","0.0-11.0-0.25","ZApwugu7XI","5beccd423b6489000156596f","6617fad957f7c6a12ea16e26","6622dee863a409274c7ee538","fixation cross","null","","","","","","","","","","","",""
"","781","html-keyboard-response","166","182947","0.0-11.0-1.25","ZApwugu7XI","5beccd423b6489000156596f","6617fad957f7c6a12ea16e26","6622dee863a409274c7ee538","image grid","q","","","","","Ontogenetic_Distractor_Threat_target","2500","ongrid","q","4","Ontogenetic","true","experimental"
"","null","html-keyboard-response","167","183111","0.0-11.0-2.25","ZApwugu7XI","5beccd423b6489000156596f","6617fad957f7c6a12ea16e26","6622dee863a409274c7ee538","
    <div id=""grid-container"">
        <!-- Grid items will be dynamically added here -->
    </div>    ","null","","","","","","","","","","","",""
"","null","html-keyboard-response","168","183821","0.0-11.0-0.26","ZApwugu7XI","5beccd423b6489000156596f","6617fad957f7c6a12ea16e26","6622dee863a409274c7ee538","fixation cross","null","","","","","","","","","","","",""
"","904","html-keyboard-response","169","184725","0.0-11.0-1.26","ZApwugu7XI","5beccd423b6489000156596f","6617fad957f7c6a12ea16e26","6622dee863a409274c7ee538","image grid","q","","","","","Ontogenetic_Distractor_Threat_target","2500","ongrid","q","6","Ontogenetic","true","experimental"
"","null","html-keyboard-response","170","184889","0.0-11.0-2.26","ZApwugu7XI","5beccd423b6489000156596f","6617fad957f7c6a12ea16e26","6622dee863a409274c7ee538","
    <div id=""grid-container"">
        <!-- Grid items will be dynamically added here -->
    </div>    ","null","","","","","","","","","","","",""
"","null","html-keyboard-response","171","185594","0.0-11.0-0.27","ZApwugu7XI","5beccd423b6489000156596f","6617fad957f7c6a12ea16e26","6622dee863a409274c7ee538","fixation cross","null","","","","","","","","","","","",""
"","916","html-keyboard-response","172","186510","0.0-11.0-1.27","ZApwugu7XI","5beccd423b6489000156596f","6617fad957f7c6a12ea16e26","6622dee863a409274c7ee538","image grid","q","","","","","Ontogenetic_Distractor_Threat_target","2500","ongrid","q","1","Ontogenetic","true","experimental"
"","null","html-keyboard-response","173","186669","0.0-11.0-2.27","ZApwugu7XI","5beccd423b6489000156596f","6617fad957f7c6a12ea16e26","6622dee863a409274c7ee538","
    <div id=""grid-container"">
        <!-- Grid items will be dynamically added here -->
    </div>    ","null","","","","","","","","","","","",""
"","null","html-keyboard-response","174","187380","0.0-11.0-0.28","ZApwugu7XI","5beccd423b6489000156596f","6617fad957f7c6a12ea16e26","6622dee863a409274c7ee538","fixation cross","null","","","","","","","","","","","",""
"","1160","html-keyboard-response","175","188540","0.0-11.0-1.28","ZApwugu7XI","5beccd423b6489000156596f","6617fad957f7c6a12ea16e26","6622dee863a409274c7ee538","image grid","q","","","","","Ontogenetic_Distractor_Threat_target","2500","ongrid","q","6","Ontogenetic","true","experimental"
"","null","html-keyboard-response","176","188696","0.0-11.0-2.28","ZApwugu7XI","5beccd423b6489000156596f","6617fad957f7c6a12ea16e26","6622dee863a409274c7ee538","
    <div id=""grid-container"">
        <!-- Grid items will be dynamically added here -->
    </div>    ","null","","","","","","","","","","","",""
"","null","html-keyboard-response","177","189400","0.0-11.0-0.29","ZApwugu7XI","5beccd423b6489000156596f","6617fad957f7c6a12ea16e26","6622dee863a409274c7ee538","fixation cross","null","","","","","","","","","","","",""
"","931","html-keyboard-response","178","190332","0.0-11.0-1.29","ZApwugu7XI","5beccd423b6489000156596f","6617fad957f7c6a12ea16e26","6622dee863a409274c7ee538","image grid","q","","","","","Ontogenetic_Distractor_Threat_target","2500","ongrid","q","3","Ontogenetic","true","experimental"
"","null","html-keyboard-response","179","190493","0.0-11.0-2.29","ZApwugu7XI","5beccd423b6489000156596f","6617fad957f7c6a12ea16e26","6622dee863a409274c7ee538","
    <div id=""grid-container"">
        <!-- Grid items will be dynamically added here -->
    </div>    ","null","","","","","","","","","","","",""
"","null","html-keyboard-response","180","191199","0.0-11.0-0.30","ZApwugu7XI","5beccd423b6489000156596f","6617fad957f7c6a12ea16e26","6622dee863a409274c7ee538","fixation cross","null","","","","","","","","","","","",""
"","875","html-keyboard-response","181","192075","0.0-11.0-1.30","ZApwugu7XI","5beccd423b6489000156596f","6617fad957f7c6a12ea16e26","6622dee863a409274c7ee538","image grid","q","","","","","Ontogenetic_Distractor_Threat_target","2500","ongrid","q","9","Ontogenetic","true","experimental"
"","null","html-keyboard-response","182","192227","0.0-11.0-2.30","ZApwugu7XI","5beccd423b6489000156596f","6617fad957f7c6a12ea16e26","6622dee863a409274c7ee538","
    <div id=""grid-container"">
        <!-- Grid items will be dynamically added here -->
    </div>    ","null","","","","","","","","","","","",""
"","null","html-keyboard-response","183","192939","0.0-11.0-0.31","ZApwugu7XI","5beccd423b6489000156596f","6617fad957f7c6a12ea16e26","6622dee863a409274c7ee538","fixation cross","null","","","","","","","","","","","",""
"","815","html-keyboard-response","184","193755","0.0-11.0-1.31","ZApwugu7XI","5beccd423b6489000156596f","6617fad957f7c6a12ea16e26","6622dee863a409274c7ee538","image grid","q","","","","","Ontogenetic_Distractor_Threat_target","2500","ongrid","q","1","Ontogenetic","true","experimental"
"","null","html-keyboard-response","185","193914","0.0-11.0-2.31","ZApwugu7XI","5beccd423b6489000156596f","6617fad957f7c6a12ea16e26","6622dee863a409274c7ee538","
    <div id=""grid-container"">
        <!-- Grid items will be dynamically added here -->
    </div>    ","null","","","","","","","","","","","",""
"","null","html-keyboard-response","186","194642","0.0-11.0-0.32","ZApwugu7XI","5beccd423b6489000156596f","6617fad957f7c6a12ea16e26","6622dee863a409274c7ee538","fixation cross","null","","","","","","","","","","","",""
"","1542","html-keyboard-response","187","196184","0.0-11.0-1.32","ZApwugu7XI","5beccd423b6489000156596f","6617fad957f7c6a12ea16e26","6622dee863a409274c7ee538","image grid","p","","","","","Ontogenetic_Distractor_Nonthreat_target","2500","ongrid","p","3","Ontogenetic","true","experimental"
"","null","html-keyboard-response","188","196345","0.0-11.0-2.32","ZApwugu7XI","5beccd423b6489000156596f","6617fad957f7c6a12ea16e26","6622dee863a409274c7ee538","
    <div id=""grid-container"">
        <!-- Grid items will be dynamically added here -->
    </div>    ","null","","","","","","","","","","","",""
"","null","html-keyboard-response","189","197057","0.0-11.0-0.33","ZApwugu7XI","5beccd423b6489000156596f","6617fad957f7c6a12ea16e26","6622dee863a409274c7ee538","fixation cross","null","","","","","","","","","","","",""
"","1836","html-keyboard-response","190","198892","0.0-11.0-1.33","ZApwugu7XI","5beccd423b6489000156596f","6617fad957f7c6a12ea16e26","6622dee863a409274c7ee538","image grid","q","","","","","Ontogenetic_Distractor_Threat_target","2500","ongrid","q","9","Ontogenetic","true","experimental"
"","null","html-keyboard-response","191","199053","0.0-11.0-2.33","ZApwugu7XI","5beccd423b6489000156596f","6617fad957f7c6a12ea16e26","6622dee863a409274c7ee538","
    <div id=""grid-container"">
        <!-- Grid items will be dynamically added here -->
    </div>    ","null","","","","","","","","","","","",""
"","null","html-keyboard-response","192","199768","0.0-11.0-0.34","ZApwugu7XI","5beccd423b6489000156596f","6617fad957f7c6a12ea16e26","6622dee863a409274c7ee538","fixation cross","null","","","","","","","","","","","",""
"","853","html-keyboard-response","193","200621","0.0-11.0-1.34","ZApwugu7XI","5beccd423b6489000156596f","6617fad957f7c6a12ea16e26","6622dee863a409274c7ee538","image grid","p","","","","","Ontogenetic_Distractor_Nonthreat_target","2500","ongrid","p","3","Ontogenetic","true","experimental"
"","null","html-keyboard-response","194","200774","0.0-11.0-2.34","ZApwugu7XI","5beccd423b6489000156596f","6617fad957f7c6a12ea16e26","6622dee863a409274c7ee538","
    <div id=""grid-container"">
        <!-- Grid items will be dynamically added here -->
    </div>    ","null","","","","","","","","","","","",""
"","null","html-keyboard-response","195","201487","0.0-11.0-0.35","ZApwugu7XI","5beccd423b6489000156596f","6617fad957f7c6a12ea16e26","6622dee863a409274c7ee538","fixation cross","null","","","","","","","","","","","",""
"","919","html-keyboard-response","196","202406","0.0-11.0-1.35","ZApwugu7XI","5beccd423b6489000156596f","6617fad957f7c6a12ea16e26","6622dee863a409274c7ee538","image grid","p","","","","","Ontogenetic_Distractor_Nonthreat_target","2500","ongrid","p","4","Ontogenetic","true","experimental"
"","null","html-keyboard-response","197","202571","0.0-11.0-2.35","ZApwugu7XI","5beccd423b6489000156596f","6617fad957f7c6a12ea16e26","6622dee863a409274c7ee538","
    <div id=""grid-container"">
        <!-- Grid items will be dynamically added here -->
    </div>    ","null","","","","","","","","","","","",""
"","null","html-keyboard-response","198","203283","0.0-11.0-0.36","ZApwugu7XI","5beccd423b6489000156596f","6617fad957f7c6a12ea16e26","6622dee863a409274c7ee538","fixation cross","null","","","","","","","","","","","",""
"","950","html-keyboard-response","199","204233","0.0-11.0-1.36","ZApwugu7XI","5beccd423b6489000156596f","6617fad957f7c6a12ea16e26","6622dee863a409274c7ee538","image grid","q","","","","","Ontogenetic_Distractor_Threat_target","2500","ongrid","q","9","Ontogenetic","true","experimental"
"","null","html-keyboard-response","200","204389","0.0-11.0-2.36","ZApwugu7XI","5beccd423b6489000156596f","6617fad957f7c6a12ea16e26","6622dee863a409274c7ee538","
    <div id=""grid-container"">
        <!-- Grid items will be dynamically added here -->
    </div>    ","null","","","","","","","","","","","",""
"","null","html-keyboard-response","201","205095","0.0-11.0-0.37","ZApwugu7XI","5beccd423b6489000156596f","6617fad957f7c6a12ea16e26","6622dee863a409274c7ee538","fixation cross","null","","","","","","","","","","","",""
"","1224","html-keyboard-response","202","206319","0.0-11.0-1.37","ZApwugu7XI","5beccd423b6489000156596f","6617fad957f7c6a12ea16e26","6622dee863a409274c7ee538","image grid","p","","","","","Ontogenetic_Distractor_Nonthreat_target","2500","ongrid","p","2","Ontogenetic","true","experimental"
"","null","html-keyboard-response","203","206474","0.0-11.0-2.37","ZApwugu7XI","5beccd423b6489000156596f","6617fad957f7c6a12ea16e26","6622dee863a409274c7ee538","
    <div id=""grid-container"">
        <!-- Grid items will be dynamically added here -->
    </div>    ","null","","","","","","","","","","","",""
"","null","html-keyboard-response","204","207181","0.0-11.0-0.38","ZApwugu7XI","5beccd423b6489000156596f","6617fad957f7c6a12ea16e26","6622dee863a409274c7ee538","fixation cross","null","","","","","","","","","","","",""
"","873","html-keyboard-response","205","208055","0.0-11.0-1.38","ZApwugu7XI","5beccd423b6489000156596f","6617fad957f7c6a12ea16e26","6622dee863a409274c7ee538","image grid","q","","","","","Ontogenetic_Distractor_Threat_target","2500","ongrid","q","1","Ontogenetic","true","experimental"
"","null","html-keyboard-response","206","208207","0.0-11.0-2.38","ZApwugu7XI","5beccd423b6489000156596f","6617fad957f7c6a12ea16e26","6622dee863a409274c7ee538","
    <div id=""grid-container"">
        <!-- Grid items will be dynamically added here -->
    </div>    ","null","","","","","","","","","","","",""
"","null","html-keyboard-response","207","208919","0.0-11.0-0.39","ZApwugu7XI","5beccd423b6489000156596f","6617fad957f7c6a12ea16e26","6622dee863a409274c7ee538","fixation cross","null","","","","","","","","","","","",""
"","907","html-keyboard-response","208","209826","0.0-11.0-1.39","ZApwugu7XI","5beccd423b6489000156596f","6617fad957f7c6a12ea16e26","6622dee863a409274c7ee538","image grid","p","","","","","Ontogenetic_Distractor_Nonthreat_target","2500","ongrid","p","5","Ontogenetic","true","experimental"
"","null","html-keyboard-response","209","209980","0.0-11.0-2.39","ZApwugu7XI","5beccd423b6489000156596f","6617fad957f7c6a12ea16e26","6622dee863a409274c7ee538","
    <div id=""grid-container"">
        <!-- Grid items will be dynamically added here -->
    </div>    ","null","","","","","","","","","","","",""
"","2791","html-keyboard-response","210","212989","0.0-12.0","ZApwugu7XI","5beccd423b6489000156596f","6617fad957f7c6a12ea16e26","6622dee863a409274c7ee538","break screen"," ","","","","","","","","","","","",""
"","null","html-keyboard-response","211","215496","0.0-13.0-0.0","ZApwugu7XI","5beccd423b6489000156596f","6617fad957f7c6a12ea16e26","6622dee863a409274c7ee538","fixation cross","null","","","","","","","","","","","",""
"","null","html-keyboard-response","212","216302","0.0-13.0-1.0","ZApwugu7XI","5beccd423b6489000156596f","6617fad957f7c6a12ea16e26","6622dee863a409274c7ee538","
        <div id=""grid-container"">
        <!-- Grid items will be dynamically added here -->
    </div>    ","null","","","","","","","","","","","",""
"","1211","html-keyboard-response","213","216713","0.0-13.0-2.0","ZApwugu7XI","5beccd423b6489000156596f","6617fad957f7c6a12ea16e26","6622dee863a409274c7ee538","mask grid","q","","","","","Ontogenetic_Distractor_Threat_target","800","onmask","q","6","Ontogenetic","true","experimental"
"","null","html-keyboard-response","214","217432","0.0-13.0-0.1","ZApwugu7XI","5beccd423b6489000156596f","6617fad957f7c6a12ea16e26","6622dee863a409274c7ee538","fixation cross","null","","","","","","","","","","","",""
"","758","html-keyboard-response","215","218190","0.0-13.0-1.1","ZApwugu7XI","5beccd423b6489000156596f","6617fad957f7c6a12ea16e26","6622dee863a409274c7ee538","image grid","p","","","","","Ontogenetic_Distractor_Nonthreat_target","800","ongrid","p","8","Ontogenetic","true","experimental"
"","null","html-keyboard-response","216","218345","0.0-13.0-2.1","ZApwugu7XI","5beccd423b6489000156596f","6617fad957f7c6a12ea16e26","6622dee863a409274c7ee538","
    <div id=""grid-container"">
        <!-- Grid items will be dynamically added here -->
    </div>    ","null","","","","","","","","","","","",""
"","null","html-keyboard-response","217","219071","0.0-13.0-0.2","ZApwugu7XI","5beccd423b6489000156596f","6617fad957f7c6a12ea16e26","6622dee863a409274c7ee538","fixation cross","null","","","","","","","","","","","",""
"","638","html-keyboard-response","218","219709","0.0-13.0-1.2","ZApwugu7XI","5beccd423b6489000156596f","6617fad957f7c6a12ea16e26","6622dee863a409274c7ee538","image grid","q","","","","","Ontogenetic_Distractor_Threat_target","800","ongrid","q","3","Ontogenetic","true","experimental"
"","null","html-keyboard-response","219","219861","0.0-13.0-2.2","ZApwugu7XI","5beccd423b6489000156596f","6617fad957f7c6a12ea16e26","6622dee863a409274c7ee538","
    <div id=""grid-container"">
        <!-- Grid items will be dynamically added here -->
    </div>    ","null","","","","","","","","","","","",""
"","null","html-keyboard-response","220","220566","0.0-13.0-0.3","ZApwugu7XI","5beccd423b6489000156596f","6617fad957f7c6a12ea16e26","6622dee863a409274c7ee538","fixation cross","null","","","","","","","","","","","",""
"","null","html-keyboard-response","221","221372","0.0-13.0-1.3","ZApwugu7XI","5beccd423b6489000156596f","6617fad957f7c6a12ea16e26","6622dee863a409274c7ee538","
        <div id=""grid-container"">
        <!-- Grid items will be dynamically added here -->
    </div>    ","null","","","","","","","","","","","",""
"","3274","html-keyboard-response","222","223845","0.0-13.0-2.3","ZApwugu7XI","5beccd423b6489000156596f","6617fad957f7c6a12ea16e26","6622dee863a409274c7ee538","mask grid"," ","","","","","Ontogenetic_Distractor_Nonthreat_target","800","onmask","p","2","Ontogenetic","false","experimental"
"","null","html-keyboard-response","223","224565","0.0-13.0-0.4","ZApwugu7XI","5beccd423b6489000156596f","6617fad957f7c6a12ea16e26","6622dee863a409274c7ee538","fixation cross","null","","","","","","","","","","","",""
"","667","html-keyboard-response","224","225231","0.0-13.0-1.4","ZApwugu7XI","5beccd423b6489000156596f","6617fad957f7c6a12ea16e26","6622dee863a409274c7ee538","image grid","p","","","","","Ontogenetic_Distractor_Nonthreat_target","800","ongrid","p","2","Ontogenetic","true","experimental"
"","null","html-keyboard-response","225","225385","0.0-13.0-2.4","ZApwugu7XI","5beccd423b6489000156596f","6617fad957f7c6a12ea16e26","6622dee863a409274c7ee538","
    <div id=""grid-container"">
        <!-- Grid items will be dynamically added here -->
    </div>    ","null","","","","","","","","","","","",""
"","null","html-keyboard-response","226","226098","0.0-13.0-0.5","ZApwugu7XI","5beccd423b6489000156596f","6617fad957f7c6a12ea16e26","6622dee863a409274c7ee538","fixation cross","null","","","","","","","","","","","",""
"","799","html-keyboard-response","227","226897","0.0-13.0-1.5","ZApwugu7XI","5beccd423b6489000156596f","6617fad957f7c6a12ea16e26","6622dee863a409274c7ee538","image grid","q","","","","","Ontogenetic_Distractor_Nonthreat_target","800","ongrid","p","9","Ontogenetic","false","experimental"
"","null","html-keyboard-response","228","227057","0.0-13.0-2.5","ZApwugu7XI","5beccd423b6489000156596f","6617fad957f7c6a12ea16e26","6622dee863a409274c7ee538","
    <div id=""grid-container"">
        <!-- Grid items will be dynamically added here -->
    </div>    ","null","","","","","","","","","","","",""
"","null","html-keyboard-response","229","227768","0.0-13.0-0.6","ZApwugu7XI","5beccd423b6489000156596f","6617fad957f7c6a12ea16e26","6622dee863a409274c7ee538","fixation cross","null","","","","","","","","","","","",""
"","774","html-keyboard-response","230","228542","0.0-13.0-1.6","ZApwugu7XI","5beccd423b6489000156596f","6617fad957f7c6a12ea16e26","6622dee863a409274c7ee538","image grid","q","","","","","Ontogenetic_Distractor_Threat_target","800","ongrid","q","8","Ontogenetic","true","experimental"
"","null","html-keyboard-response","231","228695","0.0-13.0-2.6","ZApwugu7XI","5beccd423b6489000156596f","6617fad957f7c6a12ea16e26","6622dee863a409274c7ee538","
    <div id=""grid-container"">
        <!-- Grid items will be dynamically added here -->
    </div>    ","null","","","","","","","","","","","",""
"","null","html-keyboard-response","232","229401","0.0-13.0-0.7","ZApwugu7XI","5beccd423b6489000156596f","6617fad957f7c6a12ea16e26","6622dee863a409274c7ee538","fixation cross","null","","","","","","","","","","","",""
"","800","html-keyboard-response","233","230201","0.0-13.0-1.7","ZApwugu7XI","5beccd423b6489000156596f","6617fad957f7c6a12ea16e26","6622dee863a409274c7ee538","image grid","p","","","","","Ontogenetic_Distractor_Nonthreat_target","800","ongrid","p","5","Ontogenetic","true","experimental"
"","null","html-keyboard-response","234","230366","0.0-13.0-2.7","ZApwugu7XI","5beccd423b6489000156596f","6617fad957f7c6a12ea16e26","6622dee863a409274c7ee538","
    <div id=""grid-container"">
        <!-- Grid items will be dynamically added here -->
    </div>    ","null","","","","","","","","","","","",""
"","null","html-keyboard-response","235","231077","0.0-13.0-0.8","ZApwugu7XI","5beccd423b6489000156596f","6617fad957f7c6a12ea16e26","6622dee863a409274c7ee538","fixation cross","null","","","","","","","","","","","",""
"","663","html-keyboard-response","236","231741","0.0-13.0-1.8","ZApwugu7XI","5beccd423b6489000156596f","6617fad957f7c6a12ea16e26","6622dee863a409274c7ee538","image grid","p","","","","","Ontogenetic_Distractor_Nonthreat_target","800","ongrid","p","6","Ontogenetic","true","experimental"
"","null","html-keyboard-response","237","231898","0.0-13.0-2.8","ZApwugu7XI","5beccd423b6489000156596f","6617fad957f7c6a12ea16e26","6622dee863a409274c7ee538","
    <div id=""grid-container"">
        <!-- Grid items will be dynamically added here -->
    </div>    ","null","","","","","","","","","","","",""
"","null","html-keyboard-response","238","232603","0.0-13.0-0.9","ZApwugu7XI","5beccd423b6489000156596f","6617fad957f7c6a12ea16e26","6622dee863a409274c7ee538","fixation cross","null","","","","","","","","","","","",""
"","null","html-keyboard-response","239","233416","0.0-13.0-1.9","ZApwugu7XI","5beccd423b6489000156596f","6617fad957f7c6a12ea16e26","6622dee863a409274c7ee538","
        <div id=""grid-container"">
        <!-- Grid items will be dynamically added here -->
    </div>    ","null","","","","","","","","","","","",""
"","1113","html-keyboard-response","240","233729","0.0-13.0-2.9","ZApwugu7XI","5beccd423b6489000156596f","6617fad957f7c6a12ea16e26","6622dee863a409274c7ee538","mask grid"," ","","","","","Ontogenetic_Distractor_Nonthreat_target","800","onmask","p","4","Ontogenetic","false","experimental"
"","32","html-keyboard-response","241","234451","0.0-13.0-0.10","ZApwugu7XI","5beccd423b6489000156596f","6617fad957f7c6a12ea16e26","6622dee863a409274c7ee538","fixation cross"," ","","","","","","","","","","","",""
"","656","html-keyboard-response","242","235108","0.0-13.0-1.10","ZApwugu7XI","5beccd423b6489000156596f","6617fad957f7c6a12ea16e26","6622dee863a409274c7ee538","image grid","q","","","","","Ontogenetic_Distractor_Threat_target","800","ongrid","q","4","Ontogenetic","true","experimental"
"","null","html-keyboard-response","243","235269","0.0-13.0-2.10","ZApwugu7XI","5beccd423b6489000156596f","6617fad957f7c6a12ea16e26","6622dee863a409274c7ee538","
    <div id=""grid-container"">
        <!-- Grid items will be dynamically added here -->
    </div>    ","null","","","","","","","","","","","",""
"","null","html-keyboard-response","244","235979","0.0-13.0-0.11","ZApwugu7XI","5beccd423b6489000156596f","6617fad957f7c6a12ea16e26","6622dee863a409274c7ee538","fixation cross","null","","","","","","","","","","","",""
"","599","html-keyboard-response","245","236577","0.0-13.0-1.11","ZApwugu7XI","5beccd423b6489000156596f","6617fad957f7c6a12ea16e26","6622dee863a409274c7ee538","image grid","q","","","","","Ontogenetic_Distractor_Threat_target","800","ongrid","q","5","Ontogenetic","true","experimental"
"","null","html-keyboard-response","246","236742","0.0-13.0-2.11","ZApwugu7XI","5beccd423b6489000156596f","6617fad957f7c6a12ea16e26","6622dee863a409274c7ee538","
    <div id=""grid-container"">
        <!-- Grid items will be dynamically added here -->
    </div>    ","null","","","","","","","","","","","",""
"","null","html-keyboard-response","247","237454","0.0-13.0-0.12","ZApwugu7XI","5beccd423b6489000156596f","6617fad957f7c6a12ea16e26","6622dee863a409274c7ee538","fixation cross","null","","","","","","","","","","","",""
"","622","html-keyboard-response","248","238075","0.0-13.0-1.12","ZApwugu7XI","5beccd423b6489000156596f","6617fad957f7c6a12ea16e26","6622dee863a409274c7ee538","image grid","q","","","","","Ontogenetic_Distractor_Threat_target","800","ongrid","q","2","Ontogenetic","true","experimental"
"","null","html-keyboard-response","249","238227","0.0-13.0-2.12","ZApwugu7XI","5beccd423b6489000156596f","6617fad957f7c6a12ea16e26","6622dee863a409274c7ee538","
    <div id=""grid-container"">
        <!-- Grid items will be dynamically added here -->
    </div>    ","null","","","","","","","","","","","",""
"","null","html-keyboard-response","250","238939","0.0-13.0-0.13","ZApwugu7XI","5beccd423b6489000156596f","6617fad957f7c6a12ea16e26","6622dee863a409274c7ee538","fixation cross","null","","","","","","","","","","","",""
"","676","html-keyboard-response","251","239616","0.0-13.0-1.13","ZApwugu7XI","5beccd423b6489000156596f","6617fad957f7c6a12ea16e26","6622dee863a409274c7ee538","image grid","q","","","","","Ontogenetic_Distractor_Threat_target","800","ongrid","q","5","Ontogenetic","true","experimental"
"","null","html-keyboard-response","252","239771","0.0-13.0-2.13","ZApwugu7XI","5beccd423b6489000156596f","6617fad957f7c6a12ea16e26","6622dee863a409274c7ee538","
    <div id=""grid-container"">
        <!-- Grid items will be dynamically added here -->
    </div>    ","null","","","","","","","","","","","",""
"","null","html-keyboard-response","253","240486","0.0-13.0-0.14","ZApwugu7XI","5beccd423b6489000156596f","6617fad957f7c6a12ea16e26","6622dee863a409274c7ee538","fixation cross","null","","","","","","","","","","","",""
"","null","html-keyboard-response","254","241291","0.0-13.0-1.14","ZApwugu7XI","5beccd423b6489000156596f","6617fad957f7c6a12ea16e26","6622dee863a409274c7ee538","
        <div id=""grid-container"">
        <!-- Grid items will be dynamically added here -->
    </div>    ","null","","","","","","","","","","","",""
"","994","html-keyboard-response","255","241485","0.0-13.0-2.14","ZApwugu7XI","5beccd423b6489000156596f","6617fad957f7c6a12ea16e26","6622dee863a409274c7ee538","mask grid","p","","","","","Ontogenetic_Distractor_Threat_target","800","onmask","q","5","Ontogenetic","false","experimental"
"","null","html-keyboard-response","256","242196","0.0-13.0-0.15","ZApwugu7XI","5beccd423b6489000156596f","6617fad957f7c6a12ea16e26","6622dee863a409274c7ee538","fixation cross","null","","","","","","","","","","","",""
"","703","html-keyboard-response","257","242899","0.0-13.0-1.15","ZApwugu7XI","5beccd423b6489000156596f","6617fad957f7c6a12ea16e26","6622dee863a409274c7ee538","image grid","p","","","","","Ontogenetic_Distractor_Nonthreat_target","800","ongrid","p","6","Ontogenetic","true","experimental"
"","null","html-keyboard-response","258","243056","0.0-13.0-2.15","ZApwugu7XI","5beccd423b6489000156596f","6617fad957f7c6a12ea16e26","6622dee863a409274c7ee538","
    <div id=""grid-container"">
        <!-- Grid items will be dynamically added here -->
    </div>    ","null","","","","","","","","","","","",""
"","null","html-keyboard-response","259","243768","0.0-13.0-0.16","ZApwugu7XI","5beccd423b6489000156596f","6617fad957f7c6a12ea16e26","6622dee863a409274c7ee538","fixation cross","null","","","","","","","","","","","",""
"","null","html-keyboard-response","260","244571","0.0-13.0-1.16","ZApwugu7XI","5beccd423b6489000156596f","6617fad957f7c6a12ea16e26","6622dee863a409274c7ee538","
        <div id=""grid-container"">
        <!-- Grid items will be dynamically added here -->
    </div>    ","null","","","","","","","","","","","",""
"","829","html-keyboard-response","261","244600","0.0-13.0-2.16","ZApwugu7XI","5beccd423b6489000156596f","6617fad957f7c6a12ea16e26","6622dee863a409274c7ee538","mask grid","q","","","","","Ontogenetic_Distractor_Threat_target","800","onmask","q","3","Ontogenetic","true","experimental"
"","null","html-keyboard-response","262","245315","0.0-13.0-0.17","ZApwugu7XI","5beccd423b6489000156596f","6617fad957f7c6a12ea16e26","6622dee863a409274c7ee538","fixation cross","null","","","","","","","","","","","",""
"","null","html-keyboard-response","263","246120","0.0-13.0-1.17","ZApwugu7XI","5beccd423b6489000156596f","6617fad957f7c6a12ea16e26","6622dee863a409274c7ee538","
        <div id=""grid-container"">
        <!-- Grid items will be dynamically added here -->
    </div>    ","null","","","","","","","","","","","",""
"","861","html-keyboard-response","264","246181","0.0-13.0-2.17","ZApwugu7XI","5beccd423b6489000156596f","6617fad957f7c6a12ea16e26","6622dee863a409274c7ee538","mask grid","p","","","","","Ontogenetic_Distractor_Nonthreat_target","800","onmask","p","8","Ontogenetic","true","experimental"
"","null","html-keyboard-response","265","246894","0.0-13.0-0.18","ZApwugu7XI","5beccd423b6489000156596f","6617fad957f7c6a12ea16e26","6622dee863a409274c7ee538","fixation cross","null","","","","","","","","","","","",""
"","722","html-keyboard-response","266","247616","0.0-13.0-1.18","ZApwugu7XI","5beccd423b6489000156596f","6617fad957f7c6a12ea16e26","6622dee863a409274c7ee538","image grid","q","","","","","Ontogenetic_Distractor_Threat_target","800","ongrid","q","4","Ontogenetic","true","experimental"
"","null","html-keyboard-response","267","247773","0.0-13.0-2.18","ZApwugu7XI","5beccd423b6489000156596f","6617fad957f7c6a12ea16e26","6622dee863a409274c7ee538","
    <div id=""grid-container"">
        <!-- Grid items will be dynamically added here -->
    </div>    ","null","","","","","","","","","","","",""
"","null","html-keyboard-response","268","248487","0.0-13.0-0.19","ZApwugu7XI","5beccd423b6489000156596f","6617fad957f7c6a12ea16e26","6622dee863a409274c7ee538","fixation cross","null","","","","","","","","","","","",""
"","697","html-keyboard-response","269","249184","0.0-13.0-1.19","ZApwugu7XI","5beccd423b6489000156596f","6617fad957f7c6a12ea16e26","6622dee863a409274c7ee538","image grid","p","","","","","Ontogenetic_Distractor_Nonthreat_target","800","ongrid","p","4","Ontogenetic","true","experimental"
"","null","html-keyboard-response","270","249339","0.0-13.0-2.19","ZApwugu7XI","5beccd423b6489000156596f","6617fad957f7c6a12ea16e26","6622dee863a409274c7ee538","
    <div id=""grid-container"">
        <!-- Grid items will be dynamically added here -->
    </div>    ","null","","","","","","","","","","","",""
"","null","html-keyboard-response","271","250051","0.0-13.0-0.20","ZApwugu7XI","5beccd423b6489000156596f","6617fad957f7c6a12ea16e26","6622dee863a409274c7ee538","fixation cross","null","","","","","","","","","","","",""
"","750","html-keyboard-response","272","250801","0.0-13.0-1.20","ZApwugu7XI","5beccd423b6489000156596f","6617fad957f7c6a12ea16e26","6622dee863a409274c7ee538","image grid","q","","","","","Ontogenetic_Distractor_Threat_target","800","ongrid","q","1","Ontogenetic","true","experimental"
"","null","html-keyboard-response","273","250963","0.0-13.0-2.20","ZApwugu7XI","5beccd423b6489000156596f","6617fad957f7c6a12ea16e26","6622dee863a409274c7ee538","
    <div id=""grid-container"">
        <!-- Grid items will be dynamically added here -->
    </div>    ","null","","","","","","","","","","","",""
"","null","html-keyboard-response","274","251675","0.0-13.0-0.21","ZApwugu7XI","5beccd423b6489000156596f","6617fad957f7c6a12ea16e26","6622dee863a409274c7ee538","fixation cross","null","","","","","","","","","","","",""
"","735","html-keyboard-response","275","252411","0.0-13.0-1.21","ZApwugu7XI","5beccd423b6489000156596f","6617fad957f7c6a12ea16e26","6622dee863a409274c7ee538","image grid"," ","","","","","Ontogenetic_Distractor_notarget","800","ongrid"," ","2","Ontogenetic","true","experimental"
"","null","html-keyboard-response","276","252565","0.0-13.0-2.21","ZApwugu7XI","5beccd423b6489000156596f","6617fad957f7c6a12ea16e26","6622dee863a409274c7ee538","
    <div id=""grid-container"">
        <!-- Grid items will be dynamically added here -->
    </div>    ","null","","","","","","","","","","","",""
"","null","html-keyboard-response","277","253269","0.0-13.0-0.22","ZApwugu7XI","5beccd423b6489000156596f","6617fad957f7c6a12ea16e26","6622dee863a409274c7ee538","fixation cross","null","","","","","","","","","","","",""
"","423","html-keyboard-response","278","253692","0.0-13.0-1.22","ZApwugu7XI","5beccd423b6489000156596f","6617fad957f7c6a12ea16e26","6622dee863a409274c7ee538","image grid","p","","","","","Ontogenetic_Distractor_Nonthreat_target","800","ongrid","p","5","Ontogenetic","true","experimental"
"","null","html-keyboard-response","279","253856","0.0-13.0-2.22","ZApwugu7XI","5beccd423b6489000156596f","6617fad957f7c6a12ea16e26","6622dee863a409274c7ee538","
    <div id=""grid-container"">
        <!-- Grid items will be dynamically added here -->
    </div>    ","null","","","","","","","","","","","",""
"","null","html-keyboard-response","280","254568","0.0-13.0-0.23","ZApwugu7XI","5beccd423b6489000156596f","6617fad957f7c6a12ea16e26","6622dee863a409274c7ee538","fixation cross","null","","","","","","","","","","","",""
"","null","html-keyboard-response","281","255373","0.0-13.0-1.23","ZApwugu7XI","5beccd423b6489000156596f","6617fad957f7c6a12ea16e26","6622dee863a409274c7ee538","
        <div id=""grid-container"">
        <!-- Grid items will be dynamically added here -->
    </div>    ","null","","","","","","","","","","","",""
"","966","html-keyboard-response","282","255540","0.0-13.0-2.23","ZApwugu7XI","5beccd423b6489000156596f","6617fad957f7c6a12ea16e26","6622dee863a409274c7ee538","mask grid","p","","","","","Ontogenetic_Distractor_notarget","800","onmask"," ","3","Ontogenetic","false","experimental"
"","null","html-keyboard-response","283","256256","0.0-13.0-0.24","ZApwugu7XI","5beccd423b6489000156596f","6617fad957f7c6a12ea16e26","6622dee863a409274c7ee538","fixation cross","null","","","","","","","","","","","",""
"","515","html-keyboard-response","284","256772","0.0-13.0-1.24","ZApwugu7XI","5beccd423b6489000156596f","6617fad957f7c6a12ea16e26","6622dee863a409274c7ee538","image grid","p","","","","","Ontogenetic_Distractor_Nonthreat_target","800","ongrid","p","5","Ontogenetic","true","experimental"
"","null","html-keyboard-response","285","256937","0.0-13.0-2.24","ZApwugu7XI","5beccd423b6489000156596f","6617fad957f7c6a12ea16e26","6622dee863a409274c7ee538","
    <div id=""grid-container"">
        <!-- Grid items will be dynamically added here -->
    </div>    ","null","","","","","","","","","","","",""
"","null","html-keyboard-response","286","257650","0.0-13.0-0.25","ZApwugu7XI","5beccd423b6489000156596f","6617fad957f7c6a12ea16e26","6622dee863a409274c7ee538","fixation cross","null","","","","","","","","","","","",""
"","521","html-keyboard-response","287","258171","0.0-13.0-1.25","ZApwugu7XI","5beccd423b6489000156596f","6617fad957f7c6a12ea16e26","6622dee863a409274c7ee538","image grid","q","","","","","Ontogenetic_Distractor_Threat_target","800","ongrid","q","2","Ontogenetic","true","experimental"
"","null","html-keyboard-response","288","258332","0.0-13.0-2.25","ZApwugu7XI","5beccd423b6489000156596f","6617fad957f7c6a12ea16e26","6622dee863a409274c7ee538","
    <div id=""grid-container"">
        <!-- Grid items will be dynamically added here -->
    </div>    ","null","","","","","","","","","","","",""
"","null","html-keyboard-response","289","259044","0.0-13.0-0.26","ZApwugu7XI","5beccd423b6489000156596f","6617fad957f7c6a12ea16e26","6622dee863a409274c7ee538","fixation cross","null","","","","","","","","","","","",""
"","548","html-keyboard-response","290","259592","0.0-13.0-1.26","ZApwugu7XI","5beccd423b6489000156596f","6617fad957f7c6a12ea16e26","6622dee863a409274c7ee538","image grid","q","","","","","Ontogenetic_Distractor_Threat_target","800","ongrid","q","2","Ontogenetic","true","experimental"
"","null","html-keyboard-response","291","259757","0.0-13.0-2.26","ZApwugu7XI","5beccd423b6489000156596f","6617fad957f7c6a12ea16e26","6622dee863a409274c7ee538","
    <div id=""grid-container"">
        <!-- Grid items will be dynamically added here -->
    </div>    ","null","","","","","","","","","","","",""
"","null","html-keyboard-response","292","260469","0.0-13.0-0.27","ZApwugu7XI","5beccd423b6489000156596f","6617fad957f7c6a12ea16e26","6622dee863a409274c7ee538","fixation cross","null","","","","","","","","","","","",""
"","663","html-keyboard-response","293","261132","0.0-13.0-1.27","ZApwugu7XI","5beccd423b6489000156596f","6617fad957f7c6a12ea16e26","6622dee863a409274c7ee538","image grid","q","","","","","Ontogenetic_Distractor_Threat_target","800","ongrid","q","3","Ontogenetic","true","experimental"
"","null","html-keyboard-response","294","261290","0.0-13.0-2.27","ZApwugu7XI","5beccd423b6489000156596f","6617fad957f7c6a12ea16e26","6622dee863a409274c7ee538","
    <div id=""grid-container"">
        <!-- Grid items will be dynamically added here -->
    </div>    ","null","","","","","","","","","","","",""
"","null","html-keyboard-response","295","261998","0.0-13.0-0.28","ZApwugu7XI","5beccd423b6489000156596f","6617fad957f7c6a12ea16e26","6622dee863a409274c7ee538","fixation cross","null","","","","","","","","","","","",""
"","471","html-keyboard-response","296","262469","0.0-13.0-1.28","ZApwugu7XI","5beccd423b6489000156596f","6617fad957f7c6a12ea16e26","6622dee863a409274c7ee538","image grid","q","","","","","Ontogenetic_Distractor_Nonthreat_target","800","ongrid","p","2","Ontogenetic","false","experimental"
"","null","html-keyboard-response","297","262635","0.0-13.0-2.28","ZApwugu7XI","5beccd423b6489000156596f","6617fad957f7c6a12ea16e26","6622dee863a409274c7ee538","
    <div id=""grid-container"">
        <!-- Grid items will be dynamically added here -->
    </div>    ","null","","","","","","","","","","","",""
"","null","html-keyboard-response","298","263348","0.0-13.0-0.29","ZApwugu7XI","5beccd423b6489000156596f","6617fad957f7c6a12ea16e26","6622dee863a409274c7ee538","fixation cross","null","","","","","","","","","","","",""
"","668","html-keyboard-response","299","264016","0.0-13.0-1.29","ZApwugu7XI","5beccd423b6489000156596f","6617fad957f7c6a12ea16e26","6622dee863a409274c7ee538","image grid"," ","","","","","Ontogenetic_Distractor_Nonthreat_target","800","ongrid","p","3","Ontogenetic","false","experimental"
"","null","html-keyboard-response","300","264167","0.0-13.0-2.29","ZApwugu7XI","5beccd423b6489000156596f","6617fad957f7c6a12ea16e26","6622dee863a409274c7ee538","
    <div id=""grid-container"">
        <!-- Grid items will be dynamically added here -->
    </div>    ","null","","","","","","","","","","","",""
"","null","html-keyboard-response","301","264879","0.0-13.0-0.30","ZApwugu7XI","5beccd423b6489000156596f","6617fad957f7c6a12ea16e26","6622dee863a409274c7ee538","fixation cross","null","","","","","","","","","","","",""
"","614","html-keyboard-response","302","265493","0.0-13.0-1.30","ZApwugu7XI","5beccd423b6489000156596f","6617fad957f7c6a12ea16e26","6622dee863a409274c7ee538","image grid","q","","","","","Ontogenetic_Distractor_Threat_target","800","ongrid","q","9","Ontogenetic","true","experimental"
"","null","html-keyboard-response","303","265653","0.0-13.0-2.30","ZApwugu7XI","5beccd423b6489000156596f","6617fad957f7c6a12ea16e26","6622dee863a409274c7ee538","
    <div id=""grid-container"">
        <!-- Grid items will be dynamically added here -->
    </div>    ","null","","","","","","","","","","","",""
"","null","html-keyboard-response","304","266365","0.0-13.0-0.31","ZApwugu7XI","5beccd423b6489000156596f","6617fad957f7c6a12ea16e26","6622dee863a409274c7ee538","fixation cross","null","","","","","","","","","","","",""
"","null","html-keyboard-response","305","267170","0.0-13.0-1.31","ZApwugu7XI","5beccd423b6489000156596f","6617fad957f7c6a12ea16e26","6622dee863a409274c7ee538","
        <div id=""grid-container"">
        <!-- Grid items will be dynamically added here -->
    </div>    ","null","","","","","","","","","","","",""
"","824","html-keyboard-response","306","267194","0.0-13.0-2.31","ZApwugu7XI","5beccd423b6489000156596f","6617fad957f7c6a12ea16e26","6622dee863a409274c7ee538","mask grid","p","","","","","Ontogenetic_Distractor_Nonthreat_target","800","onmask","p","8","Ontogenetic","true","experimental"
"","null","html-keyboard-response","307","267914","0.0-13.0-0.32","ZApwugu7XI","5beccd423b6489000156596f","6617fad957f7c6a12ea16e26","6622dee863a409274c7ee538","fixation cross","null","","","","","","","","","","","",""
"","764","html-keyboard-response","308","268678","0.0-13.0-1.32","ZApwugu7XI","5beccd423b6489000156596f","6617fad957f7c6a12ea16e26","6622dee863a409274c7ee538","image grid","q","","","","","Ontogenetic_Distractor_Threat_target","800","ongrid","q","4","Ontogenetic","true","experimental"
"","null","html-keyboard-response","309","268841","0.0-13.0-2.32","ZApwugu7XI","5beccd423b6489000156596f","6617fad957f7c6a12ea16e26","6622dee863a409274c7ee538","
    <div id=""grid-container"">
        <!-- Grid items will be dynamically added here -->
    </div>    ","null","","","","","","","","","","","",""
"","null","html-keyboard-response","310","269553","0.0-13.0-0.33","ZApwugu7XI","5beccd423b6489000156596f","6617fad957f7c6a12ea16e26","6622dee863a409274c7ee538","fixation cross","null","","","","","","","","","","","",""
"","null","html-keyboard-response","311","270358","0.0-13.0-1.33","ZApwugu7XI","5beccd423b6489000156596f","6617fad957f7c6a12ea16e26","6622dee863a409274c7ee538","
        <div id=""grid-container"">
        <!-- Grid items will be dynamically added here -->
    </div>    ","null","","","","","","","","","","","",""
"","988","html-keyboard-response","312","270547","0.0-13.0-2.33","ZApwugu7XI","5beccd423b6489000156596f","6617fad957f7c6a12ea16e26","6622dee863a409274c7ee538","mask grid"," ","","","","","Ontogenetic_Distractor_notarget","800","onmask"," ","3","Ontogenetic","true","experimental"
"","null","html-keyboard-response","313","271272","0.0-13.0-0.34","ZApwugu7XI","5beccd423b6489000156596f","6617fad957f7c6a12ea16e26","6622dee863a409274c7ee538","fixation cross","null","","","","","","","","","","","",""
"","562","html-keyboard-response","314","271834","0.0-13.0-1.34","ZApwugu7XI","5beccd423b6489000156596f","6617fad957f7c6a12ea16e26","6622dee863a409274c7ee538","image grid","q","","","","","Ontogenetic_Distractor_Threat_target","800","ongrid","q","4","Ontogenetic","true","experimental"
"","null","html-keyboard-response","315","271986","0.0-13.0-2.34","ZApwugu7XI","5beccd423b6489000156596f","6617fad957f7c6a12ea16e26","6622dee863a409274c7ee538","
    <div id=""grid-container"">
        <!-- Grid items will be dynamically added here -->
    </div>    ","null","","","","","","","","","","","",""
"","null","html-keyboard-response","316","272712","0.0-13.0-0.35","ZApwugu7XI","5beccd423b6489000156596f","6617fad957f7c6a12ea16e26","6622dee863a409274c7ee538","fixation cross","null","","","","","","","","","","","",""
"","523","html-keyboard-response","317","273235","0.0-13.0-1.35","ZApwugu7XI","5beccd423b6489000156596f","6617fad957f7c6a12ea16e26","6622dee863a409274c7ee538","image grid","p","","","","","Ontogenetic_Distractor_Nonthreat_target","800","ongrid","p","7","Ontogenetic","true","experimental"
"","null","html-keyboard-response","318","273389","0.0-13.0-2.35","ZApwugu7XI","5beccd423b6489000156596f","6617fad957f7c6a12ea16e26","6622dee863a409274c7ee538","
    <div id=""grid-container"">
        <!-- Grid items will be dynamically added here -->
    </div>    ","null","","","","","","","","","","","",""
"","null","html-keyboard-response","319","274105","0.0-13.0-0.36","ZApwugu7XI","5beccd423b6489000156596f","6617fad957f7c6a12ea16e26","6622dee863a409274c7ee538","fixation cross","null","","","","","","","","","","","",""
"","655","html-keyboard-response","320","274760","0.0-13.0-1.36","ZApwugu7XI","5beccd423b6489000156596f","6617fad957f7c6a12ea16e26","6622dee863a409274c7ee538","image grid","q","","","","","Ontogenetic_Distractor_notarget","800","ongrid"," ","8","Ontogenetic","false","experimental"
"","76","html-keyboard-response","321","274925","0.0-13.0-2.36","ZApwugu7XI","5beccd423b6489000156596f","6617fad957f7c6a12ea16e26","6622dee863a409274c7ee538","
    <div id=""grid-container"">
        <!-- Grid items will be dynamically added here -->
    </div>    "," ","","","","","","","","","","","",""
"","null","html-keyboard-response","322","275637","0.0-13.0-0.37","ZApwugu7XI","5beccd423b6489000156596f","6617fad957f7c6a12ea16e26","6622dee863a409274c7ee538","fixation cross","null","","","","","","","","","","","",""
"","446","html-keyboard-response","323","276083","0.0-13.0-1.37","ZApwugu7XI","5beccd423b6489000156596f","6617fad957f7c6a12ea16e26","6622dee863a409274c7ee538","image grid","p","","","","","Ontogenetic_Distractor_Nonthreat_target","800","ongrid","p","5","Ontogenetic","true","experimental"
"","null","html-keyboard-response","324","276242","0.0-13.0-2.37","ZApwugu7XI","5beccd423b6489000156596f","6617fad957f7c6a12ea16e26","6622dee863a409274c7ee538","
    <div id=""grid-container"">
        <!-- Grid items will be dynamically added here -->
    </div>    ","null","","","","","","","","","","","",""
"","null","html-keyboard-response","325","276954","0.0-13.0-0.38","ZApwugu7XI","5beccd423b6489000156596f","6617fad957f7c6a12ea16e26","6622dee863a409274c7ee538","fixation cross","null","","","","","","","","","","","",""
"","669","html-keyboard-response","326","277623","0.0-13.0-1.38","ZApwugu7XI","5beccd423b6489000156596f","6617fad957f7c6a12ea16e26","6622dee863a409274c7ee538","image grid"," ","","","","","Ontogenetic_Distractor_Threat_target","800","ongrid","q","9","Ontogenetic","false","experimental"
"","null","html-keyboard-response","327","277789","0.0-13.0-2.38","ZApwugu7XI","5beccd423b6489000156596f","6617fad957f7c6a12ea16e26","6622dee863a409274c7ee538","
    <div id=""grid-container"">
        <!-- Grid items will be dynamically added here -->
    </div>    ","null","","","","","","","","","","","",""
"","null","html-keyboard-response","328","278502","0.0-13.0-0.39","ZApwugu7XI","5beccd423b6489000156596f","6617fad957f7c6a12ea16e26","6622dee863a409274c7ee538","fixation cross","null","","","","","","","","","","","",""
"","521","html-keyboard-response","329","279023","0.0-13.0-1.39","ZApwugu7XI","5beccd423b6489000156596f","6617fad957f7c6a12ea16e26","6622dee863a409274c7ee538","image grid","p","","","","","Ontogenetic_Distractor_Nonthreat_target","800","ongrid","p","6","Ontogenetic","true","experimental"
"","null","html-keyboard-response","330","279174","0.0-13.0-2.39","ZApwugu7XI","5beccd423b6489000156596f","6617fad957f7c6a12ea16e26","6622dee863a409274c7ee538","
    <div id=""grid-container"">
        <!-- Grid items will be dynamically added here -->
    </div>    ","null","","","","","","","","","","","",""
"","42210","html-keyboard-response","331","321594","0.0-14.0","ZApwugu7XI","5beccd423b6489000156596f","6617fad957f7c6a12ea16e26","6622dee863a409274c7ee538","break screen","q","","","","","","","","","","","",""
"","null","html-keyboard-response","332","324106","0.0-15.0-0.0","ZApwugu7XI","5beccd423b6489000156596f","6617fad957f7c6a12ea16e26","6622dee863a409274c7ee538","fixation cross","null","","","","","","","","","","","",""
"","1282","html-keyboard-response","333","325388","0.0-15.0-1.0","ZApwugu7XI","5beccd423b6489000156596f","6617fad957f7c6a12ea16e26","6622dee863a409274c7ee538","image grid"," ","","","","","Phylogenetic_Distractor_Threat_target","2500","ongrid","q","8","Phylogenetic","false","experimental"
"","null","html-keyboard-response","334","325546","0.0-15.0-2.0","ZApwugu7XI","5beccd423b6489000156596f","6617fad957f7c6a12ea16e26","6622dee863a409274c7ee538","
    <div id=""grid-container"">
        <!-- Grid items will be dynamically added here -->
    </div>    ","null","","","","","","","","","","","",""
"","null","html-keyboard-response","335","326258","0.0-15.0-0.1","ZApwugu7XI","5beccd423b6489000156596f","6617fad957f7c6a12ea16e26","6622dee863a409274c7ee538","fixation cross","null","","","","","","","","","","","",""
"","1181","html-keyboard-response","336","327439","0.0-15.0-1.1","ZApwugu7XI","5beccd423b6489000156596f","6617fad957f7c6a12ea16e26","6622dee863a409274c7ee538","image grid","q","","","","","Phylogenetic_Distractor_Nonthreat_target","2500","ongrid","p","5","Phylogenetic","false","experimental"
"","null","html-keyboard-response","337","327594","0.0-15.0-2.1","ZApwugu7XI","5beccd423b6489000156596f","6617fad957f7c6a12ea16e26","6622dee863a409274c7ee538","
    <div id=""grid-container"">
        <!-- Grid items will be dynamically added here -->
    </div>    ","null","","","","","","","","","","","",""
"","null","html-keyboard-response","338","328298","0.0-15.0-0.2","ZApwugu7XI","5beccd423b6489000156596f","6617fad957f7c6a12ea16e26","6622dee863a409274c7ee538","fixation cross","null","","","","","","","","","","","",""
"","897","html-keyboard-response","339","329196","0.0-15.0-1.2","ZApwugu7XI","5beccd423b6489000156596f","6617fad957f7c6a12ea16e26","6622dee863a409274c7ee538","image grid","q","","","","","Phylogenetic_Distractor_Threat_target","2500","ongrid","q","4","Phylogenetic","true","experimental"
"","null","html-keyboard-response","340","329348","0.0-15.0-2.2","ZApwugu7XI","5beccd423b6489000156596f","6617fad957f7c6a12ea16e26","6622dee863a409274c7ee538","
    <div id=""grid-container"">
        <!-- Grid items will be dynamically added here -->
    </div>    ","null","","","","","","","","","","","",""
"","null","html-keyboard-response","341","330059","0.0-15.0-0.3","ZApwugu7XI","5beccd423b6489000156596f","6617fad957f7c6a12ea16e26","6622dee863a409274c7ee538","fixation cross","null","","","","","","","","","","","",""
"","1670","html-keyboard-response","342","331730","0.0-15.0-1.3","ZApwugu7XI","5beccd423b6489000156596f","6617fad957f7c6a12ea16e26","6622dee863a409274c7ee538","image grid","p","","","","","Phylogenetic_Distractor_Threat_target","2500","ongrid","q","8","Phylogenetic","false","experimental"
"","null","html-keyboard-response","343","331884","0.0-15.0-2.3","ZApwugu7XI","5beccd423b6489000156596f","6617fad957f7c6a12ea16e26","6622dee863a409274c7ee538","
    <div id=""grid-container"">
        <!-- Grid items will be dynamically added here -->
    </div>    ","null","","","","","","","","","","","",""
"","null","html-keyboard-response","344","332588","0.0-15.0-0.4","ZApwugu7XI","5beccd423b6489000156596f","6617fad957f7c6a12ea16e26","6622dee863a409274c7ee538","fixation cross","null","","","","","","","","","","","",""
"","772","html-keyboard-response","345","333360","0.0-15.0-1.4","ZApwugu7XI","5beccd423b6489000156596f","6617fad957f7c6a12ea16e26","6622dee863a409274c7ee538","image grid","q","","","","","Phylogenetic_Distractor_Threat_target","2500","ongrid","q","6","Phylogenetic","true","experimental"
"","null","html-keyboard-response","346","333511","0.0-15.0-2.4","ZApwugu7XI","5beccd423b6489000156596f","6617fad957f7c6a12ea16e26","6622dee863a409274c7ee538","
    <div id=""grid-container"">
        <!-- Grid items will be dynamically added here -->
    </div>    ","null","","","","","","","","","","","",""
"","null","html-keyboard-response","347","334223","0.0-15.0-0.5","ZApwugu7XI","5beccd423b6489000156596f","6617fad957f7c6a12ea16e26","6622dee863a409274c7ee538","fixation cross","null","","","","","","","","","","","",""
"","1244","html-keyboard-response","348","335467","0.0-15.0-1.5","ZApwugu7XI","5beccd423b6489000156596f","6617fad957f7c6a12ea16e26","6622dee863a409274c7ee538","image grid","q","","","","","Phylogenetic_Distractor_Nonthreat_target","2500","ongrid","p","2","Phylogenetic","false","experimental"
"","null","html-keyboard-response","349","335621","0.0-15.0-2.5","ZApwugu7XI","5beccd423b6489000156596f","6617fad957f7c6a12ea16e26","6622dee863a409274c7ee538","
    <div id=""grid-container"">
        <!-- Grid items will be dynamically added here -->
    </div>    ","null","","","","","","","","","","","",""
"","null","html-keyboard-response","350","336340","0.0-15.0-0.6","ZApwugu7XI","5beccd423b6489000156596f","6617fad957f7c6a12ea16e26","6622dee863a409274c7ee538","fixation cross","null","","","","","","","","","","","",""
"","1052","html-keyboard-response","351","337392","0.0-15.0-1.6","ZApwugu7XI","5beccd423b6489000156596f","6617fad957f7c6a12ea16e26","6622dee863a409274c7ee538","image grid","q","","","","","Phylogenetic_Distractor_Threat_target","2500","ongrid","q","7","Phylogenetic","true","experimental"
"","null","html-keyboard-response","352","337546","0.0-15.0-2.6","ZApwugu7XI","5beccd423b6489000156596f","6617fad957f7c6a12ea16e26","6622dee863a409274c7ee538","
    <div id=""grid-container"">
        <!-- Grid items will be dynamically added here -->
    </div>    ","null","","","","","","","","","","","",""
"","null","html-keyboard-response","353","338258","0.0-15.0-0.7","ZApwugu7XI","5beccd423b6489000156596f","6617fad957f7c6a12ea16e26","6622dee863a409274c7ee538","fixation cross","null","","","","","","","","","","","",""
"","1576","html-keyboard-response","354","339835","0.0-15.0-1.7","ZApwugu7XI","5beccd423b6489000156596f","6617fad957f7c6a12ea16e26","6622dee863a409274c7ee538","image grid","q","","","","","Phylogenetic_Distractor_Threat_target","2500","ongrid","q","7","Phylogenetic","true","experimental"
"","null","html-keyboard-response","355","339990","0.0-15.0-2.7","ZApwugu7XI","5beccd423b6489000156596f","6617fad957f7c6a12ea16e26","6622dee863a409274c7ee538","
    <div id=""grid-container"">
        <!-- Grid items will be dynamically added here -->
    </div>    ","null","","","","","","","","","","","",""
"","null","html-keyboard-response","356","340701","0.0-15.0-0.8","ZApwugu7XI","5beccd423b6489000156596f","6617fad957f7c6a12ea16e26","6622dee863a409274c7ee538","fixation cross","null","","","","","","","","","","","",""
"","1115","html-keyboard-response","357","341816","0.0-15.0-1.8","ZApwugu7XI","5beccd423b6489000156596f","6617fad957f7c6a12ea16e26","6622dee863a409274c7ee538","image grid"," ","","","","","Phylogenetic_Distractor_notarget","2500","ongrid"," ","7","Phylogenetic","true","experimental"
"","null","html-keyboard-response","358","341970","0.0-15.0-2.8","ZApwugu7XI","5beccd423b6489000156596f","6617fad957f7c6a12ea16e26","6622dee863a409274c7ee538","
    <div id=""grid-container"">
        <!-- Grid items will be dynamically added here -->
    </div>    ","null","","","","","","","","","","","",""
"","null","html-keyboard-response","359","342682","0.0-15.0-0.9","ZApwugu7XI","5beccd423b6489000156596f","6617fad957f7c6a12ea16e26","6622dee863a409274c7ee538","fixation cross","null","","","","","","","","","","","",""
"","946","html-keyboard-response","360","343629","0.0-15.0-1.9","ZApwugu7XI","5beccd423b6489000156596f","6617fad957f7c6a12ea16e26","6622dee863a409274c7ee538","image grid","q","","","","","Phylogenetic_Distractor_Threat_target","2500","ongrid","q","2","Phylogenetic","true","experimental"
"","null","html-keyboard-response","361","343781","0.0-15.0-2.9","ZApwugu7XI","5beccd423b6489000156596f","6617fad957f7c6a12ea16e26","6622dee863a409274c7ee538","
    <div id=""grid-container"">
        <!-- Grid items will be dynamically added here -->
    </div>    ","null","","","","","","","","","","","",""
"","null","html-keyboard-response","362","344493","0.0-15.0-0.10","ZApwugu7XI","5beccd423b6489000156596f","6617fad957f7c6a12ea16e26","6622dee863a409274c7ee538","fixation cross","null","","","","","","","","","","","",""
"","661","html-keyboard-response","363","345155","0.0-15.0-1.10","ZApwugu7XI","5beccd423b6489000156596f","6617fad957f7c6a12ea16e26","6622dee863a409274c7ee538","image grid","q","","","","","Phylogenetic_Distractor_Threat_target","2500","ongrid","q","5","Phylogenetic","true","experimental"
"","null","html-keyboard-response","364","345313","0.0-15.0-2.10","ZApwugu7XI","5beccd423b6489000156596f","6617fad957f7c6a12ea16e26","6622dee863a409274c7ee538","
    <div id=""grid-container"">
        <!-- Grid items will be dynamically added here -->
    </div>    ","null","","","","","","","","","","","",""
"","null","html-keyboard-response","365","346026","0.0-15.0-0.11","ZApwugu7XI","5beccd423b6489000156596f","6617fad957f7c6a12ea16e26","6622dee863a409274c7ee538","fixation cross","null","","","","","","","","","","","",""
"","1214","html-keyboard-response","366","347241","0.0-15.0-1.11","ZApwugu7XI","5beccd423b6489000156596f","6617fad957f7c6a12ea16e26","6622dee863a409274c7ee538","image grid"," ","","","","","Phylogenetic_Distractor_Threat_target","2500","ongrid","q","2","Phylogenetic","false","experimental"
"","null","html-keyboard-response","367","347404","0.0-15.0-2.11","ZApwugu7XI","5beccd423b6489000156596f","6617fad957f7c6a12ea16e26","6622dee863a409274c7ee538","
    <div id=""grid-container"">
        <!-- Grid items will be dynamically added here -->
    </div>    ","null","","","","","","","","","","","",""
"","null","html-keyboard-response","368","348115","0.0-15.0-0.12","ZApwugu7XI","5beccd423b6489000156596f","6617fad957f7c6a12ea16e26","6622dee863a409274c7ee538","fixation cross","null","","","","","","","","","","","",""
"","1260","html-keyboard-response","369","349375","0.0-15.0-1.12","ZApwugu7XI","5beccd423b6489000156596f","6617fad957f7c6a12ea16e26","6622dee863a409274c7ee538","image grid","q","","","","","Phylogenetic_Distractor_Threat_target","2500","ongrid","q","7","Phylogenetic","true","experimental"
"","null","html-keyboard-response","370","349540","0.0-15.0-2.12","ZApwugu7XI","5beccd423b6489000156596f","6617fad957f7c6a12ea16e26","6622dee863a409274c7ee538","
    <div id=""grid-container"">
        <!-- Grid items will be dynamically added here -->
    </div>    ","null","","","","","","","","","","","",""
