"success","rt","trial_type","trial_index","time_elapsed","internal_node_id","unique_identifier","subject_id","study_id","session_id","stimulus","response","timeout","failed_images","failed_audio","failed_video","task","time_manipulation","respondedwhen","correctresponse","targetimagelocation","blocktype","correct","roundtype"
"true","1656","fullscreen","0","2660","0.0-0.0","mZcm8SKYtI","6317457367495fa60d79d84e","6617fad957f7c6a12ea16e26","6622ce93b2e61b7d40ff1938","","","","","","","","","","","","","",""
"","12608","html-keyboard-response","1","15268","0.0-1.0","mZcm8SKYtI","6317457367495fa60d79d84e","6617fad957f7c6a12ea16e26","6622ce93b2e61b7d40ff1938","instruction screen 0","enter","","","","","","","","","","","",""
"true","","preload","2","17578","0.0-2.0","mZcm8SKYtI","6317457367495fa60d79d84e","6617fad957f7c6a12ea16e26","6622ce93b2e61b7d40ff1938","","","false","[]","[]","[]","","","","","","","",""
"","12370","html-keyboard-response","3","29949","0.0-3.0","mZcm8SKYtI","6317457367495fa60d79d84e","6617fad957f7c6a12ea16e26","6622ce93b2e61b7d40ff1938","instruction screen 1","enter","","","","","","","","","","","",""
"","7383","html-keyboard-response","4","37334","0.0-4.0","mZcm8SKYtI","6317457367495fa60d79d84e","6617fad957f7c6a12ea16e26","6622ce93b2e61b7d40ff1938","instruction screen 2","q","","","","","","","","","","","",""
"","7112","html-keyboard-response","5","44447","0.0-5.0","mZcm8SKYtI","6317457367495fa60d79d84e","6617fad957f7c6a12ea16e26","6622ce93b2e61b7d40ff1938","instruction screen 3","p","","","","","","","","","","","",""
"","2623","html-keyboard-response","6","47071","0.0-6.0","mZcm8SKYtI","6317457367495fa60d79d84e","6617fad957f7c6a12ea16e26","6622ce93b2e61b7d40ff1938","instruction screen 4"," ","","","","","","","","","","","",""
"","5382","html-keyboard-response","7","52454","0.0-7.0","mZcm8SKYtI","6317457367495fa60d79d84e","6617fad957f7c6a12ea16e26","6622ce93b2e61b7d40ff1938","instruction screen 5"," ","","","","","","","","","","","",""
"","null","html-keyboard-response","8","52966","0.0-8.0","mZcm8SKYtI","6317457367495fa60d79d84e","6617fad957f7c6a12ea16e26","6622ce93b2e61b7d40ff1938","fixation cross","null","","","","","","","","","","","",""
"","null","html-keyboard-response","9","53474","0.0-9.0-0.0","mZcm8SKYtI","6317457367495fa60d79d84e","6617fad957f7c6a12ea16e26","6622ce93b2e61b7d40ff1938","fixation cross","null","","","","","","","","","","","",""
"","1338","html-keyboard-response","10","54813","0.0-9.0-1.0","mZcm8SKYtI","6317457367495fa60d79d84e","6617fad957f7c6a12ea16e26","6622ce93b2e61b7d40ff1938","image grid","p","","","","","Ontogenetic_Distractor_Threat_target","3000","ongrid","q","7","Phylogenetic","false","practice"
"","null","html-keyboard-response","11","54965","0.0-9.0-2.0","mZcm8SKYtI","6317457367495fa60d79d84e","6617fad957f7c6a12ea16e26","6622ce93b2e61b7d40ff1938","
    <div id=""grid-container"">
        <!-- Grid items will be dynamically added here -->
    </div>    ","null","","","","","","","","","","","",""
"","null","html-keyboard-response","12","56182","0.0-9.0-3.0","mZcm8SKYtI","6317457367495fa60d79d84e","6617fad957f7c6a12ea16e26","6622ce93b2e61b7d40ff1938","feedback screen","null","","","","","","","","","","","",""
"","null","html-keyboard-response","13","56688","0.0-9.0-0.1","mZcm8SKYtI","6317457367495fa60d79d84e","6617fad957f7c6a12ea16e26","6622ce93b2e61b7d40ff1938","fixation cross","null","","","","","","","","","","","",""
"","1265","html-keyboard-response","14","57954","0.0-9.0-1.1","mZcm8SKYtI","6317457367495fa60d79d84e","6617fad957f7c6a12ea16e26","6622ce93b2e61b7d40ff1938","image grid","p","","","","","Ontogenetic_Distractor_Nonthreat_target","2900","ongrid","p","7","Phylogenetic","true","practice"
"","null","html-keyboard-response","15","58111","0.0-9.0-2.1","mZcm8SKYtI","6317457367495fa60d79d84e","6617fad957f7c6a12ea16e26","6622ce93b2e61b7d40ff1938","
    <div id=""grid-container"">
        <!-- Grid items will be dynamically added here -->
    </div>    ","null","","","","","","","","","","","",""
"","null","html-keyboard-response","16","59322","0.0-9.0-3.1","mZcm8SKYtI","6317457367495fa60d79d84e","6617fad957f7c6a12ea16e26","6622ce93b2e61b7d40ff1938","feedback screen","null","","","","","","","","","","","",""
"","null","html-keyboard-response","17","59824","0.0-9.0-0.2","mZcm8SKYtI","6317457367495fa60d79d84e","6617fad957f7c6a12ea16e26","6622ce93b2e61b7d40ff1938","fixation cross","null","","","","","","","","","","","",""
"","1317","html-keyboard-response","18","61141","0.0-9.0-1.2","mZcm8SKYtI","6317457367495fa60d79d84e","6617fad957f7c6a12ea16e26","6622ce93b2e61b7d40ff1938","image grid","q","","","","","Ontogenetic_Distractor_Threat_target","2800","ongrid","q","8","Phylogenetic","true","practice"
"","null","html-keyboard-response","19","61296","0.0-9.0-2.2","mZcm8SKYtI","6317457367495fa60d79d84e","6617fad957f7c6a12ea16e26","6622ce93b2e61b7d40ff1938","
    <div id=""grid-container"">
        <!-- Grid items will be dynamically added here -->
    </div>    ","null","","","","","","","","","","","",""
"","null","html-keyboard-response","20","62506","0.0-9.0-3.2","mZcm8SKYtI","6317457367495fa60d79d84e","6617fad957f7c6a12ea16e26","6622ce93b2e61b7d40ff1938","feedback screen","null","","","","","","","","","","","",""
"","null","html-keyboard-response","21","63018","0.0-9.0-0.3","mZcm8SKYtI","6317457367495fa60d79d84e","6617fad957f7c6a12ea16e26","6622ce93b2e61b7d40ff1938","fixation cross","null","","","","","","","","","","","",""
"","1439","html-keyboard-response","22","64457","0.0-9.0-1.3","mZcm8SKYtI","6317457367495fa60d79d84e","6617fad957f7c6a12ea16e26","6622ce93b2e61b7d40ff1938","image grid","p","","","","","Ontogenetic_Distractor_notarget","2700","ongrid"," ","8","Phylogenetic","false","practice"
"","null","html-keyboard-response","23","64613","0.0-9.0-2.3","mZcm8SKYtI","6317457367495fa60d79d84e","6617fad957f7c6a12ea16e26","6622ce93b2e61b7d40ff1938","
    <div id=""grid-container"">
        <!-- Grid items will be dynamically added here -->
    </div>    ","null","","","","","","","","","","","",""
"","null","html-keyboard-response","24","65819","0.0-9.0-3.3","mZcm8SKYtI","6317457367495fa60d79d84e","6617fad957f7c6a12ea16e26","6622ce93b2e61b7d40ff1938","feedback screen","null","","","","","","","","","","","",""
"","null","html-keyboard-response","25","66331","0.0-9.0-0.4","mZcm8SKYtI","6317457367495fa60d79d84e","6617fad957f7c6a12ea16e26","6622ce93b2e61b7d40ff1938","fixation cross","null","","","","","","","","","","","",""
"","1723","html-keyboard-response","26","68054","0.0-9.0-1.4","mZcm8SKYtI","6317457367495fa60d79d84e","6617fad957f7c6a12ea16e26","6622ce93b2e61b7d40ff1938","image grid","p","","","","","Phylogenetic_Distractor_Nonthreat_target","2600","ongrid","p","3","Phylogenetic","true","practice"
"","null","html-keyboard-response","27","68215","0.0-9.0-2.4","mZcm8SKYtI","6317457367495fa60d79d84e","6617fad957f7c6a12ea16e26","6622ce93b2e61b7d40ff1938","
    <div id=""grid-container"">
        <!-- Grid items will be dynamically added here -->
    </div>    ","null","","","","","","","","","","","",""
"","null","html-keyboard-response","28","69423","0.0-9.0-3.4","mZcm8SKYtI","6317457367495fa60d79d84e","6617fad957f7c6a12ea16e26","6622ce93b2e61b7d40ff1938","feedback screen","null","","","","","","","","","","","",""
"","null","html-keyboard-response","29","69937","0.0-9.0-0.5","mZcm8SKYtI","6317457367495fa60d79d84e","6617fad957f7c6a12ea16e26","6622ce93b2e61b7d40ff1938","fixation cross","null","","","","","","","","","","","",""
"","1618","html-keyboard-response","30","71555","0.0-9.0-1.5","mZcm8SKYtI","6317457367495fa60d79d84e","6617fad957f7c6a12ea16e26","6622ce93b2e61b7d40ff1938","image grid","q","","","","","Phylogenetic_Distractor_Threat_target","2500","ongrid","q","7","Phylogenetic","true","practice"
"","null","html-keyboard-response","31","71720","0.0-9.0-2.5","mZcm8SKYtI","6317457367495fa60d79d84e","6617fad957f7c6a12ea16e26","6622ce93b2e61b7d40ff1938","
    <div id=""grid-container"">
        <!-- Grid items will be dynamically added here -->
    </div>    ","null","","","","","","","","","","","",""
"","null","html-keyboard-response","32","72940","0.0-9.0-3.5","mZcm8SKYtI","6317457367495fa60d79d84e","6617fad957f7c6a12ea16e26","6622ce93b2e61b7d40ff1938","feedback screen","null","","","","","","","","","","","",""
"","null","html-keyboard-response","33","73443","0.0-9.0-0.6","mZcm8SKYtI","6317457367495fa60d79d84e","6617fad957f7c6a12ea16e26","6622ce93b2e61b7d40ff1938","fixation cross","null","","","","","","","","","","","",""
"","1673","html-keyboard-response","34","75116","0.0-9.0-1.6","mZcm8SKYtI","6317457367495fa60d79d84e","6617fad957f7c6a12ea16e26","6622ce93b2e61b7d40ff1938","image grid","p","","","","","Phylogenetic_Distractor_notarget","2400","ongrid"," ","1","Phylogenetic","false","practice"
"","null","html-keyboard-response","35","75274","0.0-9.0-2.6","mZcm8SKYtI","6317457367495fa60d79d84e","6617fad957f7c6a12ea16e26","6622ce93b2e61b7d40ff1938","
    <div id=""grid-container"">
        <!-- Grid items will be dynamically added here -->
    </div>    ","null","","","","","","","","","","","",""
"","null","html-keyboard-response","36","76494","0.0-9.0-3.6","mZcm8SKYtI","6317457367495fa60d79d84e","6617fad957f7c6a12ea16e26","6622ce93b2e61b7d40ff1938","feedback screen","null","","","","","","","","","","","",""
"","null","html-keyboard-response","37","77000","0.0-9.0-0.7","mZcm8SKYtI","6317457367495fa60d79d84e","6617fad957f7c6a12ea16e26","6622ce93b2e61b7d40ff1938","fixation cross","null","","","","","","","","","","","",""
"","1873","html-keyboard-response","38","78872","0.0-9.0-1.7","mZcm8SKYtI","6317457367495fa60d79d84e","6617fad957f7c6a12ea16e26","6622ce93b2e61b7d40ff1938","image grid","p","","","","","Phylogenetic_Distractor_notarget","2300","ongrid"," ","7","Phylogenetic","false","practice"
"","null","html-keyboard-response","39","79030","0.0-9.0-2.7","mZcm8SKYtI","6317457367495fa60d79d84e","6617fad957f7c6a12ea16e26","6622ce93b2e61b7d40ff1938","
    <div id=""grid-container"">
        <!-- Grid items will be dynamically added here -->
    </div>    ","null","","","","","","","","","","","",""
"","null","html-keyboard-response","40","80244","0.0-9.0-3.7","mZcm8SKYtI","6317457367495fa60d79d84e","6617fad957f7c6a12ea16e26","6622ce93b2e61b7d40ff1938","feedback screen","null","","","","","","","","","","","",""
"","null","html-keyboard-response","41","80747","0.0-9.0-0.8","mZcm8SKYtI","6317457367495fa60d79d84e","6617fad957f7c6a12ea16e26","6622ce93b2e61b7d40ff1938","fixation cross","null","","","","","","","","","","","",""
"","1915","html-keyboard-response","42","82662","0.0-9.0-1.8","mZcm8SKYtI","6317457367495fa60d79d84e","6617fad957f7c6a12ea16e26","6622ce93b2e61b7d40ff1938","image grid","p","","","","","Phylogenetic_Distractor_Nonthreat_target","2200","ongrid","p","6","Phylogenetic","true","practice"
"","null","html-keyboard-response","43","82820","0.0-9.0-2.8","mZcm8SKYtI","6317457367495fa60d79d84e","6617fad957f7c6a12ea16e26","6622ce93b2e61b7d40ff1938","
    <div id=""grid-container"">
        <!-- Grid items will be dynamically added here -->
    </div>    ","null","","","","","","","","","","","",""
"","null","html-keyboard-response","44","84038","0.0-9.0-3.8","mZcm8SKYtI","6317457367495fa60d79d84e","6617fad957f7c6a12ea16e26","6622ce93b2e61b7d40ff1938","feedback screen","null","","","","","","","","","","","",""
"","null","html-keyboard-response","45","84553","0.0-9.0-0.9","mZcm8SKYtI","6317457367495fa60d79d84e","6617fad957f7c6a12ea16e26","6622ce93b2e61b7d40ff1938","fixation cross","null","","","","","","","","","","","",""
"","null","html-keyboard-response","46","86665","0.0-9.0-1.9","mZcm8SKYtI","6317457367495fa60d79d84e","6617fad957f7c6a12ea16e26","6622ce93b2e61b7d40ff1938","
        <div id=""grid-container"">
        <!-- Grid items will be dynamically added here -->
    </div>    ","null","","","","","","","","","","","",""
"","2247","html-keyboard-response","47","86813","0.0-9.0-2.9","mZcm8SKYtI","6317457367495fa60d79d84e","6617fad957f7c6a12ea16e26","6622ce93b2e61b7d40ff1938","mask grid","p","","","","","Ontogenetic_Distractor_notarget","2100","onmask"," ","7","Phylogenetic","false","practice"
"","null","html-keyboard-response","48","88023","0.0-9.0-3.9","mZcm8SKYtI","6317457367495fa60d79d84e","6617fad957f7c6a12ea16e26","6622ce93b2e61b7d40ff1938","feedback screen","null","","","","","","","","","","","",""
"","null","html-keyboard-response","49","88540","0.0-9.0-0.10","mZcm8SKYtI","6317457367495fa60d79d84e","6617fad957f7c6a12ea16e26","6622ce93b2e61b7d40ff1938","fixation cross","null","","","","","","","","","","","",""
"","867","html-keyboard-response","50","89407","0.0-9.0-1.10","mZcm8SKYtI","6317457367495fa60d79d84e","6617fad957f7c6a12ea16e26","6622ce93b2e61b7d40ff1938","image grid","p","","","","","Ontogenetic_Distractor_Nonthreat_target","2000","ongrid","p","4","Phylogenetic","true","practice"
"","null","html-keyboard-response","51","89567","0.0-9.0-2.10","mZcm8SKYtI","6317457367495fa60d79d84e","6617fad957f7c6a12ea16e26","6622ce93b2e61b7d40ff1938","
    <div id=""grid-container"">
        <!-- Grid items will be dynamically added here -->
    </div>    ","null","","","","","","","","","","","",""
"","null","html-keyboard-response","52","90799","0.0-9.0-3.10","mZcm8SKYtI","6317457367495fa60d79d84e","6617fad957f7c6a12ea16e26","6622ce93b2e61b7d40ff1938","feedback screen","null","","","","","","","","","","","",""
"","null","html-keyboard-response","53","91313","0.0-9.0-0.11","mZcm8SKYtI","6317457367495fa60d79d84e","6617fad957f7c6a12ea16e26","6622ce93b2e61b7d40ff1938","fixation cross","null","","","","","","","","","","","",""
"","905","html-keyboard-response","54","92219","0.0-9.0-1.11","mZcm8SKYtI","6317457367495fa60d79d84e","6617fad957f7c6a12ea16e26","6622ce93b2e61b7d40ff1938","image grid","q","","","","","Phylogenetic_Distractor_Threat_target","1900","ongrid","q","6","Phylogenetic","true","practice"
"","null","html-keyboard-response","55","92384","0.0-9.0-2.11","mZcm8SKYtI","6317457367495fa60d79d84e","6617fad957f7c6a12ea16e26","6622ce93b2e61b7d40ff1938","
    <div id=""grid-container"">
        <!-- Grid items will be dynamically added here -->
    </div>    ","null","","","","","","","","","","","",""
"","null","html-keyboard-response","56","93593","0.0-9.0-3.11","mZcm8SKYtI","6317457367495fa60d79d84e","6617fad957f7c6a12ea16e26","6622ce93b2e61b7d40ff1938","feedback screen","null","","","","","","","","","","","",""
"","null","html-keyboard-response","57","94097","0.0-9.0-0.12","mZcm8SKYtI","6317457367495fa60d79d84e","6617fad957f7c6a12ea16e26","6622ce93b2e61b7d40ff1938","fixation cross","null","","","","","","","","","","","",""
"","978","html-keyboard-response","58","95075","0.0-9.0-1.12","mZcm8SKYtI","6317457367495fa60d79d84e","6617fad957f7c6a12ea16e26","6622ce93b2e61b7d40ff1938","image grid","q","","","","","Phylogenetic_Distractor_Threat_target","1800","ongrid","q","5","Phylogenetic","true","practice"
"","null","html-keyboard-response","59","95235","0.0-9.0-2.12","mZcm8SKYtI","6317457367495fa60d79d84e","6617fad957f7c6a12ea16e26","6622ce93b2e61b7d40ff1938","
    <div id=""grid-container"">
        <!-- Grid items will be dynamically added here -->
    </div>    ","null","","","","","","","","","","","",""
"","null","html-keyboard-response","60","96451","0.0-9.0-3.12","mZcm8SKYtI","6317457367495fa60d79d84e","6617fad957f7c6a12ea16e26","6622ce93b2e61b7d40ff1938","feedback screen","null","","","","","","","","","","","",""
"","null","html-keyboard-response","61","96964","0.0-9.0-0.13","mZcm8SKYtI","6317457367495fa60d79d84e","6617fad957f7c6a12ea16e26","6622ce93b2e61b7d40ff1938","fixation cross","null","","","","","","","","","","","",""
"","890","html-keyboard-response","62","97855","0.0-9.0-1.13","mZcm8SKYtI","6317457367495fa60d79d84e","6617fad957f7c6a12ea16e26","6622ce93b2e61b7d40ff1938","image grid","q","","","","","Phylogenetic_Distractor_Threat_target","1700","ongrid","q","8","Phylogenetic","true","practice"
"","null","html-keyboard-response","63","98013","0.0-9.0-2.13","mZcm8SKYtI","6317457367495fa60d79d84e","6617fad957f7c6a12ea16e26","6622ce93b2e61b7d40ff1938","
    <div id=""grid-container"">
        <!-- Grid items will be dynamically added here -->
    </div>    ","null","","","","","","","","","","","",""
"","null","html-keyboard-response","64","99227","0.0-9.0-3.13","mZcm8SKYtI","6317457367495fa60d79d84e","6617fad957f7c6a12ea16e26","6622ce93b2e61b7d40ff1938","feedback screen","null","","","","","","","","","","","",""
"","null","html-keyboard-response","65","99733","0.0-9.0-0.14","mZcm8SKYtI","6317457367495fa60d79d84e","6617fad957f7c6a12ea16e26","6622ce93b2e61b7d40ff1938","fixation cross","null","","","","","","","","","","","",""
"","821","html-keyboard-response","66","100554","0.0-9.0-1.14","mZcm8SKYtI","6317457367495fa60d79d84e","6617fad957f7c6a12ea16e26","6622ce93b2e61b7d40ff1938","image grid","p","","","","","Ontogenetic_Distractor_Nonthreat_target","1600","ongrid","p","9","Phylogenetic","true","practice"
"","null","html-keyboard-response","67","100716","0.0-9.0-2.14","mZcm8SKYtI","6317457367495fa60d79d84e","6617fad957f7c6a12ea16e26","6622ce93b2e61b7d40ff1938","
    <div id=""grid-container"">
        <!-- Grid items will be dynamically added here -->
    </div>    ","null","","","","","","","","","","","",""
"","null","html-keyboard-response","68","101922","0.0-9.0-3.14","mZcm8SKYtI","6317457367495fa60d79d84e","6617fad957f7c6a12ea16e26","6622ce93b2e61b7d40ff1938","feedback screen","null","","","","","","","","","","","",""
"","null","html-keyboard-response","69","102437","0.0-9.0-0.15","mZcm8SKYtI","6317457367495fa60d79d84e","6617fad957f7c6a12ea16e26","6622ce93b2e61b7d40ff1938","fixation cross","null","","","","","","","","","","","",""
"","1063","html-keyboard-response","70","103501","0.0-9.0-1.15","mZcm8SKYtI","6317457367495fa60d79d84e","6617fad957f7c6a12ea16e26","6622ce93b2e61b7d40ff1938","image grid","p","","","","","Ontogenetic_Distractor_Nonthreat_target","1500","ongrid","p","5","Phylogenetic","true","practice"
"","null","html-keyboard-response","71","103663","0.0-9.0-2.15","mZcm8SKYtI","6317457367495fa60d79d84e","6617fad957f7c6a12ea16e26","6622ce93b2e61b7d40ff1938","
    <div id=""grid-container"">
        <!-- Grid items will be dynamically added here -->
    </div>    ","null","","","","","","","","","","","",""
"","null","html-keyboard-response","72","104879","0.0-9.0-3.15","mZcm8SKYtI","6317457367495fa60d79d84e","6617fad957f7c6a12ea16e26","6622ce93b2e61b7d40ff1938","feedback screen","null","","","","","","","","","","","",""
"","null","html-keyboard-response","73","105382","0.0-9.0-0.16","mZcm8SKYtI","6317457367495fa60d79d84e","6617fad957f7c6a12ea16e26","6622ce93b2e61b7d40ff1938","fixation cross","null","","","","","","","","","","","",""
"","null","html-keyboard-response","74","106789","0.0-9.0-1.16","mZcm8SKYtI","6317457367495fa60d79d84e","6617fad957f7c6a12ea16e26","6622ce93b2e61b7d40ff1938","
        <div id=""grid-container"">
        <!-- Grid items will be dynamically added here -->
    </div>    ","null","","","","","","","","","","","",""
"","1460","html-keyboard-response","75","106850","0.0-9.0-2.16","mZcm8SKYtI","6317457367495fa60d79d84e","6617fad957f7c6a12ea16e26","6622ce93b2e61b7d40ff1938","mask grid","p","","","","","Phylogenetic_Distractor_Nonthreat_target","1400","onmask","p","9","Phylogenetic","true","practice"
"","null","html-keyboard-response","76","108067","0.0-9.0-3.16","mZcm8SKYtI","6317457367495fa60d79d84e","6617fad957f7c6a12ea16e26","6622ce93b2e61b7d40ff1938","feedback screen","null","","","","","","","","","","","",""
"","null","html-keyboard-response","77","108582","0.0-9.0-0.17","mZcm8SKYtI","6317457367495fa60d79d84e","6617fad957f7c6a12ea16e26","6622ce93b2e61b7d40ff1938","fixation cross","null","","","","","","","","","","","",""
"","843","html-keyboard-response","78","109426","0.0-9.0-1.17","mZcm8SKYtI","6317457367495fa60d79d84e","6617fad957f7c6a12ea16e26","6622ce93b2e61b7d40ff1938","image grid","q","","","","","Ontogenetic_Distractor_Threat_target","1300","ongrid","q","4","Phylogenetic","true","practice"
"","null","html-keyboard-response","79","109580","0.0-9.0-2.17","mZcm8SKYtI","6317457367495fa60d79d84e","6617fad957f7c6a12ea16e26","6622ce93b2e61b7d40ff1938","
    <div id=""grid-container"">
        <!-- Grid items will be dynamically added here -->
    </div>    ","null","","","","","","","","","","","",""
"","null","html-keyboard-response","80","110787","0.0-9.0-3.17","mZcm8SKYtI","6317457367495fa60d79d84e","6617fad957f7c6a12ea16e26","6622ce93b2e61b7d40ff1938","feedback screen","null","","","","","","","","","","","",""
"","null","html-keyboard-response","81","111299","0.0-9.0-0.18","mZcm8SKYtI","6317457367495fa60d79d84e","6617fad957f7c6a12ea16e26","6622ce93b2e61b7d40ff1938","fixation cross","null","","","","","","","","","","","",""
"","1078","html-keyboard-response","82","112378","0.0-9.0-1.18","mZcm8SKYtI","6317457367495fa60d79d84e","6617fad957f7c6a12ea16e26","6622ce93b2e61b7d40ff1938","image grid","p","","","","","Phylogenetic_Distractor_Nonthreat_target","1200","ongrid","p","5","Phylogenetic","true","practice"
"","null","html-keyboard-response","83","112538","0.0-9.0-2.18","mZcm8SKYtI","6317457367495fa60d79d84e","6617fad957f7c6a12ea16e26","6622ce93b2e61b7d40ff1938","
    <div id=""grid-container"">
        <!-- Grid items will be dynamically added here -->
    </div>    ","null","","","","","","","","","","","",""
"","null","html-keyboard-response","84","113754","0.0-9.0-3.18","mZcm8SKYtI","6317457367495fa60d79d84e","6617fad957f7c6a12ea16e26","6622ce93b2e61b7d40ff1938","feedback screen","null","","","","","","","","","","","",""
"","null","html-keyboard-response","85","114258","0.0-9.0-0.19","mZcm8SKYtI","6317457367495fa60d79d84e","6617fad957f7c6a12ea16e26","6622ce93b2e61b7d40ff1938","fixation cross","null","","","","","","","","","","","",""
"","739","html-keyboard-response","86","114998","0.0-9.0-1.19","mZcm8SKYtI","6317457367495fa60d79d84e","6617fad957f7c6a12ea16e26","6622ce93b2e61b7d40ff1938","image grid","p","","","","","Ontogenetic_Distractor_Threat_target","1100","ongrid","q","8","Phylogenetic","false","practice"
"","null","html-keyboard-response","87","115163","0.0-9.0-2.19","mZcm8SKYtI","6317457367495fa60d79d84e","6617fad957f7c6a12ea16e26","6622ce93b2e61b7d40ff1938","
    <div id=""grid-container"">
        <!-- Grid items will be dynamically added here -->
    </div>    ","null","","","","","","","","","","","",""
"","null","html-keyboard-response","88","116380","0.0-9.0-3.19","mZcm8SKYtI","6317457367495fa60d79d84e","6617fad957f7c6a12ea16e26","6622ce93b2e61b7d40ff1938","feedback screen","null","","","","","","","","","","","",""
"","9482","html-keyboard-response","89","125879","0.0-10.0","mZcm8SKYtI","6317457367495fa60d79d84e","6617fad957f7c6a12ea16e26","6622ce93b2e61b7d40ff1938","pre-experimental_briefing"," ","","","","","","","","","","","",""
"","null","html-keyboard-response","90","128400","0.0-11.0-0.0","mZcm8SKYtI","6317457367495fa60d79d84e","6617fad957f7c6a12ea16e26","6622ce93b2e61b7d40ff1938","fixation cross","null","","","","","","","","","","","",""
"","1027","html-keyboard-response","91","129427","0.0-11.0-1.0","mZcm8SKYtI","6317457367495fa60d79d84e","6617fad957f7c6a12ea16e26","6622ce93b2e61b7d40ff1938","image grid","p","","","","","Phylogenetic_Distractor_Threat_target","2500","ongrid","q","7","Phylogenetic","false","experimental"
"","null","html-keyboard-response","92","129586","0.0-11.0-2.0","mZcm8SKYtI","6317457367495fa60d79d84e","6617fad957f7c6a12ea16e26","6622ce93b2e61b7d40ff1938","
    <div id=""grid-container"">
        <!-- Grid items will be dynamically added here -->
    </div>    ","null","","","","","","","","","","","",""
"","null","html-keyboard-response","93","130298","0.0-11.0-0.1","mZcm8SKYtI","6317457367495fa60d79d84e","6617fad957f7c6a12ea16e26","6622ce93b2e61b7d40ff1938","fixation cross","null","","","","","","","","","","","",""
"","1086","html-keyboard-response","94","131385","0.0-11.0-1.1","mZcm8SKYtI","6317457367495fa60d79d84e","6617fad957f7c6a12ea16e26","6622ce93b2e61b7d40ff1938","image grid","q","","","","","Phylogenetic_Distractor_Threat_target","2500","ongrid","q","7","Phylogenetic","true","experimental"
"","null","html-keyboard-response","95","131544","0.0-11.0-2.1","mZcm8SKYtI","6317457367495fa60d79d84e","6617fad957f7c6a12ea16e26","6622ce93b2e61b7d40ff1938","
    <div id=""grid-container"">
        <!-- Grid items will be dynamically added here -->
    </div>    ","null","","","","","","","","","","","",""
"","null","html-keyboard-response","96","132253","0.0-11.0-0.2","mZcm8SKYtI","6317457367495fa60d79d84e","6617fad957f7c6a12ea16e26","6622ce93b2e61b7d40ff1938","fixation cross","null","","","","","","","","","","","",""
"","914","html-keyboard-response","97","133167","0.0-11.0-1.2","mZcm8SKYtI","6317457367495fa60d79d84e","6617fad957f7c6a12ea16e26","6622ce93b2e61b7d40ff1938","image grid","q","","","","","Phylogenetic_Distractor_Threat_target","2500","ongrid","q","8","Phylogenetic","true","experimental"
"","null","html-keyboard-response","98","133330","0.0-11.0-2.2","mZcm8SKYtI","6317457367495fa60d79d84e","6617fad957f7c6a12ea16e26","6622ce93b2e61b7d40ff1938","
    <div id=""grid-container"">
        <!-- Grid items will be dynamically added here -->
    </div>    ","null","","","","","","","","","","","",""
"","null","html-keyboard-response","99","134040","0.0-11.0-0.3","mZcm8SKYtI","6317457367495fa60d79d84e","6617fad957f7c6a12ea16e26","6622ce93b2e61b7d40ff1938","fixation cross","null","","","","","","","","","","","",""
"","779","html-keyboard-response","100","134819","0.0-11.0-1.3","mZcm8SKYtI","6317457367495fa60d79d84e","6617fad957f7c6a12ea16e26","6622ce93b2e61b7d40ff1938","image grid","q","","","","","Phylogenetic_Distractor_Threat_target","2500","ongrid","q","7","Phylogenetic","true","experimental"
"","null","html-keyboard-response","101","134982","0.0-11.0-2.3","mZcm8SKYtI","6317457367495fa60d79d84e","6617fad957f7c6a12ea16e26","6622ce93b2e61b7d40ff1938","
    <div id=""grid-container"">
        <!-- Grid items will be dynamically added here -->
    </div>    ","null","","","","","","","","","","","",""
"","null","html-keyboard-response","102","135692","0.0-11.0-0.4","mZcm8SKYtI","6317457367495fa60d79d84e","6617fad957f7c6a12ea16e26","6622ce93b2e61b7d40ff1938","fixation cross","null","","","","","","","","","","","",""
"","865","html-keyboard-response","103","136557","0.0-11.0-1.4","mZcm8SKYtI","6317457367495fa60d79d84e","6617fad957f7c6a12ea16e26","6622ce93b2e61b7d40ff1938","image grid","p","","","","","Phylogenetic_Distractor_Nonthreat_target","2500","ongrid","p","5","Phylogenetic","true","experimental"
"","null","html-keyboard-response","104","136716","0.0-11.0-2.4","mZcm8SKYtI","6317457367495fa60d79d84e","6617fad957f7c6a12ea16e26","6622ce93b2e61b7d40ff1938","
    <div id=""grid-container"">
        <!-- Grid items will be dynamically added here -->
    </div>    ","null","","","","","","","","","","","",""
"","null","html-keyboard-response","105","137428","0.0-11.0-0.5","mZcm8SKYtI","6317457367495fa60d79d84e","6617fad957f7c6a12ea16e26","6622ce93b2e61b7d40ff1938","fixation cross","null","","","","","","","","","","","",""
"","1016","html-keyboard-response","106","138444","0.0-11.0-1.5","mZcm8SKYtI","6317457367495fa60d79d84e","6617fad957f7c6a12ea16e26","6622ce93b2e61b7d40ff1938","image grid","p","","","","","Phylogenetic_Distractor_Nonthreat_target","2500","ongrid","p","1","Phylogenetic","true","experimental"
"","null","html-keyboard-response","107","138596","0.0-11.0-2.5","mZcm8SKYtI","6317457367495fa60d79d84e","6617fad957f7c6a12ea16e26","6622ce93b2e61b7d40ff1938","
    <div id=""grid-container"">
        <!-- Grid items will be dynamically added here -->
    </div>    ","null","","","","","","","","","","","",""
"","null","html-keyboard-response","108","139313","0.0-11.0-0.6","mZcm8SKYtI","6317457367495fa60d79d84e","6617fad957f7c6a12ea16e26","6622ce93b2e61b7d40ff1938","fixation cross","null","","","","","","","","","","","",""
"","1088","html-keyboard-response","109","140401","0.0-11.0-1.6","mZcm8SKYtI","6317457367495fa60d79d84e","6617fad957f7c6a12ea16e26","6622ce93b2e61b7d40ff1938","image grid","p","","","","","Phylogenetic_Distractor_Nonthreat_target","2500","ongrid","p","1","Phylogenetic","true","experimental"
"","null","html-keyboard-response","110","140559","0.0-11.0-2.6","mZcm8SKYtI","6317457367495fa60d79d84e","6617fad957f7c6a12ea16e26","6622ce93b2e61b7d40ff1938","
    <div id=""grid-container"">
        <!-- Grid items will be dynamically added here -->
    </div>    ","null","","","","","","","","","","","",""
"","null","html-keyboard-response","111","141268","0.0-11.0-0.7","mZcm8SKYtI","6317457367495fa60d79d84e","6617fad957f7c6a12ea16e26","6622ce93b2e61b7d40ff1938","fixation cross","null","","","","","","","","","","","",""
"","1206","html-keyboard-response","112","142474","0.0-11.0-1.7","mZcm8SKYtI","6317457367495fa60d79d84e","6617fad957f7c6a12ea16e26","6622ce93b2e61b7d40ff1938","image grid","p","","","","","Phylogenetic_Distractor_Nonthreat_target","2500","ongrid","p","6","Phylogenetic","true","experimental"
"","null","html-keyboard-response","113","142634","0.0-11.0-2.7","mZcm8SKYtI","6317457367495fa60d79d84e","6617fad957f7c6a12ea16e26","6622ce93b2e61b7d40ff1938","
    <div id=""grid-container"">
        <!-- Grid items will be dynamically added here -->
    </div>    ","null","","","","","","","","","","","",""
"","null","html-keyboard-response","114","143352","0.0-11.0-0.8","mZcm8SKYtI","6317457367495fa60d79d84e","6617fad957f7c6a12ea16e26","6622ce93b2e61b7d40ff1938","fixation cross","null","","","","","","","","","","","",""
"","1171","html-keyboard-response","115","144523","0.0-11.0-1.8","mZcm8SKYtI","6317457367495fa60d79d84e","6617fad957f7c6a12ea16e26","6622ce93b2e61b7d40ff1938","image grid","p","","","","","Phylogenetic_Distractor_Threat_target","2500","ongrid","q","2","Phylogenetic","false","experimental"
"","null","html-keyboard-response","116","144689","0.0-11.0-2.8","mZcm8SKYtI","6317457367495fa60d79d84e","6617fad957f7c6a12ea16e26","6622ce93b2e61b7d40ff1938","
    <div id=""grid-container"">
        <!-- Grid items will be dynamically added here -->
    </div>    ","null","","","","","","","","","","","",""
"","null","html-keyboard-response","117","145407","0.0-11.0-0.9","mZcm8SKYtI","6317457367495fa60d79d84e","6617fad957f7c6a12ea16e26","6622ce93b2e61b7d40ff1938","fixation cross","null","","","","","","","","","","","",""
"","1071","html-keyboard-response","118","146478","0.0-11.0-1.9","mZcm8SKYtI","6317457367495fa60d79d84e","6617fad957f7c6a12ea16e26","6622ce93b2e61b7d40ff1938","image grid","q","","","","","Phylogenetic_Distractor_Threat_target","2500","ongrid","q","7","Phylogenetic","true","experimental"
"","null","html-keyboard-response","119","146642","0.0-11.0-2.9","mZcm8SKYtI","6317457367495fa60d79d84e","6617fad957f7c6a12ea16e26","6622ce93b2e61b7d40ff1938","
    <div id=""grid-container"">
        <!-- Grid items will be dynamically added here -->
    </div>    ","null","","","","","","","","","","","",""
"","null","html-keyboard-response","120","147359","0.0-11.0-0.10","mZcm8SKYtI","6317457367495fa60d79d84e","6617fad957f7c6a12ea16e26","6622ce93b2e61b7d40ff1938","fixation cross","null","","","","","","","","","","","",""
"","1273","html-keyboard-response","121","148632","0.0-11.0-1.10","mZcm8SKYtI","6317457367495fa60d79d84e","6617fad957f7c6a12ea16e26","6622ce93b2e61b7d40ff1938","image grid","p","","","","","Phylogenetic_Distractor_notarget","2500","ongrid"," ","1","Phylogenetic","false","experimental"
"","null","html-keyboard-response","122","148786","0.0-11.0-2.10","mZcm8SKYtI","6317457367495fa60d79d84e","6617fad957f7c6a12ea16e26","6622ce93b2e61b7d40ff1938","
    <div id=""grid-container"">
        <!-- Grid items will be dynamically added here -->
    </div>    ","null","","","","","","","","","","","",""
"","null","html-keyboard-response","123","149505","0.0-11.0-0.11","mZcm8SKYtI","6317457367495fa60d79d84e","6617fad957f7c6a12ea16e26","6622ce93b2e61b7d40ff1938","fixation cross","null","","","","","","","","","","","",""
"","1297","html-keyboard-response","124","150802","0.0-11.0-1.11","mZcm8SKYtI","6317457367495fa60d79d84e","6617fad957f7c6a12ea16e26","6622ce93b2e61b7d40ff1938","image grid","p","","","","","Phylogenetic_Distractor_Nonthreat_target","2500","ongrid","p","3","Phylogenetic","true","experimental"
"","null","html-keyboard-response","125","150962","0.0-11.0-2.11","mZcm8SKYtI","6317457367495fa60d79d84e","6617fad957f7c6a12ea16e26","6622ce93b2e61b7d40ff1938","
    <div id=""grid-container"">
        <!-- Grid items will be dynamically added here -->
    </div>    ","null","","","","","","","","","","","",""
"","null","html-keyboard-response","126","151676","0.0-11.0-0.12","mZcm8SKYtI","6317457367495fa60d79d84e","6617fad957f7c6a12ea16e26","6622ce93b2e61b7d40ff1938","fixation cross","null","","","","","","","","","","","",""
"","1234","html-keyboard-response","127","152910","0.0-11.0-1.12","mZcm8SKYtI","6317457367495fa60d79d84e","6617fad957f7c6a12ea16e26","6622ce93b2e61b7d40ff1938","image grid","q","","","","","Phylogenetic_Distractor_Threat_target","2500","ongrid","q","3","Phylogenetic","true","experimental"
"","null","html-keyboard-response","128","153073","0.0-11.0-2.12","mZcm8SKYtI","6317457367495fa60d79d84e","6617fad957f7c6a12ea16e26","6622ce93b2e61b7d40ff1938","
    <div id=""grid-container"">
        <!-- Grid items will be dynamically added here -->
    </div>    ","null","","","","","","","","","","","",""
"","null","html-keyboard-response","129","153777","0.0-11.0-0.13","mZcm8SKYtI","6317457367495fa60d79d84e","6617fad957f7c6a12ea16e26","6622ce93b2e61b7d40ff1938","fixation cross","null","","","","","","","","","","","",""
"","786","html-keyboard-response","130","154564","0.0-11.0-1.13","mZcm8SKYtI","6317457367495fa60d79d84e","6617fad957f7c6a12ea16e26","6622ce93b2e61b7d40ff1938","image grid","q","","","","","Phylogenetic_Distractor_Threat_target","2500","ongrid","q","2","Phylogenetic","true","experimental"
"","null","html-keyboard-response","131","154722","0.0-11.0-2.13","mZcm8SKYtI","6317457367495fa60d79d84e","6617fad957f7c6a12ea16e26","6622ce93b2e61b7d40ff1938","
    <div id=""grid-container"">
        <!-- Grid items will be dynamically added here -->
    </div>    ","null","","","","","","","","","","","",""
"","null","html-keyboard-response","132","155441","0.0-11.0-0.14","mZcm8SKYtI","6317457367495fa60d79d84e","6617fad957f7c6a12ea16e26","6622ce93b2e61b7d40ff1938","fixation cross","null","","","","","","","","","","","",""
"","900","html-keyboard-response","133","156342","0.0-11.0-1.14","mZcm8SKYtI","6317457367495fa60d79d84e","6617fad957f7c6a12ea16e26","6622ce93b2e61b7d40ff1938","image grid","p","","","","","Phylogenetic_Distractor_Nonthreat_target","2500","ongrid","p","8","Phylogenetic","true","experimental"
"","null","html-keyboard-response","134","156506","0.0-11.0-2.14","mZcm8SKYtI","6317457367495fa60d79d84e","6617fad957f7c6a12ea16e26","6622ce93b2e61b7d40ff1938","
    <div id=""grid-container"">
        <!-- Grid items will be dynamically added here -->
    </div>    ","null","","","","","","","","","","","",""
"","null","html-keyboard-response","135","157213","0.0-11.0-0.15","mZcm8SKYtI","6317457367495fa60d79d84e","6617fad957f7c6a12ea16e26","6622ce93b2e61b7d40ff1938","fixation cross","null","","","","","","","","","","","",""
"","1078","html-keyboard-response","136","158292","0.0-11.0-1.15","mZcm8SKYtI","6317457367495fa60d79d84e","6617fad957f7c6a12ea16e26","6622ce93b2e61b7d40ff1938","image grid","p","","","","","Phylogenetic_Distractor_Nonthreat_target","2500","ongrid","p","9","Phylogenetic","true","experimental"
"","null","html-keyboard-response","137","158448","0.0-11.0-2.15","mZcm8SKYtI","6317457367495fa60d79d84e","6617fad957f7c6a12ea16e26","6622ce93b2e61b7d40ff1938","
    <div id=""grid-container"">
        <!-- Grid items will be dynamically added here -->
    </div>    ","null","","","","","","","","","","","",""
"","null","html-keyboard-response","138","159155","0.0-11.0-0.16","mZcm8SKYtI","6317457367495fa60d79d84e","6617fad957f7c6a12ea16e26","6622ce93b2e61b7d40ff1938","fixation cross","null","","","","","","","","","","","",""
"","526","html-keyboard-response","139","159681","0.0-11.0-1.16","mZcm8SKYtI","6317457367495fa60d79d84e","6617fad957f7c6a12ea16e26","6622ce93b2e61b7d40ff1938","image grid","q","","","","","Phylogenetic_Distractor_Threat_target","2500","ongrid","q","9","Phylogenetic","true","experimental"
"","null","html-keyboard-response","140","159840","0.0-11.0-2.16","mZcm8SKYtI","6317457367495fa60d79d84e","6617fad957f7c6a12ea16e26","6622ce93b2e61b7d40ff1938","
    <div id=""grid-container"">
        <!-- Grid items will be dynamically added here -->
    </div>    ","null","","","","","","","","","","","",""
"","null","html-keyboard-response","141","160557","0.0-11.0-0.17","mZcm8SKYtI","6317457367495fa60d79d84e","6617fad957f7c6a12ea16e26","6622ce93b2e61b7d40ff1938","fixation cross","null","","","","","","","","","","","",""
"","1485","html-keyboard-response","142","162043","0.0-11.0-1.17","mZcm8SKYtI","6317457367495fa60d79d84e","6617fad957f7c6a12ea16e26","6622ce93b2e61b7d40ff1938","image grid","p","","","","","Phylogenetic_Distractor_Nonthreat_target","2500","ongrid","p","9","Phylogenetic","true","experimental"
"","null","html-keyboard-response","143","162200","0.0-11.0-2.17","mZcm8SKYtI","6317457367495fa60d79d84e","6617fad957f7c6a12ea16e26","6622ce93b2e61b7d40ff1938","
    <div id=""grid-container"">
        <!-- Grid items will be dynamically added here -->
    </div>    ","null","","","","","","","","","","","",""
"","null","html-keyboard-response","144","162910","0.0-11.0-0.18","mZcm8SKYtI","6317457367495fa60d79d84e","6617fad957f7c6a12ea16e26","6622ce93b2e61b7d40ff1938","fixation cross","null","","","","","","","","","","","",""
"","1027","html-keyboard-response","145","163938","0.0-11.0-1.18","mZcm8SKYtI","6317457367495fa60d79d84e","6617fad957f7c6a12ea16e26","6622ce93b2e61b7d40ff1938","image grid","p","","","","","Phylogenetic_Distractor_Nonthreat_target","2500","ongrid","p","9","Phylogenetic","true","experimental"
"","null","html-keyboard-response","146","164095","0.0-11.0-2.18","mZcm8SKYtI","6317457367495fa60d79d84e","6617fad957f7c6a12ea16e26","6622ce93b2e61b7d40ff1938","
    <div id=""grid-container"">
        <!-- Grid items will be dynamically added here -->
    </div>    ","null","","","","","","","","","","","",""
"","null","html-keyboard-response","147","164801","0.0-11.0-0.19","mZcm8SKYtI","6317457367495fa60d79d84e","6617fad957f7c6a12ea16e26","6622ce93b2e61b7d40ff1938","fixation cross","null","","","","","","","","","","","",""
"","1052","html-keyboard-response","148","165853","0.0-11.0-1.19","mZcm8SKYtI","6317457367495fa60d79d84e","6617fad957f7c6a12ea16e26","6622ce93b2e61b7d40ff1938","image grid","q","","","","","Phylogenetic_Distractor_Threat_target","2500","ongrid","q","2","Phylogenetic","true","experimental"
"","null","html-keyboard-response","149","166006","0.0-11.0-2.19","mZcm8SKYtI","6317457367495fa60d79d84e","6617fad957f7c6a12ea16e26","6622ce93b2e61b7d40ff1938","
    <div id=""grid-container"">
        <!-- Grid items will be dynamically added here -->
    </div>    ","null","","","","","","","","","","","",""
"","null","html-keyboard-response","150","166715","0.0-11.0-0.20","mZcm8SKYtI","6317457367495fa60d79d84e","6617fad957f7c6a12ea16e26","6622ce93b2e61b7d40ff1938","fixation cross","null","","","","","","","","","","","",""
"","716","html-keyboard-response","151","167432","0.0-11.0-1.20","mZcm8SKYtI","6317457367495fa60d79d84e","6617fad957f7c6a12ea16e26","6622ce93b2e61b7d40ff1938","image grid","q","","","","","Phylogenetic_Distractor_Threat_target","2500","ongrid","q","9","Phylogenetic","true","experimental"
"","null","html-keyboard-response","152","167595","0.0-11.0-2.20","mZcm8SKYtI","6317457367495fa60d79d84e","6617fad957f7c6a12ea16e26","6622ce93b2e61b7d40ff1938","
    <div id=""grid-container"">
        <!-- Grid items will be dynamically added here -->
    </div>    ","null","","","","","","","","","","","",""
"","null","html-keyboard-response","153","168299","0.0-11.0-0.21","mZcm8SKYtI","6317457367495fa60d79d84e","6617fad957f7c6a12ea16e26","6622ce93b2e61b7d40ff1938","fixation cross","null","","","","","","","","","","","",""
"","748","html-keyboard-response","154","169047","0.0-11.0-1.21","mZcm8SKYtI","6317457367495fa60d79d84e","6617fad957f7c6a12ea16e26","6622ce93b2e61b7d40ff1938","image grid","q","","","","","Phylogenetic_Distractor_Threat_target","2500","ongrid","q","1","Phylogenetic","true","experimental"
"","null","html-keyboard-response","155","169204","0.0-11.0-2.21","mZcm8SKYtI","6317457367495fa60d79d84e","6617fad957f7c6a12ea16e26","6622ce93b2e61b7d40ff1938","
    <div id=""grid-container"">
        <!-- Grid items will be dynamically added here -->
    </div>    ","null","","","","","","","","","","","",""
"","null","html-keyboard-response","156","169924","0.0-11.0-0.22","mZcm8SKYtI","6317457367495fa60d79d84e","6617fad957f7c6a12ea16e26","6622ce93b2e61b7d40ff1938","fixation cross","null","","","","","","","","","","","",""
"","799","html-keyboard-response","157","170724","0.0-11.0-1.22","mZcm8SKYtI","6317457367495fa60d79d84e","6617fad957f7c6a12ea16e26","6622ce93b2e61b7d40ff1938","image grid","p","","","","","Phylogenetic_Distractor_Nonthreat_target","2500","ongrid","p","2","Phylogenetic","true","experimental"
"","null","html-keyboard-response","158","170875","0.0-11.0-2.22","mZcm8SKYtI","6317457367495fa60d79d84e","6617fad957f7c6a12ea16e26","6622ce93b2e61b7d40ff1938","
    <div id=""grid-container"">
        <!-- Grid items will be dynamically added here -->
    </div>    ","null","","","","","","","","","","","",""
"","null","html-keyboard-response","159","171592","0.0-11.0-0.23","mZcm8SKYtI","6317457367495fa60d79d84e","6617fad957f7c6a12ea16e26","6622ce93b2e61b7d40ff1938","fixation cross","null","","","","","","","","","","","",""
"","788","html-keyboard-response","160","172381","0.0-11.0-1.23","mZcm8SKYtI","6317457367495fa60d79d84e","6617fad957f7c6a12ea16e26","6622ce93b2e61b7d40ff1938","image grid","p","","","","","Phylogenetic_Distractor_notarget","2500","ongrid"," ","9","Phylogenetic","false","experimental"
"","null","html-keyboard-response","161","172534","0.0-11.0-2.23","mZcm8SKYtI","6317457367495fa60d79d84e","6617fad957f7c6a12ea16e26","6622ce93b2e61b7d40ff1938","
    <div id=""grid-container"">
        <!-- Grid items will be dynamically added here -->
    </div>    ","null","","","","","","","","","","","",""
"","null","html-keyboard-response","162","173253","0.0-11.0-0.24","mZcm8SKYtI","6317457367495fa60d79d84e","6617fad957f7c6a12ea16e26","6622ce93b2e61b7d40ff1938","fixation cross","null","","","","","","","","","","","",""
"","913","html-keyboard-response","163","174166","0.0-11.0-1.24","mZcm8SKYtI","6317457367495fa60d79d84e","6617fad957f7c6a12ea16e26","6622ce93b2e61b7d40ff1938","image grid","q","","","","","Phylogenetic_Distractor_Threat_target","2500","ongrid","q","1","Phylogenetic","true","experimental"
"","null","html-keyboard-response","164","174320","0.0-11.0-2.24","mZcm8SKYtI","6317457367495fa60d79d84e","6617fad957f7c6a12ea16e26","6622ce93b2e61b7d40ff1938","
    <div id=""grid-container"">
        <!-- Grid items will be dynamically added here -->
    </div>    ","null","","","","","","","","","","","",""
"","null","html-keyboard-response","165","175030","0.0-11.0-0.25","mZcm8SKYtI","6317457367495fa60d79d84e","6617fad957f7c6a12ea16e26","6622ce93b2e61b7d40ff1938","fixation cross","null","","","","","","","","","","","",""
"","836","html-keyboard-response","166","175866","0.0-11.0-1.25","mZcm8SKYtI","6317457367495fa60d79d84e","6617fad957f7c6a12ea16e26","6622ce93b2e61b7d40ff1938","image grid","p","","","","","Phylogenetic_Distractor_Nonthreat_target","2500","ongrid","p","4","Phylogenetic","true","experimental"
"","null","html-keyboard-response","167","176021","0.0-11.0-2.25","mZcm8SKYtI","6317457367495fa60d79d84e","6617fad957f7c6a12ea16e26","6622ce93b2e61b7d40ff1938","
    <div id=""grid-container"">
        <!-- Grid items will be dynamically added here -->
    </div>    ","null","","","","","","","","","","","",""
"","null","html-keyboard-response","168","176730","0.0-11.0-0.26","mZcm8SKYtI","6317457367495fa60d79d84e","6617fad957f7c6a12ea16e26","6622ce93b2e61b7d40ff1938","fixation cross","null","","","","","","","","","","","",""
"","564","html-keyboard-response","169","177295","0.0-11.0-1.26","mZcm8SKYtI","6317457367495fa60d79d84e","6617fad957f7c6a12ea16e26","6622ce93b2e61b7d40ff1938","image grid","q","","","","","Phylogenetic_Distractor_Threat_target","2500","ongrid","q","5","Phylogenetic","true","experimental"
"","null","html-keyboard-response","170","177456","0.0-11.0-2.26","mZcm8SKYtI","6317457367495fa60d79d84e","6617fad957f7c6a12ea16e26","6622ce93b2e61b7d40ff1938","
    <div id=""grid-container"">
        <!-- Grid items will be dynamically added here -->
    </div>    ","null","","","","","","","","","","","",""
"","null","html-keyboard-response","171","178167","0.0-11.0-0.27","mZcm8SKYtI","6317457367495fa60d79d84e","6617fad957f7c6a12ea16e26","6622ce93b2e61b7d40ff1938","fixation cross","null","","","","","","","","","","","",""
"","918","html-keyboard-response","172","179086","0.0-11.0-1.27","mZcm8SKYtI","6317457367495fa60d79d84e","6617fad957f7c6a12ea16e26","6622ce93b2e61b7d40ff1938","image grid","q","","","","","Phylogenetic_Distractor_Threat_target","2500","ongrid","q","1","Phylogenetic","true","experimental"
"","null","html-keyboard-response","173","179249","0.0-11.0-2.27","mZcm8SKYtI","6317457367495fa60d79d84e","6617fad957f7c6a12ea16e26","6622ce93b2e61b7d40ff1938","
    <div id=""grid-container"">
        <!-- Grid items will be dynamically added here -->
    </div>    ","null","","","","","","","","","","","",""
"","null","html-keyboard-response","174","179964","0.0-11.0-0.28","mZcm8SKYtI","6317457367495fa60d79d84e","6617fad957f7c6a12ea16e26","6622ce93b2e61b7d40ff1938","fixation cross","null","","","","","","","","","","","",""
"","768","html-keyboard-response","175","180733","0.0-11.0-1.28","mZcm8SKYtI","6317457367495fa60d79d84e","6617fad957f7c6a12ea16e26","6622ce93b2e61b7d40ff1938","image grid","p","","","","","Phylogenetic_Distractor_Nonthreat_target","2500","ongrid","p","7","Phylogenetic","true","experimental"
"","null","html-keyboard-response","176","180893","0.0-11.0-2.28","mZcm8SKYtI","6317457367495fa60d79d84e","6617fad957f7c6a12ea16e26","6622ce93b2e61b7d40ff1938","
    <div id=""grid-container"">
        <!-- Grid items will be dynamically added here -->
    </div>    ","null","","","","","","","","","","","",""
"","null","html-keyboard-response","177","181598","0.0-11.0-0.29","mZcm8SKYtI","6317457367495fa60d79d84e","6617fad957f7c6a12ea16e26","6622ce93b2e61b7d40ff1938","fixation cross","null","","","","","","","","","","","",""
"","1649","html-keyboard-response","178","183247","0.0-11.0-1.29","mZcm8SKYtI","6317457367495fa60d79d84e","6617fad957f7c6a12ea16e26","6622ce93b2e61b7d40ff1938","image grid","p","","","","","Phylogenetic_Distractor_Threat_target","2500","ongrid","q","1","Phylogenetic","false","experimental"
"","null","html-keyboard-response","179","183399","0.0-11.0-2.29","mZcm8SKYtI","6317457367495fa60d79d84e","6617fad957f7c6a12ea16e26","6622ce93b2e61b7d40ff1938","
    <div id=""grid-container"">
        <!-- Grid items will be dynamically added here -->
    </div>    ","null","","","","","","","","","","","",""
"","null","html-keyboard-response","180","184104","0.0-11.0-0.30","mZcm8SKYtI","6317457367495fa60d79d84e","6617fad957f7c6a12ea16e26","6622ce93b2e61b7d40ff1938","fixation cross","null","","","","","","","","","","","",""
"","971","html-keyboard-response","181","185076","0.0-11.0-1.30","mZcm8SKYtI","6317457367495fa60d79d84e","6617fad957f7c6a12ea16e26","6622ce93b2e61b7d40ff1938","image grid","p","","","","","Phylogenetic_Distractor_Nonthreat_target","2500","ongrid","p","8","Phylogenetic","true","experimental"
"","null","html-keyboard-response","182","185240","0.0-11.0-2.30","mZcm8SKYtI","6317457367495fa60d79d84e","6617fad957f7c6a12ea16e26","6622ce93b2e61b7d40ff1938","
    <div id=""grid-container"">
        <!-- Grid items will be dynamically added here -->
    </div>    ","null","","","","","","","","","","","",""
"","null","html-keyboard-response","183","185958","0.0-11.0-0.31","mZcm8SKYtI","6317457367495fa60d79d84e","6617fad957f7c6a12ea16e26","6622ce93b2e61b7d40ff1938","fixation cross","null","","","","","","","","","","","",""
"","904","html-keyboard-response","184","186862","0.0-11.0-1.31","mZcm8SKYtI","6317457367495fa60d79d84e","6617fad957f7c6a12ea16e26","6622ce93b2e61b7d40ff1938","image grid","q","","","","","Phylogenetic_Distractor_Threat_target","2500","ongrid","q","5","Phylogenetic","true","experimental"
"","null","html-keyboard-response","185","187024","0.0-11.0-2.31","mZcm8SKYtI","6317457367495fa60d79d84e","6617fad957f7c6a12ea16e26","6622ce93b2e61b7d40ff1938","
    <div id=""grid-container"">
        <!-- Grid items will be dynamically added here -->
    </div>    ","null","","","","","","","","","","","",""
"","null","html-keyboard-response","186","187727","0.0-11.0-0.32","mZcm8SKYtI","6317457367495fa60d79d84e","6617fad957f7c6a12ea16e26","6622ce93b2e61b7d40ff1938","fixation cross","null","","","","","","","","","","","",""
"","887","html-keyboard-response","187","188614","0.0-11.0-1.32","mZcm8SKYtI","6317457367495fa60d79d84e","6617fad957f7c6a12ea16e26","6622ce93b2e61b7d40ff1938","image grid","p","","","","","Phylogenetic_Distractor_Nonthreat_target","2500","ongrid","p","4","Phylogenetic","true","experimental"
"","null","html-keyboard-response","188","188767","0.0-11.0-2.32","mZcm8SKYtI","6317457367495fa60d79d84e","6617fad957f7c6a12ea16e26","6622ce93b2e61b7d40ff1938","
    <div id=""grid-container"">
        <!-- Grid items will be dynamically added here -->
    </div>    ","null","","","","","","","","","","","",""
"","null","html-keyboard-response","189","189475","0.0-11.0-0.33","mZcm8SKYtI","6317457367495fa60d79d84e","6617fad957f7c6a12ea16e26","6622ce93b2e61b7d40ff1938","fixation cross","null","","","","","","","","","","","",""
"","1031","html-keyboard-response","190","190505","0.0-11.0-1.33","mZcm8SKYtI","6317457367495fa60d79d84e","6617fad957f7c6a12ea16e26","6622ce93b2e61b7d40ff1938","image grid","p","","","","","Phylogenetic_Distractor_Threat_target","2500","ongrid","q","2","Phylogenetic","false","experimental"
"","92","html-keyboard-response","191","190667","0.0-11.0-2.33","mZcm8SKYtI","6317457367495fa60d79d84e","6617fad957f7c6a12ea16e26","6622ce93b2e61b7d40ff1938","
    <div id=""grid-container"">
        <!-- Grid items will be dynamically added here -->
    </div>    ","q","","","","","","","","","","","",""
"","null","html-keyboard-response","192","191375","0.0-11.0-0.34","mZcm8SKYtI","6317457367495fa60d79d84e","6617fad957f7c6a12ea16e26","6622ce93b2e61b7d40ff1938","fixation cross","null","","","","","","","","","","","",""
"","1204","html-keyboard-response","193","192580","0.0-11.0-1.34","mZcm8SKYtI","6317457367495fa60d79d84e","6617fad957f7c6a12ea16e26","6622ce93b2e61b7d40ff1938","image grid","p","","","","","Phylogenetic_Distractor_notarget","2500","ongrid"," ","5","Phylogenetic","false","experimental"
"","null","html-keyboard-response","194","192731","0.0-11.0-2.34","mZcm8SKYtI","6317457367495fa60d79d84e","6617fad957f7c6a12ea16e26","6622ce93b2e61b7d40ff1938","
    <div id=""grid-container"">
        <!-- Grid items will be dynamically added here -->
    </div>    ","null","","","","","","","","","","","",""
"","null","html-keyboard-response","195","193439","0.0-11.0-0.35","mZcm8SKYtI","6317457367495fa60d79d84e","6617fad957f7c6a12ea16e26","6622ce93b2e61b7d40ff1938","fixation cross","null","","","","","","","","","","","",""
"","866","html-keyboard-response","196","194305","0.0-11.0-1.35","mZcm8SKYtI","6317457367495fa60d79d84e","6617fad957f7c6a12ea16e26","6622ce93b2e61b7d40ff1938","image grid","p","","","","","Phylogenetic_Distractor_Nonthreat_target","2500","ongrid","p","8","Phylogenetic","true","experimental"
"","null","html-keyboard-response","197","194470","0.0-11.0-2.35","mZcm8SKYtI","6317457367495fa60d79d84e","6617fad957f7c6a12ea16e26","6622ce93b2e61b7d40ff1938","
    <div id=""grid-container"">
        <!-- Grid items will be dynamically added here -->
    </div>    ","null","","","","","","","","","","","",""
"","null","html-keyboard-response","198","195176","0.0-11.0-0.36","mZcm8SKYtI","6317457367495fa60d79d84e","6617fad957f7c6a12ea16e26","6622ce93b2e61b7d40ff1938","fixation cross","null","","","","","","","","","","","",""
"","849","html-keyboard-response","199","196025","0.0-11.0-1.36","mZcm8SKYtI","6317457367495fa60d79d84e","6617fad957f7c6a12ea16e26","6622ce93b2e61b7d40ff1938","image grid","p","","","","","Phylogenetic_Distractor_Nonthreat_target","2500","ongrid","p","6","Phylogenetic","true","experimental"
"","null","html-keyboard-response","200","196189","0.0-11.0-2.36","mZcm8SKYtI","6317457367495fa60d79d84e","6617fad957f7c6a12ea16e26","6622ce93b2e61b7d40ff1938","
    <div id=""grid-container"">
        <!-- Grid items will be dynamically added here -->
    </div>    ","null","","","","","","","","","","","",""
"","null","html-keyboard-response","201","196906","0.0-11.0-0.37","mZcm8SKYtI","6317457367495fa60d79d84e","6617fad957f7c6a12ea16e26","6622ce93b2e61b7d40ff1938","fixation cross","null","","","","","","","","","","","",""
"","813","html-keyboard-response","202","197719","0.0-11.0-1.37","mZcm8SKYtI","6317457367495fa60d79d84e","6617fad957f7c6a12ea16e26","6622ce93b2e61b7d40ff1938","image grid","p","","","","","Phylogenetic_Distractor_Nonthreat_target","2500","ongrid","p","5","Phylogenetic","true","experimental"
"","null","html-keyboard-response","203","197877","0.0-11.0-2.37","mZcm8SKYtI","6317457367495fa60d79d84e","6617fad957f7c6a12ea16e26","6622ce93b2e61b7d40ff1938","
    <div id=""grid-container"">
        <!-- Grid items will be dynamically added here -->
    </div>    ","null","","","","","","","","","","","",""
"","null","html-keyboard-response","204","198586","0.0-11.0-0.38","mZcm8SKYtI","6317457367495fa60d79d84e","6617fad957f7c6a12ea16e26","6622ce93b2e61b7d40ff1938","fixation cross","null","","","","","","","","","","","",""
"","990","html-keyboard-response","205","199576","0.0-11.0-1.38","mZcm8SKYtI","6317457367495fa60d79d84e","6617fad957f7c6a12ea16e26","6622ce93b2e61b7d40ff1938","image grid","p","","","","","Phylogenetic_Distractor_Nonthreat_target","2500","ongrid","p","1","Phylogenetic","true","experimental"
"","null","html-keyboard-response","206","199741","0.0-11.0-2.38","mZcm8SKYtI","6317457367495fa60d79d84e","6617fad957f7c6a12ea16e26","6622ce93b2e61b7d40ff1938","
    <div id=""grid-container"">
        <!-- Grid items will be dynamically added here -->
    </div>    ","null","","","","","","","","","","","",""
"","null","html-keyboard-response","207","200472","0.0-11.0-0.39","mZcm8SKYtI","6317457367495fa60d79d84e","6617fad957f7c6a12ea16e26","6622ce93b2e61b7d40ff1938","fixation cross","null","","","","","","","","","","","",""
"","1971","html-keyboard-response","208","202443","0.0-11.0-1.39","mZcm8SKYtI","6317457367495fa60d79d84e","6617fad957f7c6a12ea16e26","6622ce93b2e61b7d40ff1938","image grid","p","","","","","Phylogenetic_Distractor_notarget","2500","ongrid"," ","6","Phylogenetic","false","experimental"
"","null","html-keyboard-response","209","202597","0.0-11.0-2.39","mZcm8SKYtI","6317457367495fa60d79d84e","6617fad957f7c6a12ea16e26","6622ce93b2e61b7d40ff1938","
    <div id=""grid-container"">
        <!-- Grid items will be dynamically added here -->
    </div>    ","null","","","","","","","","","","","",""
"","2841","html-keyboard-response","210","205669","0.0-12.0","mZcm8SKYtI","6317457367495fa60d79d84e","6617fad957f7c6a12ea16e26","6622ce93b2e61b7d40ff1938","break screen"," ","","","","","","","","","","","",""
"","null","html-keyboard-response","211","208187","0.0-13.0-0.0","mZcm8SKYtI","6317457367495fa60d79d84e","6617fad957f7c6a12ea16e26","6622ce93b2e61b7d40ff1938","fixation cross","null","","","","","","","","","","","",""
"","null","html-keyboard-response","212","208993","0.0-13.0-1.0","mZcm8SKYtI","6317457367495fa60d79d84e","6617fad957f7c6a12ea16e26","6622ce93b2e61b7d40ff1938","
        <div id=""grid-container"">
        <!-- Grid items will be dynamically added here -->
    </div>    ","null","","","","","","","","","","","",""
"","986","html-keyboard-response","213","209179","0.0-13.0-2.0","mZcm8SKYtI","6317457367495fa60d79d84e","6617fad957f7c6a12ea16e26","6622ce93b2e61b7d40ff1938","mask grid","p","","","","","Phylogenetic_Distractor_Nonthreat_target","800","onmask","p","9","Phylogenetic","true","experimental"
"","null","html-keyboard-response","214","209898","0.0-13.0-0.1","mZcm8SKYtI","6317457367495fa60d79d84e","6617fad957f7c6a12ea16e26","6622ce93b2e61b7d40ff1938","fixation cross","null","","","","","","","","","","","",""
"","null","html-keyboard-response","215","210707","0.0-13.0-1.1","mZcm8SKYtI","6317457367495fa60d79d84e","6617fad957f7c6a12ea16e26","6622ce93b2e61b7d40ff1938","
        <div id=""grid-container"">
        <!-- Grid items will be dynamically added here -->
    </div>    ","null","","","","","","","","","","","",""
"","4866","html-keyboard-response","216","214773","0.0-13.0-2.1","mZcm8SKYtI","6317457367495fa60d79d84e","6617fad957f7c6a12ea16e26","6622ce93b2e61b7d40ff1938","mask grid","p","","","","","Phylogenetic_Distractor_Nonthreat_target","800","onmask","p","1","Phylogenetic","true","experimental"
"","null","html-keyboard-response","217","215503","0.0-13.0-0.2","mZcm8SKYtI","6317457367495fa60d79d84e","6617fad957f7c6a12ea16e26","6622ce93b2e61b7d40ff1938","fixation cross","null","","","","","","","","","","","",""
"","750","html-keyboard-response","218","216253","0.0-13.0-1.2","mZcm8SKYtI","6317457367495fa60d79d84e","6617fad957f7c6a12ea16e26","6622ce93b2e61b7d40ff1938","image grid","p","","","","","Phylogenetic_Distractor_Nonthreat_target","800","ongrid","p","5","Phylogenetic","true","experimental"
"","null","html-keyboard-response","219","216413","0.0-13.0-2.2","mZcm8SKYtI","6317457367495fa60d79d84e","6617fad957f7c6a12ea16e26","6622ce93b2e61b7d40ff1938","
    <div id=""grid-container"">
        <!-- Grid items will be dynamically added here -->
    </div>    ","null","","","","","","","","","","","",""
"","null","html-keyboard-response","220","217117","0.0-13.0-0.3","mZcm8SKYtI","6317457367495fa60d79d84e","6617fad957f7c6a12ea16e26","6622ce93b2e61b7d40ff1938","fixation cross","null","","","","","","","","","","","",""
"","667","html-keyboard-response","221","217784","0.0-13.0-1.3","mZcm8SKYtI","6317457367495fa60d79d84e","6617fad957f7c6a12ea16e26","6622ce93b2e61b7d40ff1938","image grid","p","","","","","Phylogenetic_Distractor_Nonthreat_target","800","ongrid","p","9","Phylogenetic","true","experimental"
"","null","html-keyboard-response","222","217939","0.0-13.0-2.3","mZcm8SKYtI","6317457367495fa60d79d84e","6617fad957f7c6a12ea16e26","6622ce93b2e61b7d40ff1938","
    <div id=""grid-container"">
        <!-- Grid items will be dynamically added here -->
    </div>    ","null","","","","","","","","","","","",""
"","null","html-keyboard-response","223","218651","0.0-13.0-0.4","mZcm8SKYtI","6317457367495fa60d79d84e","6617fad957f7c6a12ea16e26","6622ce93b2e61b7d40ff1938","fixation cross","null","","","","","","","","","","","",""
"","787","html-keyboard-response","224","219438","0.0-13.0-1.4","mZcm8SKYtI","6317457367495fa60d79d84e","6617fad957f7c6a12ea16e26","6622ce93b2e61b7d40ff1938","image grid","p","","","","","Phylogenetic_Distractor_Nonthreat_target","800","ongrid","p","2","Phylogenetic","true","experimental"
"","null","html-keyboard-response","225","219593","0.0-13.0-2.4","mZcm8SKYtI","6317457367495fa60d79d84e","6617fad957f7c6a12ea16e26","6622ce93b2e61b7d40ff1938","
    <div id=""grid-container"">
        <!-- Grid items will be dynamically added here -->
    </div>    ","null","","","","","","","","","","","",""
"","null","html-keyboard-response","226","220301","0.0-13.0-0.5","mZcm8SKYtI","6317457367495fa60d79d84e","6617fad957f7c6a12ea16e26","6622ce93b2e61b7d40ff1938","fixation cross","null","","","","","","","","","","","",""
"","658","html-keyboard-response","227","220959","0.0-13.0-1.5","mZcm8SKYtI","6317457367495fa60d79d84e","6617fad957f7c6a12ea16e26","6622ce93b2e61b7d40ff1938","image grid","q","","","","","Phylogenetic_Distractor_Threat_target","800","ongrid","q","6","Phylogenetic","true","experimental"
"","null","html-keyboard-response","228","221118","0.0-13.0-2.5","mZcm8SKYtI","6317457367495fa60d79d84e","6617fad957f7c6a12ea16e26","6622ce93b2e61b7d40ff1938","
    <div id=""grid-container"">
        <!-- Grid items will be dynamically added here -->
    </div>    ","null","","","","","","","","","","","",""
"","null","html-keyboard-response","229","221823","0.0-13.0-0.6","mZcm8SKYtI","6317457367495fa60d79d84e","6617fad957f7c6a12ea16e26","6622ce93b2e61b7d40ff1938","fixation cross","null","","","","","","","","","","","",""
"","643","html-keyboard-response","230","222466","0.0-13.0-1.6","mZcm8SKYtI","6317457367495fa60d79d84e","6617fad957f7c6a12ea16e26","6622ce93b2e61b7d40ff1938","image grid","p","","","","","Phylogenetic_Distractor_Nonthreat_target","800","ongrid","p","3","Phylogenetic","true","experimental"
"","null","html-keyboard-response","231","222617","0.0-13.0-2.6","mZcm8SKYtI","6317457367495fa60d79d84e","6617fad957f7c6a12ea16e26","6622ce93b2e61b7d40ff1938","
    <div id=""grid-container"">
        <!-- Grid items will be dynamically added here -->
    </div>    ","null","","","","","","","","","","","",""
"","null","html-keyboard-response","232","223326","0.0-13.0-0.7","mZcm8SKYtI","6317457367495fa60d79d84e","6617fad957f7c6a12ea16e26","6622ce93b2e61b7d40ff1938","fixation cross","null","","","","","","","","","","","",""
"","633","html-keyboard-response","233","223959","0.0-13.0-1.7","mZcm8SKYtI","6317457367495fa60d79d84e","6617fad957f7c6a12ea16e26","6622ce93b2e61b7d40ff1938","image grid","q","","","","","Phylogenetic_Distractor_Threat_target","800","ongrid","q","1","Phylogenetic","true","experimental"
"","null","html-keyboard-response","234","224120","0.0-13.0-2.7","mZcm8SKYtI","6317457367495fa60d79d84e","6617fad957f7c6a12ea16e26","6622ce93b2e61b7d40ff1938","
    <div id=""grid-container"">
        <!-- Grid items will be dynamically added here -->
    </div>    ","null","","","","","","","","","","","",""
"","null","html-keyboard-response","235","224826","0.0-13.0-0.8","mZcm8SKYtI","6317457367495fa60d79d84e","6617fad957f7c6a12ea16e26","6622ce93b2e61b7d40ff1938","fixation cross","null","","","","","","","","","","","",""
"","537","html-keyboard-response","236","225363","0.0-13.0-1.8","mZcm8SKYtI","6317457367495fa60d79d84e","6617fad957f7c6a12ea16e26","6622ce93b2e61b7d40ff1938","image grid","p","","","","","Phylogenetic_Distractor_Threat_target","800","ongrid","q","3","Phylogenetic","false","experimental"
"","null","html-keyboard-response","237","225520","0.0-13.0-2.8","mZcm8SKYtI","6317457367495fa60d79d84e","6617fad957f7c6a12ea16e26","6622ce93b2e61b7d40ff1938","
    <div id=""grid-container"">
        <!-- Grid items will be dynamically added here -->
    </div>    ","null","","","","","","","","","","","",""
"","null","html-keyboard-response","238","226237","0.0-13.0-0.9","mZcm8SKYtI","6317457367495fa60d79d84e","6617fad957f7c6a12ea16e26","6622ce93b2e61b7d40ff1938","fixation cross","null","","","","","","","","","","","",""
"","707","html-keyboard-response","239","226945","0.0-13.0-1.9","mZcm8SKYtI","6317457367495fa60d79d84e","6617fad957f7c6a12ea16e26","6622ce93b2e61b7d40ff1938","image grid","p","","","","","Phylogenetic_Distractor_Nonthreat_target","800","ongrid","p","7","Phylogenetic","true","experimental"
"","null","html-keyboard-response","240","227101","0.0-13.0-2.9","mZcm8SKYtI","6317457367495fa60d79d84e","6617fad957f7c6a12ea16e26","6622ce93b2e61b7d40ff1938","
    <div id=""grid-container"">
        <!-- Grid items will be dynamically added here -->
    </div>    ","null","","","","","","","","","","","",""
"","null","html-keyboard-response","241","227819","0.0-13.0-0.10","mZcm8SKYtI","6317457367495fa60d79d84e","6617fad957f7c6a12ea16e26","6622ce93b2e61b7d40ff1938","fixation cross","null","","","","","","","","","","","",""
"","602","html-keyboard-response","242","228422","0.0-13.0-1.10","mZcm8SKYtI","6317457367495fa60d79d84e","6617fad957f7c6a12ea16e26","6622ce93b2e61b7d40ff1938","image grid","q","","","","","Phylogenetic_Distractor_Nonthreat_target","800","ongrid","p","6","Phylogenetic","false","experimental"
"","null","html-keyboard-response","243","228578","0.0-13.0-2.10","mZcm8SKYtI","6317457367495fa60d79d84e","6617fad957f7c6a12ea16e26","6622ce93b2e61b7d40ff1938","
    <div id=""grid-container"">
        <!-- Grid items will be dynamically added here -->
    </div>    ","null","","","","","","","","","","","",""
"","null","html-keyboard-response","244","229289","0.0-13.0-0.11","mZcm8SKYtI","6317457367495fa60d79d84e","6617fad957f7c6a12ea16e26","6622ce93b2e61b7d40ff1938","fixation cross","null","","","","","","","","","","","",""
"","495","html-keyboard-response","245","229784","0.0-13.0-1.11","mZcm8SKYtI","6317457367495fa60d79d84e","6617fad957f7c6a12ea16e26","6622ce93b2e61b7d40ff1938","image grid","q","","","","","Phylogenetic_Distractor_Threat_target","800","ongrid","q","1","Phylogenetic","true","experimental"
"","null","html-keyboard-response","246","229949","0.0-13.0-2.11","mZcm8SKYtI","6317457367495fa60d79d84e","6617fad957f7c6a12ea16e26","6622ce93b2e61b7d40ff1938","
    <div id=""grid-container"">
        <!-- Grid items will be dynamically added here -->
    </div>    ","null","","","","","","","","","","","",""
"","null","html-keyboard-response","247","230668","0.0-13.0-0.12","mZcm8SKYtI","6317457367495fa60d79d84e","6617fad957f7c6a12ea16e26","6622ce93b2e61b7d40ff1938","fixation cross","null","","","","","","","","","","","",""
"","596","html-keyboard-response","248","231265","0.0-13.0-1.12","mZcm8SKYtI","6317457367495fa60d79d84e","6617fad957f7c6a12ea16e26","6622ce93b2e61b7d40ff1938","image grid","p","","","","","Phylogenetic_Distractor_notarget","800","ongrid"," ","7","Phylogenetic","false","experimental"
"","null","html-keyboard-response","249","231431","0.0-13.0-2.12","mZcm8SKYtI","6317457367495fa60d79d84e","6617fad957f7c6a12ea16e26","6622ce93b2e61b7d40ff1938","
    <div id=""grid-container"">
        <!-- Grid items will be dynamically added here -->
    </div>    ","null","","","","","","","","","","","",""
"","null","html-keyboard-response","250","232143","0.0-13.0-0.13","mZcm8SKYtI","6317457367495fa60d79d84e","6617fad957f7c6a12ea16e26","6622ce93b2e61b7d40ff1938","fixation cross","null","","","","","","","","","","","",""
"","677","html-keyboard-response","251","232820","0.0-13.0-1.13","mZcm8SKYtI","6317457367495fa60d79d84e","6617fad957f7c6a12ea16e26","6622ce93b2e61b7d40ff1938","image grid","p","","","","","Phylogenetic_Distractor_Threat_target","800","ongrid","q","9","Phylogenetic","false","experimental"
"","null","html-keyboard-response","252","232980","0.0-13.0-2.13","mZcm8SKYtI","6317457367495fa60d79d84e","6617fad957f7c6a12ea16e26","6622ce93b2e61b7d40ff1938","
    <div id=""grid-container"">
        <!-- Grid items will be dynamically added here -->
    </div>    ","null","","","","","","","","","","","",""
"","null","html-keyboard-response","253","233699","0.0-13.0-0.14","mZcm8SKYtI","6317457367495fa60d79d84e","6617fad957f7c6a12ea16e26","6622ce93b2e61b7d40ff1938","fixation cross","null","","","","","","","","","","","",""
"","681","html-keyboard-response","254","234381","0.0-13.0-1.14","mZcm8SKYtI","6317457367495fa60d79d84e","6617fad957f7c6a12ea16e26","6622ce93b2e61b7d40ff1938","image grid","p","","","","","Phylogenetic_Distractor_Nonthreat_target","800","ongrid","p","9","Phylogenetic","true","experimental"
"","null","html-keyboard-response","255","234540","0.0-13.0-2.14","mZcm8SKYtI","6317457367495fa60d79d84e","6617fad957f7c6a12ea16e26","6622ce93b2e61b7d40ff1938","
    <div id=""grid-container"">
        <!-- Grid items will be dynamically added here -->
    </div>    ","null","","","","","","","","","","","",""
"","null","html-keyboard-response","256","235256","0.0-13.0-0.15","mZcm8SKYtI","6317457367495fa60d79d84e","6617fad957f7c6a12ea16e26","6622ce93b2e61b7d40ff1938","fixation cross","null","","","","","","","","","","","",""
"","604","html-keyboard-response","257","235861","0.0-13.0-1.15","mZcm8SKYtI","6317457367495fa60d79d84e","6617fad957f7c6a12ea16e26","6622ce93b2e61b7d40ff1938","image grid","q","","","","","Phylogenetic_Distractor_Threat_target","800","ongrid","q","5","Phylogenetic","true","experimental"
"","null","html-keyboard-response","258","236019","0.0-13.0-2.15","mZcm8SKYtI","6317457367495fa60d79d84e","6617fad957f7c6a12ea16e26","6622ce93b2e61b7d40ff1938","
    <div id=""grid-container"">
        <!-- Grid items will be dynamically added here -->
    </div>    ","null","","","","","","","","","","","",""
"","null","html-keyboard-response","259","236747","0.0-13.0-0.16","mZcm8SKYtI","6317457367495fa60d79d84e","6617fad957f7c6a12ea16e26","6622ce93b2e61b7d40ff1938","fixation cross","null","","","","","","","","","","","",""
"","null","html-keyboard-response","260","237559","0.0-13.0-1.16","mZcm8SKYtI","6317457367495fa60d79d84e","6617fad957f7c6a12ea16e26","6622ce93b2e61b7d40ff1938","
        <div id=""grid-container"">
        <!-- Grid items will be dynamically added here -->
    </div>    ","null","","","","","","","","","","","",""
"","1742","html-keyboard-response","261","238502","0.0-13.0-2.16","mZcm8SKYtI","6317457367495fa60d79d84e","6617fad957f7c6a12ea16e26","6622ce93b2e61b7d40ff1938","mask grid","p","","","","","Phylogenetic_Distractor_Nonthreat_target","800","onmask","p","8","Phylogenetic","true","experimental"
"","null","html-keyboard-response","262","239212","0.0-13.0-0.17","mZcm8SKYtI","6317457367495fa60d79d84e","6617fad957f7c6a12ea16e26","6622ce93b2e61b7d40ff1938","fixation cross","null","","","","","","","","","","","",""
"","688","html-keyboard-response","263","239900","0.0-13.0-1.17","mZcm8SKYtI","6317457367495fa60d79d84e","6617fad957f7c6a12ea16e26","6622ce93b2e61b7d40ff1938","image grid","p","","","","","Phylogenetic_Distractor_Threat_target","800","ongrid","q","7","Phylogenetic","false","experimental"
"","null","html-keyboard-response","264","240061","0.0-13.0-2.17","mZcm8SKYtI","6317457367495fa60d79d84e","6617fad957f7c6a12ea16e26","6622ce93b2e61b7d40ff1938","
    <div id=""grid-container"">
        <!-- Grid items will be dynamically added here -->
    </div>    ","null","","","","","","","","","","","",""
"","null","html-keyboard-response","265","240775","0.0-13.0-0.18","mZcm8SKYtI","6317457367495fa60d79d84e","6617fad957f7c6a12ea16e26","6622ce93b2e61b7d40ff1938","fixation cross","null","","","","","","","","","","","",""
"","594","html-keyboard-response","266","241369","0.0-13.0-1.18","mZcm8SKYtI","6317457367495fa60d79d84e","6617fad957f7c6a12ea16e26","6622ce93b2e61b7d40ff1938","image grid","p","","","","","Phylogenetic_Distractor_Nonthreat_target","800","ongrid","p","6","Phylogenetic","true","experimental"
"","null","html-keyboard-response","267","241529","0.0-13.0-2.18","mZcm8SKYtI","6317457367495fa60d79d84e","6617fad957f7c6a12ea16e26","6622ce93b2e61b7d40ff1938","
    <div id=""grid-container"">
        <!-- Grid items will be dynamically added here -->
    </div>    ","null","","","","","","","","","","","",""
"","null","html-keyboard-response","268","242246","0.0-13.0-0.19","mZcm8SKYtI","6317457367495fa60d79d84e","6617fad957f7c6a12ea16e26","6622ce93b2e61b7d40ff1938","fixation cross","null","","","","","","","","","","","",""
"","576","html-keyboard-response","269","242822","0.0-13.0-1.19","mZcm8SKYtI","6317457367495fa60d79d84e","6617fad957f7c6a12ea16e26","6622ce93b2e61b7d40ff1938","image grid","p","","","","","Phylogenetic_Distractor_Nonthreat_target","800","ongrid","p","6","Phylogenetic","true","experimental"
"","null","html-keyboard-response","270","242983","0.0-13.0-2.19","mZcm8SKYtI","6317457367495fa60d79d84e","6617fad957f7c6a12ea16e26","6622ce93b2e61b7d40ff1938","
    <div id=""grid-container"">
        <!-- Grid items will be dynamically added here -->
    </div>    ","null","","","","","","","","","","","",""
"","null","html-keyboard-response","271","243698","0.0-13.0-0.20","mZcm8SKYtI","6317457367495fa60d79d84e","6617fad957f7c6a12ea16e26","6622ce93b2e61b7d40ff1938","fixation cross","null","","","","","","","","","","","",""
"","null","html-keyboard-response","272","244507","0.0-13.0-1.20","mZcm8SKYtI","6317457367495fa60d79d84e","6617fad957f7c6a12ea16e26","6622ce93b2e61b7d40ff1938","
        <div id=""grid-container"">
        <!-- Grid items will be dynamically added here -->
    </div>    ","null","","","","","","","","","","","",""
"","835","html-keyboard-response","273","244542","0.0-13.0-2.20","mZcm8SKYtI","6317457367495fa60d79d84e","6617fad957f7c6a12ea16e26","6622ce93b2e61b7d40ff1938","mask grid","q","","","","","Phylogenetic_Distractor_Threat_target","800","onmask","q","6","Phylogenetic","true","experimental"
"","null","html-keyboard-response","274","245259","0.0-13.0-0.21","mZcm8SKYtI","6317457367495fa60d79d84e","6617fad957f7c6a12ea16e26","6622ce93b2e61b7d40ff1938","fixation cross","null","","","","","","","","","","","",""
"","807","html-keyboard-response","275","246065","0.0-13.0-1.21","mZcm8SKYtI","6317457367495fa60d79d84e","6617fad957f7c6a12ea16e26","6622ce93b2e61b7d40ff1938","image grid","p","","","","","Phylogenetic_Distractor_Nonthreat_target","800","ongrid","p","1","Phylogenetic","true","experimental"
"","null","html-keyboard-response","276","246229","0.0-13.0-2.21","mZcm8SKYtI","6317457367495fa60d79d84e","6617fad957f7c6a12ea16e26","6622ce93b2e61b7d40ff1938","
    <div id=""grid-container"">
        <!-- Grid items will be dynamically added here -->
    </div>    ","null","","","","","","","","","","","",""
"","null","html-keyboard-response","277","246944","0.0-13.0-0.22","mZcm8SKYtI","6317457367495fa60d79d84e","6617fad957f7c6a12ea16e26","6622ce93b2e61b7d40ff1938","fixation cross","null","","","","","","","","","","","",""
"","647","html-keyboard-response","278","247591","0.0-13.0-1.22","mZcm8SKYtI","6317457367495fa60d79d84e","6617fad957f7c6a12ea16e26","6622ce93b2e61b7d40ff1938","image grid","p","","","","","Phylogenetic_Distractor_Threat_target","800","ongrid","q","4","Phylogenetic","false","experimental"
"","null","html-keyboard-response","279","247745","0.0-13.0-2.22","mZcm8SKYtI","6317457367495fa60d79d84e","6617fad957f7c6a12ea16e26","6622ce93b2e61b7d40ff1938","
    <div id=""grid-container"">
        <!-- Grid items will be dynamically added here -->
    </div>    ","null","","","","","","","","","","","",""
"","null","html-keyboard-response","280","248453","0.0-13.0-0.23","mZcm8SKYtI","6317457367495fa60d79d84e","6617fad957f7c6a12ea16e26","6622ce93b2e61b7d40ff1938","fixation cross","null","","","","","","","","","","","",""
"","673","html-keyboard-response","281","249127","0.0-13.0-1.23","mZcm8SKYtI","6317457367495fa60d79d84e","6617fad957f7c6a12ea16e26","6622ce93b2e61b7d40ff1938","image grid","q","","","","","Phylogenetic_Distractor_Threat_target","800","ongrid","q","7","Phylogenetic","true","experimental"
"","null","html-keyboard-response","282","249288","0.0-13.0-2.23","mZcm8SKYtI","6317457367495fa60d79d84e","6617fad957f7c6a12ea16e26","6622ce93b2e61b7d40ff1938","
    <div id=""grid-container"">
        <!-- Grid items will be dynamically added here -->
    </div>    ","null","","","","","","","","","","","",""
"","null","html-keyboard-response","283","250003","0.0-13.0-0.24","mZcm8SKYtI","6317457367495fa60d79d84e","6617fad957f7c6a12ea16e26","6622ce93b2e61b7d40ff1938","fixation cross","null","","","","","","","","","","","",""
"","747","html-keyboard-response","284","250750","0.0-13.0-1.24","mZcm8SKYtI","6317457367495fa60d79d84e","6617fad957f7c6a12ea16e26","6622ce93b2e61b7d40ff1938","image grid","p","","","","","Phylogenetic_Distractor_Nonthreat_target","800","ongrid","p","5","Phylogenetic","true","experimental"
"","null","html-keyboard-response","285","250913","0.0-13.0-2.24","mZcm8SKYtI","6317457367495fa60d79d84e","6617fad957f7c6a12ea16e26","6622ce93b2e61b7d40ff1938","
    <div id=""grid-container"">
        <!-- Grid items will be dynamically added here -->
    </div>    ","null","","","","","","","","","","","",""
"","null","html-keyboard-response","286","251618","0.0-13.0-0.25","mZcm8SKYtI","6317457367495fa60d79d84e","6617fad957f7c6a12ea16e26","6622ce93b2e61b7d40ff1938","fixation cross","null","","","","","","","","","","","",""
"","557","html-keyboard-response","287","252175","0.0-13.0-1.25","mZcm8SKYtI","6317457367495fa60d79d84e","6617fad957f7c6a12ea16e26","6622ce93b2e61b7d40ff1938","image grid","q","","","","","Phylogenetic_Distractor_Threat_target","800","ongrid","q","5","Phylogenetic","true","experimental"
"","null","html-keyboard-response","288","252330","0.0-13.0-2.25","mZcm8SKYtI","6317457367495fa60d79d84e","6617fad957f7c6a12ea16e26","6622ce93b2e61b7d40ff1938","
    <div id=""grid-container"">
        <!-- Grid items will be dynamically added here -->
    </div>    ","null","","","","","","","","","","","",""
"","null","html-keyboard-response","289","253042","0.0-13.0-0.26","mZcm8SKYtI","6317457367495fa60d79d84e","6617fad957f7c6a12ea16e26","6622ce93b2e61b7d40ff1938","fixation cross","null","","","","","","","","","","","",""
"","502","html-keyboard-response","290","253543","0.0-13.0-1.26","mZcm8SKYtI","6317457367495fa60d79d84e","6617fad957f7c6a12ea16e26","6622ce93b2e61b7d40ff1938","image grid","p","","","","","Phylogenetic_Distractor_Nonthreat_target","800","ongrid","p","8","Phylogenetic","true","experimental"
"","null","html-keyboard-response","291","253706","0.0-13.0-2.26","mZcm8SKYtI","6317457367495fa60d79d84e","6617fad957f7c6a12ea16e26","6622ce93b2e61b7d40ff1938","
    <div id=""grid-container"">
        <!-- Grid items will be dynamically added here -->
    </div>    ","null","","","","","","","","","","","",""
"","null","html-keyboard-response","292","254419","0.0-13.0-0.27","mZcm8SKYtI","6317457367495fa60d79d84e","6617fad957f7c6a12ea16e26","6622ce93b2e61b7d40ff1938","fixation cross","null","","","","","","","","","","","",""
"","null","html-keyboard-response","293","255221","0.0-13.0-1.27","mZcm8SKYtI","6317457367495fa60d79d84e","6617fad957f7c6a12ea16e26","6622ce93b2e61b7d40ff1938","
        <div id=""grid-container"">
        <!-- Grid items will be dynamically added here -->
    </div>    ","null","","","","","","","","","","","",""
"","846","html-keyboard-response","294","255267","0.0-13.0-2.27","mZcm8SKYtI","6317457367495fa60d79d84e","6617fad957f7c6a12ea16e26","6622ce93b2e61b7d40ff1938","mask grid","p","","","","","Phylogenetic_Distractor_notarget","800","onmask"," ","4","Phylogenetic","false","experimental"
"","null","html-keyboard-response","295","255976","0.0-13.0-0.28","mZcm8SKYtI","6317457367495fa60d79d84e","6617fad957f7c6a12ea16e26","6622ce93b2e61b7d40ff1938","fixation cross","null","","","","","","","","","","","",""
"","623","html-keyboard-response","296","256599","0.0-13.0-1.28","mZcm8SKYtI","6317457367495fa60d79d84e","6617fad957f7c6a12ea16e26","6622ce93b2e61b7d40ff1938","image grid","q","","","","","Phylogenetic_Distractor_Threat_target","800","ongrid","q","1","Phylogenetic","true","experimental"
"","null","html-keyboard-response","297","256764","0.0-13.0-2.28","mZcm8SKYtI","6317457367495fa60d79d84e","6617fad957f7c6a12ea16e26","6622ce93b2e61b7d40ff1938","
    <div id=""grid-container"">
        <!-- Grid items will be dynamically added here -->
    </div>    ","null","","","","","","","","","","","",""
"","null","html-keyboard-response","298","257469","0.0-13.0-0.29","mZcm8SKYtI","6317457367495fa60d79d84e","6617fad957f7c6a12ea16e26","6622ce93b2e61b7d40ff1938","fixation cross","null","","","","","","","","","","","",""
"","657","html-keyboard-response","299","258126","0.0-13.0-1.29","mZcm8SKYtI","6317457367495fa60d79d84e","6617fad957f7c6a12ea16e26","6622ce93b2e61b7d40ff1938","image grid","q","","","","","Phylogenetic_Distractor_Threat_target","800","ongrid","q","7","Phylogenetic","true","experimental"
"","null","html-keyboard-response","300","258281","0.0-13.0-2.29","mZcm8SKYtI","6317457367495fa60d79d84e","6617fad957f7c6a12ea16e26","6622ce93b2e61b7d40ff1938","
    <div id=""grid-container"">
        <!-- Grid items will be dynamically added here -->
    </div>    ","null","","","","","","","","","","","",""
"","null","html-keyboard-response","301","259000","0.0-13.0-0.30","mZcm8SKYtI","6317457367495fa60d79d84e","6617fad957f7c6a12ea16e26","6622ce93b2e61b7d40ff1938","fixation cross","null","","","","","","","","","","","",""
"","null","html-keyboard-response","302","259809","0.0-13.0-1.30","mZcm8SKYtI","6317457367495fa60d79d84e","6617fad957f7c6a12ea16e26","6622ce93b2e61b7d40ff1938","
        <div id=""grid-container"">
        <!-- Grid items will be dynamically added here -->
    </div>    ","null","","","","","","","","","","","",""
"","848","html-keyboard-response","303","259857","0.0-13.0-2.30","mZcm8SKYtI","6317457367495fa60d79d84e","6617fad957f7c6a12ea16e26","6622ce93b2e61b7d40ff1938","mask grid","p","","","","","Phylogenetic_Distractor_Nonthreat_target","800","onmask","p","3","Phylogenetic","true","experimental"
"","null","html-keyboard-response","304","260565","0.0-13.0-0.31","mZcm8SKYtI","6317457367495fa60d79d84e","6617fad957f7c6a12ea16e26","6622ce93b2e61b7d40ff1938","fixation cross","null","","","","","","","","","","","",""
"","587","html-keyboard-response","305","261152","0.0-13.0-1.31","mZcm8SKYtI","6317457367495fa60d79d84e","6617fad957f7c6a12ea16e26","6622ce93b2e61b7d40ff1938","image grid","q","","","","","Phylogenetic_Distractor_Threat_target","800","ongrid","q","5","Phylogenetic","true","experimental"
"","null","html-keyboard-response","306","261317","0.0-13.0-2.31","mZcm8SKYtI","6317457367495fa60d79d84e","6617fad957f7c6a12ea16e26","6622ce93b2e61b7d40ff1938","
    <div id=""grid-container"">
        <!-- Grid items will be dynamically added here -->
    </div>    ","null","","","","","","","","","","","",""
"","null","html-keyboard-response","307","262038","0.0-13.0-0.32","mZcm8SKYtI","6317457367495fa60d79d84e","6617fad957f7c6a12ea16e26","6622ce93b2e61b7d40ff1938","fixation cross","null","","","","","","","","","","","",""
"","692","html-keyboard-response","308","262730","0.0-13.0-1.32","mZcm8SKYtI","6317457367495fa60d79d84e","6617fad957f7c6a12ea16e26","6622ce93b2e61b7d40ff1938","image grid","q","","","","","Phylogenetic_Distractor_Threat_target","800","ongrid","q","4","Phylogenetic","true","experimental"
"","null","html-keyboard-response","309","262891","0.0-13.0-2.32","mZcm8SKYtI","6317457367495fa60d79d84e","6617fad957f7c6a12ea16e26","6622ce93b2e61b7d40ff1938","
    <div id=""grid-container"">
        <!-- Grid items will be dynamically added here -->
    </div>    ","null","","","","","","","","","","","",""
"","null","html-keyboard-response","310","263593","0.0-13.0-0.33","mZcm8SKYtI","6317457367495fa60d79d84e","6617fad957f7c6a12ea16e26","6622ce93b2e61b7d40ff1938","fixation cross","null","","","","","","","","","","","",""
"","null","html-keyboard-response","311","264397","0.0-13.0-1.33","mZcm8SKYtI","6317457367495fa60d79d84e","6617fad957f7c6a12ea16e26","6622ce93b2e61b7d40ff1938","
        <div id=""grid-container"">
        <!-- Grid items will be dynamically added here -->
    </div>    ","null","","","","","","","","","","","",""
"","847","html-keyboard-response","312","264444","0.0-13.0-2.33","mZcm8SKYtI","6317457367495fa60d79d84e","6617fad957f7c6a12ea16e26","6622ce93b2e61b7d40ff1938","mask grid","p","","","","","Phylogenetic_Distractor_notarget","800","onmask"," ","5","Phylogenetic","false","experimental"
"","null","html-keyboard-response","313","265159","0.0-13.0-0.34","mZcm8SKYtI","6317457367495fa60d79d84e","6617fad957f7c6a12ea16e26","6622ce93b2e61b7d40ff1938","fixation cross","null","","","","","","","","","","","",""
"","719","html-keyboard-response","314","265878","0.0-13.0-1.34","mZcm8SKYtI","6317457367495fa60d79d84e","6617fad957f7c6a12ea16e26","6622ce93b2e61b7d40ff1938","image grid","q","","","","","Phylogenetic_Distractor_Threat_target","800","ongrid","q","7","Phylogenetic","true","experimental"
"","null","html-keyboard-response","315","266036","0.0-13.0-2.34","mZcm8SKYtI","6317457367495fa60d79d84e","6617fad957f7c6a12ea16e26","6622ce93b2e61b7d40ff1938","
    <div id=""grid-container"">
        <!-- Grid items will be dynamically added here -->
    </div>    ","null","","","","","","","","","","","",""
"","null","html-keyboard-response","316","266752","0.0-13.0-0.35","mZcm8SKYtI","6317457367495fa60d79d84e","6617fad957f7c6a12ea16e26","6622ce93b2e61b7d40ff1938","fixation cross","null","","","","","","","","","","","",""
"","null","html-keyboard-response","317","267570","0.0-13.0-1.35","mZcm8SKYtI","6317457367495fa60d79d84e","6617fad957f7c6a12ea16e26","6622ce93b2e61b7d40ff1938","
        <div id=""grid-container"">
        <!-- Grid items will be dynamically added here -->
    </div>    ","null","","","","","","","","","","","",""
"","877","html-keyboard-response","318","267647","0.0-13.0-2.35","mZcm8SKYtI","6317457367495fa60d79d84e","6617fad957f7c6a12ea16e26","6622ce93b2e61b7d40ff1938","mask grid","q","","","","","Phylogenetic_Distractor_Threat_target","800","onmask","q","3","Phylogenetic","true","experimental"
"","null","html-keyboard-response","319","268363","0.0-13.0-0.36","mZcm8SKYtI","6317457367495fa60d79d84e","6617fad957f7c6a12ea16e26","6622ce93b2e61b7d40ff1938","fixation cross","null","","","","","","","","","","","",""
"","null","html-keyboard-response","320","269180","0.0-13.0-1.36","mZcm8SKYtI","6317457367495fa60d79d84e","6617fad957f7c6a12ea16e26","6622ce93b2e61b7d40ff1938","
        <div id=""grid-container"">
        <!-- Grid items will be dynamically added here -->
    </div>    ","null","","","","","","","","","","","",""
"","874","html-keyboard-response","321","269254","0.0-13.0-2.36","mZcm8SKYtI","6317457367495fa60d79d84e","6617fad957f7c6a12ea16e26","6622ce93b2e61b7d40ff1938","mask grid","p","","","","","Phylogenetic_Distractor_notarget","800","onmask"," ","2","Phylogenetic","false","experimental"
"","null","html-keyboard-response","322","269974","0.0-13.0-0.37","mZcm8SKYtI","6317457367495fa60d79d84e","6617fad957f7c6a12ea16e26","6622ce93b2e61b7d40ff1938","fixation cross","null","","","","","","","","","","","",""
"","615","html-keyboard-response","323","270589","0.0-13.0-1.37","mZcm8SKYtI","6317457367495fa60d79d84e","6617fad957f7c6a12ea16e26","6622ce93b2e61b7d40ff1938","image grid","p","","","","","Phylogenetic_Distractor_Nonthreat_target","800","ongrid","p","5","Phylogenetic","true","experimental"
"","null","html-keyboard-response","324","270745","0.0-13.0-2.37","mZcm8SKYtI","6317457367495fa60d79d84e","6617fad957f7c6a12ea16e26","6622ce93b2e61b7d40ff1938","
    <div id=""grid-container"">
        <!-- Grid items will be dynamically added here -->
    </div>    ","null","","","","","","","","","","","",""
"","null","html-keyboard-response","325","271464","0.0-13.0-0.38","mZcm8SKYtI","6317457367495fa60d79d84e","6617fad957f7c6a12ea16e26","6622ce93b2e61b7d40ff1938","fixation cross","null","","","","","","","","","","","",""
"","561","html-keyboard-response","326","272026","0.0-13.0-1.38","mZcm8SKYtI","6317457367495fa60d79d84e","6617fad957f7c6a12ea16e26","6622ce93b2e61b7d40ff1938","image grid","p","","","","","Phylogenetic_Distractor_Nonthreat_target","800","ongrid","p","4","Phylogenetic","true","experimental"
"","null","html-keyboard-response","327","272184","0.0-13.0-2.38","mZcm8SKYtI","6317457367495fa60d79d84e","6617fad957f7c6a12ea16e26","6622ce93b2e61b7d40ff1938","
    <div id=""grid-container"">
        <!-- Grid items will be dynamically added here -->
    </div>    ","null","","","","","","","","","","","",""
"","null","html-keyboard-response","328","272900","0.0-13.0-0.39","mZcm8SKYtI","6317457367495fa60d79d84e","6617fad957f7c6a12ea16e26","6622ce93b2e61b7d40ff1938","fixation cross","null","","","","","","","","","","","",""
"","706","html-keyboard-response","329","273607","0.0-13.0-1.39","mZcm8SKYtI","6317457367495fa60d79d84e","6617fad957f7c6a12ea16e26","6622ce93b2e61b7d40ff1938","image grid","p","","","","","Phylogenetic_Distractor_Threat_target","800","ongrid","q","8","Phylogenetic","false","experimental"
"","null","html-keyboard-response","330","273767","0.0-13.0-2.39","mZcm8SKYtI","6317457367495fa60d79d84e","6617fad957f7c6a12ea16e26","6622ce93b2e61b7d40ff1938","
    <div id=""grid-container"">
        <!-- Grid items will be dynamically added here -->
    </div>    ","null","","","","","","","","","","","",""
"","1985","html-keyboard-response","331","275957","0.0-14.0","mZcm8SKYtI","6317457367495fa60d79d84e","6617fad957f7c6a12ea16e26","6622ce93b2e61b7d40ff1938","break screen"," ","","","","","","","","","","","",""
"","null","html-keyboard-response","332","278469","0.0-15.0-0.0","mZcm8SKYtI","6317457367495fa60d79d84e","6617fad957f7c6a12ea16e26","6622ce93b2e61b7d40ff1938","fixation cross","null","","","","","","","","","","","",""
"","611","html-keyboard-response","333","279080","0.0-15.0-1.0","mZcm8SKYtI","6317457367495fa60d79d84e","6617fad957f7c6a12ea16e26","6622ce93b2e61b7d40ff1938","image grid","p","","","","","Ontogenetic_Distractor_notarget","2500","ongrid"," ","5","Ontogenetic","false","experimental"
"","null","html-keyboard-response","334","279245","0.0-15.0-2.0","mZcm8SKYtI","6317457367495fa60d79d84e","6617fad957f7c6a12ea16e26","6622ce93b2e61b7d40ff1938","
    <div id=""grid-container"">
        <!-- Grid items will be dynamically added here -->
    </div>    ","null","","","","","","","","","","","",""
"","null","html-keyboard-response","335","279954","0.0-15.0-0.1","mZcm8SKYtI","6317457367495fa60d79d84e","6617fad957f7c6a12ea16e26","6622ce93b2e61b7d40ff1938","fixation cross","null","","","","","","","","","","","",""
"","845","html-keyboard-response","336","280799","0.0-15.0-1.1","mZcm8SKYtI","6317457367495fa60d79d84e","6617fad957f7c6a12ea16e26","6622ce93b2e61b7d40ff1938","image grid","p","","","","","Ontogenetic_Distractor_Nonthreat_target","2500","ongrid","p","6","Ontogenetic","true","experimental"
"","null","html-keyboard-response","337","280962","0.0-15.0-2.1","mZcm8SKYtI","6317457367495fa60d79d84e","6617fad957f7c6a12ea16e26","6622ce93b2e61b7d40ff1938","
    <div id=""grid-container"">
        <!-- Grid items will be dynamically added here -->
    </div>    ","null","","","","","","","","","","","",""
"","null","html-keyboard-response","338","281672","0.0-15.0-0.2","mZcm8SKYtI","6317457367495fa60d79d84e","6617fad957f7c6a12ea16e26","6622ce93b2e61b7d40ff1938","fixation cross","null","","","","","","","","","","","",""
"","781","html-keyboard-response","339","282454","0.0-15.0-1.2","mZcm8SKYtI","6317457367495fa60d79d84e","6617fad957f7c6a12ea16e26","6622ce93b2e61b7d40ff1938","image grid","p","","","","","Ontogenetic_Distractor_Nonthreat_target","2500","ongrid","p","4","Ontogenetic","true","experimental"
"","null","html-keyboard-response","340","282619","0.0-15.0-2.2","mZcm8SKYtI","6317457367495fa60d79d84e","6617fad957f7c6a12ea16e26","6622ce93b2e61b7d40ff1938","
    <div id=""grid-container"">
        <!-- Grid items will be dynamically added here -->
    </div>    ","null","","","","","","","","","","","",""
"","null","html-keyboard-response","341","283322","0.0-15.0-0.3","mZcm8SKYtI","6317457367495fa60d79d84e","6617fad957f7c6a12ea16e26","6622ce93b2e61b7d40ff1938","fixation cross","null","","","","","","","","","","","",""
"","699","html-keyboard-response","342","284021","0.0-15.0-1.3","mZcm8SKYtI","6317457367495fa60d79d84e","6617fad957f7c6a12ea16e26","6622ce93b2e61b7d40ff1938","image grid","q","","","","","Ontogenetic_Distractor_Threat_target","2500","ongrid","q","7","Ontogenetic","true","experimental"
"","null","html-keyboard-response","343","284179","0.0-15.0-2.3","mZcm8SKYtI","6317457367495fa60d79d84e","6617fad957f7c6a12ea16e26","6622ce93b2e61b7d40ff1938","
    <div id=""grid-container"">
        <!-- Grid items will be dynamically added here -->
    </div>    ","null","","","","","","","","","","","",""
"","null","html-keyboard-response","344","284890","0.0-15.0-0.4","mZcm8SKYtI","6317457367495fa60d79d84e","6617fad957f7c6a12ea16e26","6622ce93b2e61b7d40ff1938","fixation cross","null","","","","","","","","","","","",""
"","705","html-keyboard-response","345","285595","0.0-15.0-1.4","mZcm8SKYtI","6317457367495fa60d79d84e","6617fad957f7c6a12ea16e26","6622ce93b2e61b7d40ff1938","image grid","q","","","","","Ontogenetic_Distractor_Threat_target","2500","ongrid","q","3","Ontogenetic","true","experimental"
"","null","html-keyboard-response","346","285748","0.0-15.0-2.4","mZcm8SKYtI","6317457367495fa60d79d84e","6617fad957f7c6a12ea16e26","6622ce93b2e61b7d40ff1938","
    <div id=""grid-container"">
        <!-- Grid items will be dynamically added here -->
    </div>    ","null","","","","","","","","","","","",""
"","null","html-keyboard-response","347","286456","0.0-15.0-0.5","mZcm8SKYtI","6317457367495fa60d79d84e","6617fad957f7c6a12ea16e26","6622ce93b2e61b7d40ff1938","fixation cross","null","","","","","","","","","","","",""
"","787","html-keyboard-response","348","287244","0.0-15.0-1.5","mZcm8SKYtI","6317457367495fa60d79d84e","6617fad957f7c6a12ea16e26","6622ce93b2e61b7d40ff1938","image grid","q","","","","","Ontogenetic_Distractor_Threat_target","2500","ongrid","q","1","Ontogenetic","true","experimental"
"","null","html-keyboard-response","349","287400","0.0-15.0-2.5","mZcm8SKYtI","6317457367495fa60d79d84e","6617fad957f7c6a12ea16e26","6622ce93b2e61b7d40ff1938","
    <div id=""grid-container"">
        <!-- Grid items will be dynamically added here -->
    </div>    ","null","","","","","","","","","","","",""
"","null","html-keyboard-response","350","288107","0.0-15.0-0.6","mZcm8SKYtI","6317457367495fa60d79d84e","6617fad957f7c6a12ea16e26","6622ce93b2e61b7d40ff1938","fixation cross","null","","","","","","","","","","","",""
"","765","html-keyboard-response","351","288872","0.0-15.0-1.6","mZcm8SKYtI","6317457367495fa60d79d84e","6617fad957f7c6a12ea16e26","6622ce93b2e61b7d40ff1938","image grid","q","","","","","Ontogenetic_Distractor_Threat_target","2500","ongrid","q","9","Ontogenetic","true","experimental"
"","null","html-keyboard-response","352","289032","0.0-15.0-2.6","mZcm8SKYtI","6317457367495fa60d79d84e","6617fad957f7c6a12ea16e26","6622ce93b2e61b7d40ff1938","
    <div id=""grid-container"">
        <!-- Grid items will be dynamically added here -->
    </div>    ","null","","","","","","","","","","","",""
"","null","html-keyboard-response","353","289749","0.0-15.0-0.7","mZcm8SKYtI","6317457367495fa60d79d84e","6617fad957f7c6a12ea16e26","6622ce93b2e61b7d40ff1938","fixation cross","null","","","","","","","","","","","",""
"","693","html-keyboard-response","354","290443","0.0-15.0-1.7","mZcm8SKYtI","6317457367495fa60d79d84e","6617fad957f7c6a12ea16e26","6622ce93b2e61b7d40ff1938","image grid","q","","","","","Ontogenetic_Distractor_Threat_target","2500","ongrid","q","1","Ontogenetic","true","experimental"
"","null","html-keyboard-response","355","290607","0.0-15.0-2.7","mZcm8SKYtI","6317457367495fa60d79d84e","6617fad957f7c6a12ea16e26","6622ce93b2e61b7d40ff1938","
    <div id=""grid-container"">
        <!-- Grid items will be dynamically added here -->
    </div>    ","null","","","","","","","","","","","",""
"","null","html-keyboard-response","356","291311","0.0-15.0-0.8","mZcm8SKYtI","6317457367495fa60d79d84e","6617fad957f7c6a12ea16e26","6622ce93b2e61b7d40ff1938","fixation cross","null","","","","","","","","","","","",""
"","649","html-keyboard-response","357","291961","0.0-15.0-1.8","mZcm8SKYtI","6317457367495fa60d79d84e","6617fad957f7c6a12ea16e26","6622ce93b2e61b7d40ff1938","image grid","q","","","","","Ontogenetic_Distractor_Threat_target","2500","ongrid","q","6","Ontogenetic","true","experimental"
"","null","html-keyboard-response","358","292122","0.0-15.0-2.8","mZcm8SKYtI","6317457367495fa60d79d84e","6617fad957f7c6a12ea16e26","6622ce93b2e61b7d40ff1938","
    <div id=""grid-container"">
        <!-- Grid items will be dynamically added here -->
    </div>    ","null","","","","","","","","","","","",""
"","null","html-keyboard-response","359","292841","0.0-15.0-0.9","mZcm8SKYtI","6317457367495fa60d79d84e","6617fad957f7c6a12ea16e26","6622ce93b2e61b7d40ff1938","fixation cross","null","","","","","","","","","","","",""
"","778","html-keyboard-response","360","293620","0.0-15.0-1.9","mZcm8SKYtI","6317457367495fa60d79d84e","6617fad957f7c6a12ea16e26","6622ce93b2e61b7d40ff1938","image grid","p","","","","","Ontogenetic_Distractor_Nonthreat_target","2500","ongrid","p","4","Ontogenetic","true","experimental"
"","null","html-keyboard-response","361","293775","0.0-15.0-2.9","mZcm8SKYtI","6317457367495fa60d79d84e","6617fad957f7c6a12ea16e26","6622ce93b2e61b7d40ff1938","
    <div id=""grid-container"">
        <!-- Grid items will be dynamically added here -->
    </div>    ","null","","","","","","","","","","","",""
"","null","html-keyboard-response","362","294495","0.0-15.0-0.10","mZcm8SKYtI","6317457367495fa60d79d84e","6617fad957f7c6a12ea16e26","6622ce93b2e61b7d40ff1938","fixation cross","null","","","","","","","","","","","",""
"","597","html-keyboard-response","363","295093","0.0-15.0-1.10","mZcm8SKYtI","6317457367495fa60d79d84e","6617fad957f7c6a12ea16e26","6622ce93b2e61b7d40ff1938","image grid","q","","","","","Ontogenetic_Distractor_Threat_target","2500","ongrid","q","7","Ontogenetic","true","experimental"
"","null","html-keyboard-response","364","295249","0.0-15.0-2.10","mZcm8SKYtI","6317457367495fa60d79d84e","6617fad957f7c6a12ea16e26","6622ce93b2e61b7d40ff1938","
    <div id=""grid-container"">
        <!-- Grid items will be dynamically added here -->
    </div>    ","null","","","","","","","","","","","",""
"","null","html-keyboard-response","365","295963","0.0-15.0-0.11","mZcm8SKYtI","6317457367495fa60d79d84e","6617fad957f7c6a12ea16e26","6622ce93b2e61b7d40ff1938","fixation cross","null","","","","","","","","","","","",""
"","668","html-keyboard-response","366","296632","0.0-15.0-1.11","mZcm8SKYtI","6317457367495fa60d79d84e","6617fad957f7c6a12ea16e26","6622ce93b2e61b7d40ff1938","image grid","p","","","","","Ontogenetic_Distractor_Nonthreat_target","2500","ongrid","p","7","Ontogenetic","true","experimental"
"","null","html-keyboard-response","367","296797","0.0-15.0-2.11","mZcm8SKYtI","6317457367495fa60d79d84e","6617fad957f7c6a12ea16e26","6622ce93b2e61b7d40ff1938","
    <div id=""grid-container"">
        <!-- Grid items will be dynamically added here -->
    </div>    ","null","","","","","","","","","","","",""
"","null","html-keyboard-response","368","297510","0.0-15.0-0.12","mZcm8SKYtI","6317457367495fa60d79d84e","6617fad957f7c6a12ea16e26","6622ce93b2e61b7d40ff1938","fixation cross","null","","","","","","","","","","","",""
"","579","html-keyboard-response","369","298090","0.0-15.0-1.12","mZcm8SKYtI","6317457367495fa60d79d84e","6617fad957f7c6a12ea16e26","6622ce93b2e61b7d40ff1938","image grid","q","","","","","Ontogenetic_Distractor_Threat_target","2500","ongrid","q","4","Ontogenetic","true","experimental"
"","null","html-keyboard-response","370","298247","0.0-15.0-2.12","mZcm8SKYtI","6317457367495fa60d79d84e","6617fad957f7c6a12ea16e26","6622ce93b2e61b7d40ff1938","
    <div id=""grid-container"">
