"success","rt","trial_type","trial_index","time_elapsed","internal_node_id","unique_identifier","subject_id","study_id","session_id","stimulus","response","timeout","failed_images","failed_audio","failed_video","task","respondedwhen","time_manipulation","correctresponse","targetimagelocation","blocktype","correct","roundtype"
"true","3208","fullscreen","0","4218","0.0-0.0","4k6s15Q25O","5d1ea7e579b687001af802c6","6617fad957f7c6a12ea16e26","6622ce27765850925d514890","","","","","","","","","","","","","",""
"","13205","html-keyboard-response","1","17426","0.0-1.0","4k6s15Q25O","5d1ea7e579b687001af802c6","6617fad957f7c6a12ea16e26","6622ce27765850925d514890","instruction screen 0","enter","","","","","","","","","","","",""
"true","","preload","2","30289","0.0-2.0","4k6s15Q25O","5d1ea7e579b687001af802c6","6617fad957f7c6a12ea16e26","6622ce27765850925d514890","","","false","[]","[]","[]","","","","","","","",""
"","11814","html-keyboard-response","3","42105","0.0-3.0","4k6s15Q25O","5d1ea7e579b687001af802c6","6617fad957f7c6a12ea16e26","6622ce27765850925d514890","instruction screen 1","enter","","","","","","","","","","","",""
"","10882","html-keyboard-response","4","52989","0.0-4.0","4k6s15Q25O","5d1ea7e579b687001af802c6","6617fad957f7c6a12ea16e26","6622ce27765850925d514890","instruction screen 2","q","","","","","","","","","","","",""
"","10144","html-keyboard-response","5","63126","0.0-5.0","4k6s15Q25O","5d1ea7e579b687001af802c6","6617fad957f7c6a12ea16e26","6622ce27765850925d514890","instruction screen 3","p","","","","","","","","","","","",""
"","5142","html-keyboard-response","6","68297","0.0-6.0","4k6s15Q25O","5d1ea7e579b687001af802c6","6617fad957f7c6a12ea16e26","6622ce27765850925d514890","instruction screen 4"," ","","","","","","","","","","","",""
"","13071","html-keyboard-response","7","81398","0.0-7.0","4k6s15Q25O","5d1ea7e579b687001af802c6","6617fad957f7c6a12ea16e26","6622ce27765850925d514890","instruction screen 5"," ","","","","","","","","","","","",""
"","null","html-keyboard-response","8","81943","0.0-8.0","4k6s15Q25O","5d1ea7e579b687001af802c6","6617fad957f7c6a12ea16e26","6622ce27765850925d514890","fixation cross","null","","","","","","","","","","","",""
"","null","html-keyboard-response","9","82456","0.0-9.0-0.0","4k6s15Q25O","5d1ea7e579b687001af802c6","6617fad957f7c6a12ea16e26","6622ce27765850925d514890","fixation cross","null","","","","","","","","","","","",""
"","null","html-keyboard-response","10","85457","0.0-9.0-1.0","4k6s15Q25O","5d1ea7e579b687001af802c6","6617fad957f7c6a12ea16e26","6622ce27765850925d514890","
        <div id=""grid-container"">
        <!-- Grid items will be dynamically added here -->
    </div>    ","null","","","","","","","","","","","",""
"","6633","html-keyboard-response","11","89119","0.0-9.0-2.0","4k6s15Q25O","5d1ea7e579b687001af802c6","6617fad957f7c6a12ea16e26","6622ce27765850925d514890","mask grid"," ","","","","","Ontogenetic_Distractor_notarget","onmask","3000"," ","3","Ontogenetic","true","practice"
"","null","html-keyboard-response","12","90335","0.0-9.0-3.0","4k6s15Q25O","5d1ea7e579b687001af802c6","6617fad957f7c6a12ea16e26","6622ce27765850925d514890","feedback screen","null","","","","","","","","","","","",""
"","null","html-keyboard-response","13","90856","0.0-9.0-0.1","4k6s15Q25O","5d1ea7e579b687001af802c6","6617fad957f7c6a12ea16e26","6622ce27765850925d514890","fixation cross","null","","","","","","","","","","","",""
"","1028","html-keyboard-response","14","91885","0.0-9.0-1.1","4k6s15Q25O","5d1ea7e579b687001af802c6","6617fad957f7c6a12ea16e26","6622ce27765850925d514890","image grid","q","","","","","Ontogenetic_Distractor_Nonthreat_target","ongrid","2900","p","6","Ontogenetic","false","practice"
"","null","html-keyboard-response","15","92043","0.0-9.0-2.1","4k6s15Q25O","5d1ea7e579b687001af802c6","6617fad957f7c6a12ea16e26","6622ce27765850925d514890","
    <div id=""grid-container"">
        <!-- Grid items will be dynamically added here -->
    </div>    ","null","","","","","","","","","","","",""
"","null","html-keyboard-response","16","93257","0.0-9.0-3.1","4k6s15Q25O","5d1ea7e579b687001af802c6","6617fad957f7c6a12ea16e26","6622ce27765850925d514890","feedback screen","null","","","","","","","","","","","",""
"","null","html-keyboard-response","17","93761","0.0-9.0-0.2","4k6s15Q25O","5d1ea7e579b687001af802c6","6617fad957f7c6a12ea16e26","6622ce27765850925d514890","fixation cross","null","","","","","","","","","","","",""
"","1810","html-keyboard-response","18","95572","0.0-9.0-1.2","4k6s15Q25O","5d1ea7e579b687001af802c6","6617fad957f7c6a12ea16e26","6622ce27765850925d514890","image grid","p","","","","","Ontogenetic_Distractor_Threat_target","ongrid","2800","q","9","Ontogenetic","false","practice"
"","null","html-keyboard-response","19","95728","0.0-9.0-2.2","4k6s15Q25O","5d1ea7e579b687001af802c6","6617fad957f7c6a12ea16e26","6622ce27765850925d514890","
    <div id=""grid-container"">
        <!-- Grid items will be dynamically added here -->
    </div>    ","null","","","","","","","","","","","",""
"","null","html-keyboard-response","20","96945","0.0-9.0-3.2","4k6s15Q25O","5d1ea7e579b687001af802c6","6617fad957f7c6a12ea16e26","6622ce27765850925d514890","feedback screen","null","","","","","","","","","","","",""
"","null","html-keyboard-response","21","97460","0.0-9.0-0.3","4k6s15Q25O","5d1ea7e579b687001af802c6","6617fad957f7c6a12ea16e26","6622ce27765850925d514890","fixation cross","null","","","","","","","","","","","",""
"","1361","html-keyboard-response","22","98822","0.0-9.0-1.3","4k6s15Q25O","5d1ea7e579b687001af802c6","6617fad957f7c6a12ea16e26","6622ce27765850925d514890","image grid"," ","","","","","Phylogenetic_Distractor_Threat_target","ongrid","2700","q","7","Ontogenetic","false","practice"
"","null","html-keyboard-response","23","98983","0.0-9.0-2.3","4k6s15Q25O","5d1ea7e579b687001af802c6","6617fad957f7c6a12ea16e26","6622ce27765850925d514890","
    <div id=""grid-container"">
        <!-- Grid items will be dynamically added here -->
    </div>    ","null","","","","","","","","","","","",""
"","null","html-keyboard-response","24","100211","0.0-9.0-3.3","4k6s15Q25O","5d1ea7e579b687001af802c6","6617fad957f7c6a12ea16e26","6622ce27765850925d514890","feedback screen","null","","","","","","","","","","","",""
"","null","html-keyboard-response","25","100726","0.0-9.0-0.4","4k6s15Q25O","5d1ea7e579b687001af802c6","6617fad957f7c6a12ea16e26","6622ce27765850925d514890","fixation cross","null","","","","","","","","","","","",""
"","1335","html-keyboard-response","26","102062","0.0-9.0-1.4","4k6s15Q25O","5d1ea7e579b687001af802c6","6617fad957f7c6a12ea16e26","6622ce27765850925d514890","image grid","p","","","","","Phylogenetic_Distractor_Threat_target","ongrid","2600","q","6","Ontogenetic","false","practice"
"","null","html-keyboard-response","27","102221","0.0-9.0-2.4","4k6s15Q25O","5d1ea7e579b687001af802c6","6617fad957f7c6a12ea16e26","6622ce27765850925d514890","
    <div id=""grid-container"">
        <!-- Grid items will be dynamically added here -->
    </div>    ","null","","","","","","","","","","","",""
"","null","html-keyboard-response","28","103439","0.0-9.0-3.4","4k6s15Q25O","5d1ea7e579b687001af802c6","6617fad957f7c6a12ea16e26","6622ce27765850925d514890","feedback screen","null","","","","","","","","","","","",""
"","null","html-keyboard-response","29","103952","0.0-9.0-0.5","4k6s15Q25O","5d1ea7e579b687001af802c6","6617fad957f7c6a12ea16e26","6622ce27765850925d514890","fixation cross","null","","","","","","","","","","","",""
"","1374","html-keyboard-response","30","105327","0.0-9.0-1.5","4k6s15Q25O","5d1ea7e579b687001af802c6","6617fad957f7c6a12ea16e26","6622ce27765850925d514890","image grid","q","","","","","Phylogenetic_Distractor_Threat_target","ongrid","2500","q","3","Ontogenetic","true","practice"
"","null","html-keyboard-response","31","105480","0.0-9.0-2.5","4k6s15Q25O","5d1ea7e579b687001af802c6","6617fad957f7c6a12ea16e26","6622ce27765850925d514890","
    <div id=""grid-container"">
        <!-- Grid items will be dynamically added here -->
    </div>    ","null","","","","","","","","","","","",""
"","null","html-keyboard-response","32","106695","0.0-9.0-3.5","4k6s15Q25O","5d1ea7e579b687001af802c6","6617fad957f7c6a12ea16e26","6622ce27765850925d514890","feedback screen","null","","","","","","","","","","","",""
"","null","html-keyboard-response","33","107207","0.0-9.0-0.6","4k6s15Q25O","5d1ea7e579b687001af802c6","6617fad957f7c6a12ea16e26","6622ce27765850925d514890","fixation cross","null","","","","","","","","","","","",""
"","990","html-keyboard-response","34","108198","0.0-9.0-1.6","4k6s15Q25O","5d1ea7e579b687001af802c6","6617fad957f7c6a12ea16e26","6622ce27765850925d514890","image grid","q","","","","","Ontogenetic_Distractor_Nonthreat_target","ongrid","2400","p","8","Ontogenetic","false","practice"
"","null","html-keyboard-response","35","108351","0.0-9.0-2.6","4k6s15Q25O","5d1ea7e579b687001af802c6","6617fad957f7c6a12ea16e26","6622ce27765850925d514890","
    <div id=""grid-container"">
        <!-- Grid items will be dynamically added here -->
    </div>    ","null","","","","","","","","","","","",""
"","null","html-keyboard-response","36","109571","0.0-9.0-3.6","4k6s15Q25O","5d1ea7e579b687001af802c6","6617fad957f7c6a12ea16e26","6622ce27765850925d514890","feedback screen","null","","","","","","","","","","","",""
"","null","html-keyboard-response","37","110086","0.0-9.0-0.7","4k6s15Q25O","5d1ea7e579b687001af802c6","6617fad957f7c6a12ea16e26","6622ce27765850925d514890","fixation cross","null","","","","","","","","","","","",""
"","1208","html-keyboard-response","38","111294","0.0-9.0-1.7","4k6s15Q25O","5d1ea7e579b687001af802c6","6617fad957f7c6a12ea16e26","6622ce27765850925d514890","image grid","q","","","","","Ontogenetic_Distractor_Threat_target","ongrid","2300","q","6","Ontogenetic","true","practice"
"","null","html-keyboard-response","39","111459","0.0-9.0-2.7","4k6s15Q25O","5d1ea7e579b687001af802c6","6617fad957f7c6a12ea16e26","6622ce27765850925d514890","
    <div id=""grid-container"">
        <!-- Grid items will be dynamically added here -->
    </div>    ","null","","","","","","","","","","","",""
"","null","html-keyboard-response","40","112690","0.0-9.0-3.7","4k6s15Q25O","5d1ea7e579b687001af802c6","6617fad957f7c6a12ea16e26","6622ce27765850925d514890","feedback screen","null","","","","","","","","","","","",""
"","null","html-keyboard-response","41","113201","0.0-9.0-0.8","4k6s15Q25O","5d1ea7e579b687001af802c6","6617fad957f7c6a12ea16e26","6622ce27765850925d514890","fixation cross","null","","","","","","","","","","","",""
"","990","html-keyboard-response","42","114192","0.0-9.0-1.8","4k6s15Q25O","5d1ea7e579b687001af802c6","6617fad957f7c6a12ea16e26","6622ce27765850925d514890","image grid","q","","","","","Ontogenetic_Distractor_Threat_target","ongrid","2200","q","5","Ontogenetic","true","practice"
"","null","html-keyboard-response","43","114350","0.0-9.0-2.8","4k6s15Q25O","5d1ea7e579b687001af802c6","6617fad957f7c6a12ea16e26","6622ce27765850925d514890","
    <div id=""grid-container"">
        <!-- Grid items will be dynamically added here -->
    </div>    ","null","","","","","","","","","","","",""
"","null","html-keyboard-response","44","115570","0.0-9.0-3.8","4k6s15Q25O","5d1ea7e579b687001af802c6","6617fad957f7c6a12ea16e26","6622ce27765850925d514890","feedback screen","null","","","","","","","","","","","",""
"","null","html-keyboard-response","45","116081","0.0-9.0-0.9","4k6s15Q25O","5d1ea7e579b687001af802c6","6617fad957f7c6a12ea16e26","6622ce27765850925d514890","fixation cross","null","","","","","","","","","","","",""
"","1925","html-keyboard-response","46","118006","0.0-9.0-1.9","4k6s15Q25O","5d1ea7e579b687001af802c6","6617fad957f7c6a12ea16e26","6622ce27765850925d514890","image grid"," ","","","","","Phylogenetic_Distractor_Nonthreat_target","ongrid","2100","p","3","Ontogenetic","false","practice"
"","null","html-keyboard-response","47","118158","0.0-9.0-2.9","4k6s15Q25O","5d1ea7e579b687001af802c6","6617fad957f7c6a12ea16e26","6622ce27765850925d514890","
    <div id=""grid-container"">
        <!-- Grid items will be dynamically added here -->
    </div>    ","null","","","","","","","","","","","",""
"","null","html-keyboard-response","48","119361","0.0-9.0-3.9","4k6s15Q25O","5d1ea7e579b687001af802c6","6617fad957f7c6a12ea16e26","6622ce27765850925d514890","feedback screen","null","","","","","","","","","","","",""
"","null","html-keyboard-response","49","119875","0.0-9.0-0.10","4k6s15Q25O","5d1ea7e579b687001af802c6","6617fad957f7c6a12ea16e26","6622ce27765850925d514890","fixation cross","null","","","","","","","","","","","",""
"","971","html-keyboard-response","50","120834","0.0-9.0-1.10","4k6s15Q25O","5d1ea7e579b687001af802c6","6617fad957f7c6a12ea16e26","6622ce27765850925d514890","image grid","q","","","","","Phylogenetic_Distractor_Nonthreat_target","ongrid","2000","p","3","Ontogenetic","false","practice"
"","null","html-keyboard-response","51","120995","0.0-9.0-2.10","4k6s15Q25O","5d1ea7e579b687001af802c6","6617fad957f7c6a12ea16e26","6622ce27765850925d514890","
    <div id=""grid-container"">
        <!-- Grid items will be dynamically added here -->
    </div>    ","null","","","","","","","","","","","",""
"","null","html-keyboard-response","52","122203","0.0-9.0-3.10","4k6s15Q25O","5d1ea7e579b687001af802c6","6617fad957f7c6a12ea16e26","6622ce27765850925d514890","feedback screen","null","","","","","","","","","","","",""
"","null","html-keyboard-response","53","122723","0.0-9.0-0.11","4k6s15Q25O","5d1ea7e579b687001af802c6","6617fad957f7c6a12ea16e26","6622ce27765850925d514890","fixation cross","null","","","","","","","","","","","",""
"","1383","html-keyboard-response","54","124106","0.0-9.0-1.11","4k6s15Q25O","5d1ea7e579b687001af802c6","6617fad957f7c6a12ea16e26","6622ce27765850925d514890","image grid"," ","","","","","Ontogenetic_Distractor_notarget","ongrid","1900"," ","1","Ontogenetic","true","practice"
"","null","html-keyboard-response","55","124260","0.0-9.0-2.11","4k6s15Q25O","5d1ea7e579b687001af802c6","6617fad957f7c6a12ea16e26","6622ce27765850925d514890","
    <div id=""grid-container"">
        <!-- Grid items will be dynamically added here -->
    </div>    ","null","","","","","","","","","","","",""
"","null","html-keyboard-response","56","125466","0.0-9.0-3.11","4k6s15Q25O","5d1ea7e579b687001af802c6","6617fad957f7c6a12ea16e26","6622ce27765850925d514890","feedback screen","null","","","","","","","","","","","",""
"","null","html-keyboard-response","57","125983","0.0-9.0-0.12","4k6s15Q25O","5d1ea7e579b687001af802c6","6617fad957f7c6a12ea16e26","6622ce27765850925d514890","fixation cross","null","","","","","","","","","","","",""
"","1321","html-keyboard-response","58","127305","0.0-9.0-1.12","4k6s15Q25O","5d1ea7e579b687001af802c6","6617fad957f7c6a12ea16e26","6622ce27765850925d514890","image grid","p","","","","","Ontogenetic_Distractor_Nonthreat_target","ongrid","1800","p","8","Ontogenetic","true","practice"
"","null","html-keyboard-response","59","127457","0.0-9.0-2.12","4k6s15Q25O","5d1ea7e579b687001af802c6","6617fad957f7c6a12ea16e26","6622ce27765850925d514890","
    <div id=""grid-container"">
        <!-- Grid items will be dynamically added here -->
    </div>    ","null","","","","","","","","","","","",""
"","null","html-keyboard-response","60","128662","0.0-9.0-3.12","4k6s15Q25O","5d1ea7e579b687001af802c6","6617fad957f7c6a12ea16e26","6622ce27765850925d514890","feedback screen","null","","","","","","","","","","","",""
"","null","html-keyboard-response","61","129176","0.0-9.0-0.13","4k6s15Q25O","5d1ea7e579b687001af802c6","6617fad957f7c6a12ea16e26","6622ce27765850925d514890","fixation cross","null","","","","","","","","","","","",""
"","1217","html-keyboard-response","62","130394","0.0-9.0-1.13","4k6s15Q25O","5d1ea7e579b687001af802c6","6617fad957f7c6a12ea16e26","6622ce27765850925d514890","image grid","p","","","","","Phylogenetic_Distractor_Threat_target","ongrid","1700","q","5","Ontogenetic","false","practice"
"","null","html-keyboard-response","63","130550","0.0-9.0-2.13","4k6s15Q25O","5d1ea7e579b687001af802c6","6617fad957f7c6a12ea16e26","6622ce27765850925d514890","
    <div id=""grid-container"">
        <!-- Grid items will be dynamically added here -->
    </div>    ","null","","","","","","","","","","","",""
"","null","html-keyboard-response","64","131758","0.0-9.0-3.13","4k6s15Q25O","5d1ea7e579b687001af802c6","6617fad957f7c6a12ea16e26","6622ce27765850925d514890","feedback screen","null","","","","","","","","","","","",""
"","null","html-keyboard-response","65","132268","0.0-9.0-0.14","4k6s15Q25O","5d1ea7e579b687001af802c6","6617fad957f7c6a12ea16e26","6622ce27765850925d514890","fixation cross","null","","","","","","","","","","","",""
"","1462","html-keyboard-response","66","133730","0.0-9.0-1.14","4k6s15Q25O","5d1ea7e579b687001af802c6","6617fad957f7c6a12ea16e26","6622ce27765850925d514890","image grid"," ","","","","","Phylogenetic_Distractor_notarget","ongrid","1600"," ","7","Ontogenetic","true","practice"
"","null","html-keyboard-response","67","133882","0.0-9.0-2.14","4k6s15Q25O","5d1ea7e579b687001af802c6","6617fad957f7c6a12ea16e26","6622ce27765850925d514890","
    <div id=""grid-container"">
        <!-- Grid items will be dynamically added here -->
    </div>    ","null","","","","","","","","","","","",""
"","null","html-keyboard-response","68","135092","0.0-9.0-3.14","4k6s15Q25O","5d1ea7e579b687001af802c6","6617fad957f7c6a12ea16e26","6622ce27765850925d514890","feedback screen","null","","","","","","","","","","","",""
"","null","html-keyboard-response","69","135609","0.0-9.0-0.15","4k6s15Q25O","5d1ea7e579b687001af802c6","6617fad957f7c6a12ea16e26","6622ce27765850925d514890","fixation cross","null","","","","","","","","","","","",""
"","null","html-keyboard-response","70","137124","0.0-9.0-1.15","4k6s15Q25O","5d1ea7e579b687001af802c6","6617fad957f7c6a12ea16e26","6622ce27765850925d514890","
        <div id=""grid-container"">
        <!-- Grid items will be dynamically added here -->
    </div>    ","null","","","","","","","","","","","",""
"","1874","html-keyboard-response","71","137499","0.0-9.0-2.15","4k6s15Q25O","5d1ea7e579b687001af802c6","6617fad957f7c6a12ea16e26","6622ce27765850925d514890","mask grid","q","","","","","Ontogenetic_Distractor_Threat_target","onmask","1500","q","5","Ontogenetic","true","practice"
"","null","html-keyboard-response","72","138721","0.0-9.0-3.15","4k6s15Q25O","5d1ea7e579b687001af802c6","6617fad957f7c6a12ea16e26","6622ce27765850925d514890","feedback screen","null","","","","","","","","","","","",""
"","null","html-keyboard-response","73","139233","0.0-9.0-0.16","4k6s15Q25O","5d1ea7e579b687001af802c6","6617fad957f7c6a12ea16e26","6622ce27765850925d514890","fixation cross","null","","","","","","","","","","","",""
"","1289","html-keyboard-response","74","140523","0.0-9.0-1.16","4k6s15Q25O","5d1ea7e579b687001af802c6","6617fad957f7c6a12ea16e26","6622ce27765850925d514890","image grid","p","","","","","Ontogenetic_Distractor_Nonthreat_target","ongrid","1400","p","7","Ontogenetic","true","practice"
"","null","html-keyboard-response","75","140678","0.0-9.0-2.16","4k6s15Q25O","5d1ea7e579b687001af802c6","6617fad957f7c6a12ea16e26","6622ce27765850925d514890","
    <div id=""grid-container"">
        <!-- Grid items will be dynamically added here -->
    </div>    ","null","","","","","","","","","","","",""
"","null","html-keyboard-response","76","141888","0.0-9.0-3.16","4k6s15Q25O","5d1ea7e579b687001af802c6","6617fad957f7c6a12ea16e26","6622ce27765850925d514890","feedback screen","null","","","","","","","","","","","",""
"","null","html-keyboard-response","77","142403","0.0-9.0-0.17","4k6s15Q25O","5d1ea7e579b687001af802c6","6617fad957f7c6a12ea16e26","6622ce27765850925d514890","fixation cross","null","","","","","","","","","","","",""
"","959","html-keyboard-response","78","143363","0.0-9.0-1.17","4k6s15Q25O","5d1ea7e579b687001af802c6","6617fad957f7c6a12ea16e26","6622ce27765850925d514890","image grid","q","","","","","Phylogenetic_Distractor_notarget","ongrid","1300"," ","6","Ontogenetic","false","practice"
"","null","html-keyboard-response","79","143525","0.0-9.0-2.17","4k6s15Q25O","5d1ea7e579b687001af802c6","6617fad957f7c6a12ea16e26","6622ce27765850925d514890","
    <div id=""grid-container"">
        <!-- Grid items will be dynamically added here -->
    </div>    ","null","","","","","","","","","","","",""
"","null","html-keyboard-response","80","144741","0.0-9.0-3.17","4k6s15Q25O","5d1ea7e579b687001af802c6","6617fad957f7c6a12ea16e26","6622ce27765850925d514890","feedback screen","null","","","","","","","","","","","",""
"","null","html-keyboard-response","81","145244","0.0-9.0-0.18","4k6s15Q25O","5d1ea7e579b687001af802c6","6617fad957f7c6a12ea16e26","6622ce27765850925d514890","fixation cross","null","","","","","","","","","","","",""
"","null","html-keyboard-response","82","146459","0.0-9.0-1.18","4k6s15Q25O","5d1ea7e579b687001af802c6","6617fad957f7c6a12ea16e26","6622ce27765850925d514890","
        <div id=""grid-container"">
        <!-- Grid items will be dynamically added here -->
    </div>    ","null","","","","","","","","","","","",""
"","1246","html-keyboard-response","83","146506","0.0-9.0-2.18","4k6s15Q25O","5d1ea7e579b687001af802c6","6617fad957f7c6a12ea16e26","6622ce27765850925d514890","mask grid","p","","","","","Phylogenetic_Distractor_Nonthreat_target","onmask","1200","p","8","Ontogenetic","true","practice"
"","null","html-keyboard-response","84","147726","0.0-9.0-3.18","4k6s15Q25O","5d1ea7e579b687001af802c6","6617fad957f7c6a12ea16e26","6622ce27765850925d514890","feedback screen","null","","","","","","","","","","","",""
"","null","html-keyboard-response","85","148243","0.0-9.0-0.19","4k6s15Q25O","5d1ea7e579b687001af802c6","6617fad957f7c6a12ea16e26","6622ce27765850925d514890","fixation cross","null","","","","","","","","","","","",""
"","null","html-keyboard-response","86","149348","0.0-9.0-1.19","4k6s15Q25O","5d1ea7e579b687001af802c6","6617fad957f7c6a12ea16e26","6622ce27765850925d514890","
        <div id=""grid-container"">
        <!-- Grid items will be dynamically added here -->
    </div>    ","null","","","","","","","","","","","",""
"","1315","html-keyboard-response","87","149563","0.0-9.0-2.19","4k6s15Q25O","5d1ea7e579b687001af802c6","6617fad957f7c6a12ea16e26","6622ce27765850925d514890","mask grid"," ","","","","","Phylogenetic_Distractor_Nonthreat_target","onmask","1100","p","3","Ontogenetic","false","practice"
"","null","html-keyboard-response","88","150773","0.0-9.0-3.19","4k6s15Q25O","5d1ea7e579b687001af802c6","6617fad957f7c6a12ea16e26","6622ce27765850925d514890","feedback screen","null","","","","","","","","","","","",""
"","10294","html-keyboard-response","89","161099","0.0-10.0","4k6s15Q25O","5d1ea7e579b687001af802c6","6617fad957f7c6a12ea16e26","6622ce27765850925d514890","pre-experimental_briefing"," ","","","","","","","","","","","",""
"","null","html-keyboard-response","90","163648","0.0-11.0-0.0","4k6s15Q25O","5d1ea7e579b687001af802c6","6617fad957f7c6a12ea16e26","6622ce27765850925d514890","fixation cross","null","","","","","","","","","","","",""
"","1137","html-keyboard-response","91","164786","0.0-11.0-1.0","4k6s15Q25O","5d1ea7e579b687001af802c6","6617fad957f7c6a12ea16e26","6622ce27765850925d514890","image grid"," ","","","","","Ontogenetic_Distractor_Threat_target","ongrid","2500","q","3","Ontogenetic","false","experimental"
"","null","html-keyboard-response","92","164942","0.0-11.0-2.0","4k6s15Q25O","5d1ea7e579b687001af802c6","6617fad957f7c6a12ea16e26","6622ce27765850925d514890","
    <div id=""grid-container"">
        <!-- Grid items will be dynamically added here -->
    </div>    ","null","","","","","","","","","","","",""
"","null","html-keyboard-response","93","165673","0.0-11.0-0.1","4k6s15Q25O","5d1ea7e579b687001af802c6","6617fad957f7c6a12ea16e26","6622ce27765850925d514890","fixation cross","null","","","","","","","","","","","",""
"","1096","html-keyboard-response","94","166769","0.0-11.0-1.1","4k6s15Q25O","5d1ea7e579b687001af802c6","6617fad957f7c6a12ea16e26","6622ce27765850925d514890","image grid"," ","","","","","Ontogenetic_Distractor_Nonthreat_target","ongrid","2500","p","9","Ontogenetic","false","experimental"
"","null","html-keyboard-response","95","166925","0.0-11.0-2.1","4k6s15Q25O","5d1ea7e579b687001af802c6","6617fad957f7c6a12ea16e26","6622ce27765850925d514890","
    <div id=""grid-container"">
        <!-- Grid items will be dynamically added here -->
    </div>    ","null","","","","","","","","","","","",""
"","null","html-keyboard-response","96","167641","0.0-11.0-0.2","4k6s15Q25O","5d1ea7e579b687001af802c6","6617fad957f7c6a12ea16e26","6622ce27765850925d514890","fixation cross","null","","","","","","","","","","","",""
"","1937","html-keyboard-response","97","169578","0.0-11.0-1.2","4k6s15Q25O","5d1ea7e579b687001af802c6","6617fad957f7c6a12ea16e26","6622ce27765850925d514890","image grid","p","","","","","Ontogenetic_Distractor_Nonthreat_target","ongrid","2500","p","9","Ontogenetic","true","experimental"
"","null","html-keyboard-response","98","169738","0.0-11.0-2.2","4k6s15Q25O","5d1ea7e579b687001af802c6","6617fad957f7c6a12ea16e26","6622ce27765850925d514890","
    <div id=""grid-container"">
        <!-- Grid items will be dynamically added here -->
    </div>    ","null","","","","","","","","","","","",""
"","null","html-keyboard-response","99","170442","0.0-11.0-0.3","4k6s15Q25O","5d1ea7e579b687001af802c6","6617fad957f7c6a12ea16e26","6622ce27765850925d514890","fixation cross","null","","","","","","","","","","","",""
"","1697","html-keyboard-response","100","172139","0.0-11.0-1.3","4k6s15Q25O","5d1ea7e579b687001af802c6","6617fad957f7c6a12ea16e26","6622ce27765850925d514890","image grid"," ","","","","","Ontogenetic_Distractor_Threat_target","ongrid","2500","q","3","Ontogenetic","false","experimental"
"","null","html-keyboard-response","101","172301","0.0-11.0-2.3","4k6s15Q25O","5d1ea7e579b687001af802c6","6617fad957f7c6a12ea16e26","6622ce27765850925d514890","
    <div id=""grid-container"">
        <!-- Grid items will be dynamically added here -->
    </div>    ","null","","","","","","","","","","","",""
"","null","html-keyboard-response","102","173019","0.0-11.0-0.4","4k6s15Q25O","5d1ea7e579b687001af802c6","6617fad957f7c6a12ea16e26","6622ce27765850925d514890","fixation cross","null","","","","","","","","","","","",""
"","1127","html-keyboard-response","103","174146","0.0-11.0-1.4","4k6s15Q25O","5d1ea7e579b687001af802c6","6617fad957f7c6a12ea16e26","6622ce27765850925d514890","image grid","p","","","","","Ontogenetic_Distractor_Threat_target","ongrid","2500","q","8","Ontogenetic","false","experimental"
"","null","html-keyboard-response","104","174312","0.0-11.0-2.4","4k6s15Q25O","5d1ea7e579b687001af802c6","6617fad957f7c6a12ea16e26","6622ce27765850925d514890","
    <div id=""grid-container"">
        <!-- Grid items will be dynamically added here -->
    </div>    ","null","","","","","","","","","","","",""
"","null","html-keyboard-response","105","175018","0.0-11.0-0.5","4k6s15Q25O","5d1ea7e579b687001af802c6","6617fad957f7c6a12ea16e26","6622ce27765850925d514890","fixation cross","null","","","","","","","","","","","",""
"","1952","html-keyboard-response","106","176971","0.0-11.0-1.5","4k6s15Q25O","5d1ea7e579b687001af802c6","6617fad957f7c6a12ea16e26","6622ce27765850925d514890","image grid"," ","","","","","Ontogenetic_Distractor_Threat_target","ongrid","2500","q","7","Ontogenetic","false","experimental"
"","null","html-keyboard-response","107","177126","0.0-11.0-2.5","4k6s15Q25O","5d1ea7e579b687001af802c6","6617fad957f7c6a12ea16e26","6622ce27765850925d514890","
    <div id=""grid-container"">
        <!-- Grid items will be dynamically added here -->
    </div>    ","null","","","","","","","","","","","",""
"","null","html-keyboard-response","108","177830","0.0-11.0-0.6","4k6s15Q25O","5d1ea7e579b687001af802c6","6617fad957f7c6a12ea16e26","6622ce27765850925d514890","fixation cross","null","","","","","","","","","","","",""
"","1676","html-keyboard-response","109","179507","0.0-11.0-1.6","4k6s15Q25O","5d1ea7e579b687001af802c6","6617fad957f7c6a12ea16e26","6622ce27765850925d514890","image grid","p","","","","","Ontogenetic_Distractor_Nonthreat_target","ongrid","2500","p","7","Ontogenetic","true","experimental"
"","null","html-keyboard-response","110","179663","0.0-11.0-2.6","4k6s15Q25O","5d1ea7e579b687001af802c6","6617fad957f7c6a12ea16e26","6622ce27765850925d514890","
    <div id=""grid-container"">
        <!-- Grid items will be dynamically added here -->
    </div>    ","null","","","","","","","","","","","",""
"","null","html-keyboard-response","111","180381","0.0-11.0-0.7","4k6s15Q25O","5d1ea7e579b687001af802c6","6617fad957f7c6a12ea16e26","6622ce27765850925d514890","fixation cross","null","","","","","","","","","","","",""
"","1740","html-keyboard-response","112","182109","0.0-11.0-1.7","4k6s15Q25O","5d1ea7e579b687001af802c6","6617fad957f7c6a12ea16e26","6622ce27765850925d514890","image grid"," ","","","","","Ontogenetic_Distractor_Threat_target","ongrid","2500","q","2","Ontogenetic","false","experimental"
"","null","html-keyboard-response","113","182262","0.0-11.0-2.7","4k6s15Q25O","5d1ea7e579b687001af802c6","6617fad957f7c6a12ea16e26","6622ce27765850925d514890","
    <div id=""grid-container"">
        <!-- Grid items will be dynamically added here -->
    </div>    ","null","","","","","","","","","","","",""
"","null","html-keyboard-response","114","182993","0.0-11.0-0.8","4k6s15Q25O","5d1ea7e579b687001af802c6","6617fad957f7c6a12ea16e26","6622ce27765850925d514890","fixation cross","null","","","","","","","","","","","",""
"","1828","html-keyboard-response","115","184821","0.0-11.0-1.8","4k6s15Q25O","5d1ea7e579b687001af802c6","6617fad957f7c6a12ea16e26","6622ce27765850925d514890","image grid","q","","","","","Ontogenetic_Distractor_Nonthreat_target","ongrid","2500","p","6","Ontogenetic","false","experimental"
"","null","html-keyboard-response","116","184977","0.0-11.0-2.8","4k6s15Q25O","5d1ea7e579b687001af802c6","6617fad957f7c6a12ea16e26","6622ce27765850925d514890","
    <div id=""grid-container"">
        <!-- Grid items will be dynamically added here -->
    </div>    ","null","","","","","","","","","","","",""
"","null","html-keyboard-response","117","185692","0.0-11.0-0.9","4k6s15Q25O","5d1ea7e579b687001af802c6","6617fad957f7c6a12ea16e26","6622ce27765850925d514890","fixation cross","null","","","","","","","","","","","",""
"","1200","html-keyboard-response","118","186893","0.0-11.0-1.9","4k6s15Q25O","5d1ea7e579b687001af802c6","6617fad957f7c6a12ea16e26","6622ce27765850925d514890","image grid","p","","","","","Ontogenetic_Distractor_notarget","ongrid","2500"," ","3","Ontogenetic","false","experimental"
"","null","html-keyboard-response","119","187046","0.0-11.0-2.9","4k6s15Q25O","5d1ea7e579b687001af802c6","6617fad957f7c6a12ea16e26","6622ce27765850925d514890","
    <div id=""grid-container"">
        <!-- Grid items will be dynamically added here -->
    </div>    ","null","","","","","","","","","","","",""
"","null","html-keyboard-response","120","187753","0.0-11.0-0.10","4k6s15Q25O","5d1ea7e579b687001af802c6","6617fad957f7c6a12ea16e26","6622ce27765850925d514890","fixation cross","null","","","","","","","","","","","",""
"","989","html-keyboard-response","121","188742","0.0-11.0-1.10","4k6s15Q25O","5d1ea7e579b687001af802c6","6617fad957f7c6a12ea16e26","6622ce27765850925d514890","image grid"," ","","","","","Ontogenetic_Distractor_Nonthreat_target","ongrid","2500","p","9","Ontogenetic","false","experimental"
"","null","html-keyboard-response","122","188896","0.0-11.0-2.10","4k6s15Q25O","5d1ea7e579b687001af802c6","6617fad957f7c6a12ea16e26","6622ce27765850925d514890","
    <div id=""grid-container"">
        <!-- Grid items will be dynamically added here -->
    </div>    ","null","","","","","","","","","","","",""
"","null","html-keyboard-response","123","189614","0.0-11.0-0.11","4k6s15Q25O","5d1ea7e579b687001af802c6","6617fad957f7c6a12ea16e26","6622ce27765850925d514890","fixation cross","null","","","","","","","","","","","",""
"","727","html-keyboard-response","124","190341","0.0-11.0-1.11","4k6s15Q25O","5d1ea7e579b687001af802c6","6617fad957f7c6a12ea16e26","6622ce27765850925d514890","image grid","q","","","","","Ontogenetic_Distractor_notarget","ongrid","2500"," ","6","Ontogenetic","false","experimental"
"","null","html-keyboard-response","125","190504","0.0-11.0-2.11","4k6s15Q25O","5d1ea7e579b687001af802c6","6617fad957f7c6a12ea16e26","6622ce27765850925d514890","
    <div id=""grid-container"">
        <!-- Grid items will be dynamically added here -->
    </div>    ","null","","","","","","","","","","","",""
"","null","html-keyboard-response","126","191210","0.0-11.0-0.12","4k6s15Q25O","5d1ea7e579b687001af802c6","6617fad957f7c6a12ea16e26","6622ce27765850925d514890","fixation cross","null","","","","","","","","","","","",""
"","1253","html-keyboard-response","127","192463","0.0-11.0-1.12","4k6s15Q25O","5d1ea7e579b687001af802c6","6617fad957f7c6a12ea16e26","6622ce27765850925d514890","image grid","p","","","","","Ontogenetic_Distractor_Nonthreat_target","ongrid","2500","p","4","Ontogenetic","true","experimental"
"","null","html-keyboard-response","128","192623","0.0-11.0-2.12","4k6s15Q25O","5d1ea7e579b687001af802c6","6617fad957f7c6a12ea16e26","6622ce27765850925d514890","
    <div id=""grid-container"">
        <!-- Grid items will be dynamically added here -->
    </div>    ","null","","","","","","","","","","","",""
"","null","html-keyboard-response","129","193337","0.0-11.0-0.13","4k6s15Q25O","5d1ea7e579b687001af802c6","6617fad957f7c6a12ea16e26","6622ce27765850925d514890","fixation cross","null","","","","","","","","","","","",""
"","1164","html-keyboard-response","130","194502","0.0-11.0-1.13","4k6s15Q25O","5d1ea7e579b687001af802c6","6617fad957f7c6a12ea16e26","6622ce27765850925d514890","image grid","p","","","","","Ontogenetic_Distractor_Nonthreat_target","ongrid","2500","p","5","Ontogenetic","true","experimental"
"","null","html-keyboard-response","131","194664","0.0-11.0-2.13","4k6s15Q25O","5d1ea7e579b687001af802c6","6617fad957f7c6a12ea16e26","6622ce27765850925d514890","
    <div id=""grid-container"">
        <!-- Grid items will be dynamically added here -->
    </div>    ","null","","","","","","","","","","","",""
"","null","html-keyboard-response","132","195377","0.0-11.0-0.14","4k6s15Q25O","5d1ea7e579b687001af802c6","6617fad957f7c6a12ea16e26","6622ce27765850925d514890","fixation cross","null","","","","","","","","","","","",""
"","1270","html-keyboard-response","133","196647","0.0-11.0-1.14","4k6s15Q25O","5d1ea7e579b687001af802c6","6617fad957f7c6a12ea16e26","6622ce27765850925d514890","image grid","p","","","","","Ontogenetic_Distractor_notarget","ongrid","2500"," ","7","Ontogenetic","false","experimental"
"","null","html-keyboard-response","134","196812","0.0-11.0-2.14","4k6s15Q25O","5d1ea7e579b687001af802c6","6617fad957f7c6a12ea16e26","6622ce27765850925d514890","
    <div id=""grid-container"">
        <!-- Grid items will be dynamically added here -->
    </div>    ","null","","","","","","","","","","","",""
"","null","html-keyboard-response","135","197521","0.0-11.0-0.15","4k6s15Q25O","5d1ea7e579b687001af802c6","6617fad957f7c6a12ea16e26","6622ce27765850925d514890","fixation cross","null","","","","","","","","","","","",""
"","1460","html-keyboard-response","136","198982","0.0-11.0-1.15","4k6s15Q25O","5d1ea7e579b687001af802c6","6617fad957f7c6a12ea16e26","6622ce27765850925d514890","image grid","q","","","","","Ontogenetic_Distractor_Nonthreat_target","ongrid","2500","p","7","Ontogenetic","false","experimental"
"","null","html-keyboard-response","137","199141","0.0-11.0-2.15","4k6s15Q25O","5d1ea7e579b687001af802c6","6617fad957f7c6a12ea16e26","6622ce27765850925d514890","
    <div id=""grid-container"">
        <!-- Grid items will be dynamically added here -->
    </div>    ","null","","","","","","","","","","","",""
"","null","html-keyboard-response","138","199852","0.0-11.0-0.16","4k6s15Q25O","5d1ea7e579b687001af802c6","6617fad957f7c6a12ea16e26","6622ce27765850925d514890","fixation cross","null","","","","","","","","","","","",""
"","1049","html-keyboard-response","139","200902","0.0-11.0-1.16","4k6s15Q25O","5d1ea7e579b687001af802c6","6617fad957f7c6a12ea16e26","6622ce27765850925d514890","image grid"," ","","","","","Ontogenetic_Distractor_notarget","ongrid","2500"," ","5","Ontogenetic","true","experimental"
"","null","html-keyboard-response","140","201063","0.0-11.0-2.16","4k6s15Q25O","5d1ea7e579b687001af802c6","6617fad957f7c6a12ea16e26","6622ce27765850925d514890","
    <div id=""grid-container"">
        <!-- Grid items will be dynamically added here -->
    </div>    ","null","","","","","","","","","","","",""
"","null","html-keyboard-response","141","201771","0.0-11.0-0.17","4k6s15Q25O","5d1ea7e579b687001af802c6","6617fad957f7c6a12ea16e26","6622ce27765850925d514890","fixation cross","null","","","","","","","","","","","",""
"","1003","html-keyboard-response","142","202774","0.0-11.0-1.17","4k6s15Q25O","5d1ea7e579b687001af802c6","6617fad957f7c6a12ea16e26","6622ce27765850925d514890","image grid","p","","","","","Ontogenetic_Distractor_Threat_target","ongrid","2500","q","5","Ontogenetic","false","experimental"
"","null","html-keyboard-response","143","202927","0.0-11.0-2.17","4k6s15Q25O","5d1ea7e579b687001af802c6","6617fad957f7c6a12ea16e26","6622ce27765850925d514890","
    <div id=""grid-container"">
        <!-- Grid items will be dynamically added here -->
    </div>    ","null","","","","","","","","","","","",""
"","null","html-keyboard-response","144","203650","0.0-11.0-0.18","4k6s15Q25O","5d1ea7e579b687001af802c6","6617fad957f7c6a12ea16e26","6622ce27765850925d514890","fixation cross","null","","","","","","","","","","","",""
"","1451","html-keyboard-response","145","205102","0.0-11.0-1.18","4k6s15Q25O","5d1ea7e579b687001af802c6","6617fad957f7c6a12ea16e26","6622ce27765850925d514890","image grid"," ","","","","","Ontogenetic_Distractor_Threat_target","ongrid","2500","q","3","Ontogenetic","false","experimental"
"","null","html-keyboard-response","146","205255","0.0-11.0-2.18","4k6s15Q25O","5d1ea7e579b687001af802c6","6617fad957f7c6a12ea16e26","6622ce27765850925d514890","
    <div id=""grid-container"">
        <!-- Grid items will be dynamically added here -->
    </div>    ","null","","","","","","","","","","","",""
"","null","html-keyboard-response","147","205972","0.0-11.0-0.19","4k6s15Q25O","5d1ea7e579b687001af802c6","6617fad957f7c6a12ea16e26","6622ce27765850925d514890","fixation cross","null","","","","","","","","","","","",""
"","1018","html-keyboard-response","148","206991","0.0-11.0-1.19","4k6s15Q25O","5d1ea7e579b687001af802c6","6617fad957f7c6a12ea16e26","6622ce27765850925d514890","image grid","q","","","","","Ontogenetic_Distractor_Nonthreat_target","ongrid","2500","p","8","Ontogenetic","false","experimental"
"","null","html-keyboard-response","149","207146","0.0-11.0-2.19","4k6s15Q25O","5d1ea7e579b687001af802c6","6617fad957f7c6a12ea16e26","6622ce27765850925d514890","
    <div id=""grid-container"">
        <!-- Grid items will be dynamically added here -->
    </div>    ","null","","","","","","","","","","","",""
"","null","html-keyboard-response","150","207859","0.0-11.0-0.20","4k6s15Q25O","5d1ea7e579b687001af802c6","6617fad957f7c6a12ea16e26","6622ce27765850925d514890","fixation cross","null","","","","","","","","","","","",""
"","1699","html-keyboard-response","151","209558","0.0-11.0-1.20","4k6s15Q25O","5d1ea7e579b687001af802c6","6617fad957f7c6a12ea16e26","6622ce27765850925d514890","image grid","p","","","","","Ontogenetic_Distractor_Threat_target","ongrid","2500","q","3","Ontogenetic","false","experimental"
"","null","html-keyboard-response","152","209723","0.0-11.0-2.20","4k6s15Q25O","5d1ea7e579b687001af802c6","6617fad957f7c6a12ea16e26","6622ce27765850925d514890","
    <div id=""grid-container"">
        <!-- Grid items will be dynamically added here -->
    </div>    ","null","","","","","","","","","","","",""
"","null","html-keyboard-response","153","210432","0.0-11.0-0.21","4k6s15Q25O","5d1ea7e579b687001af802c6","6617fad957f7c6a12ea16e26","6622ce27765850925d514890","fixation cross","null","","","","","","","","","","","",""
"","1021","html-keyboard-response","154","211454","0.0-11.0-1.21","4k6s15Q25O","5d1ea7e579b687001af802c6","6617fad957f7c6a12ea16e26","6622ce27765850925d514890","image grid","p","","","","","Ontogenetic_Distractor_Threat_target","ongrid","2500","q","8","Ontogenetic","false","experimental"
"","null","html-keyboard-response","155","211607","0.0-11.0-2.21","4k6s15Q25O","5d1ea7e579b687001af802c6","6617fad957f7c6a12ea16e26","6622ce27765850925d514890","
    <div id=""grid-container"">
        <!-- Grid items will be dynamically added here -->
    </div>    ","null","","","","","","","","","","","",""
"","null","html-keyboard-response","156","212332","0.0-11.0-0.22","4k6s15Q25O","5d1ea7e579b687001af802c6","6617fad957f7c6a12ea16e26","6622ce27765850925d514890","fixation cross","null","","","","","","","","","","","",""
"","1170","html-keyboard-response","157","213502","0.0-11.0-1.22","4k6s15Q25O","5d1ea7e579b687001af802c6","6617fad957f7c6a12ea16e26","6622ce27765850925d514890","image grid","q","","","","","Ontogenetic_Distractor_Nonthreat_target","ongrid","2500","p","4","Ontogenetic","false","experimental"
"","null","html-keyboard-response","158","213668","0.0-11.0-2.22","4k6s15Q25O","5d1ea7e579b687001af802c6","6617fad957f7c6a12ea16e26","6622ce27765850925d514890","
    <div id=""grid-container"">
        <!-- Grid items will be dynamically added here -->
    </div>    ","null","","","","","","","","","","","",""
"","null","html-keyboard-response","159","214390","0.0-11.0-0.23","4k6s15Q25O","5d1ea7e579b687001af802c6","6617fad957f7c6a12ea16e26","6622ce27765850925d514890","fixation cross","null","","","","","","","","","","","",""
"","1367","html-keyboard-response","160","215758","0.0-11.0-1.23","4k6s15Q25O","5d1ea7e579b687001af802c6","6617fad957f7c6a12ea16e26","6622ce27765850925d514890","image grid","p","","","","","Ontogenetic_Distractor_Nonthreat_target","ongrid","2500","p","9","Ontogenetic","true","experimental"
"","null","html-keyboard-response","161","215921","0.0-11.0-2.23","4k6s15Q25O","5d1ea7e579b687001af802c6","6617fad957f7c6a12ea16e26","6622ce27765850925d514890","
    <div id=""grid-container"">
        <!-- Grid items will be dynamically added here -->
    </div>    ","null","","","","","","","","","","","",""
"","null","html-keyboard-response","162","216638","0.0-11.0-0.24","4k6s15Q25O","5d1ea7e579b687001af802c6","6617fad957f7c6a12ea16e26","6622ce27765850925d514890","fixation cross","null","","","","","","","","","","","",""
"","1008","html-keyboard-response","163","217646","0.0-11.0-1.24","4k6s15Q25O","5d1ea7e579b687001af802c6","6617fad957f7c6a12ea16e26","6622ce27765850925d514890","image grid","q","","","","","Ontogenetic_Distractor_Threat_target","ongrid","2500","q","5","Ontogenetic","true","experimental"
"","null","html-keyboard-response","164","217804","0.0-11.0-2.24","4k6s15Q25O","5d1ea7e579b687001af802c6","6617fad957f7c6a12ea16e26","6622ce27765850925d514890","
    <div id=""grid-container"">
        <!-- Grid items will be dynamically added here -->
    </div>    ","null","","","","","","","","","","","",""
"","null","html-keyboard-response","165","218515","0.0-11.0-0.25","4k6s15Q25O","5d1ea7e579b687001af802c6","6617fad957f7c6a12ea16e26","6622ce27765850925d514890","fixation cross","null","","","","","","","","","","","",""
"","1186","html-keyboard-response","166","219702","0.0-11.0-1.25","4k6s15Q25O","5d1ea7e579b687001af802c6","6617fad957f7c6a12ea16e26","6622ce27765850925d514890","image grid","q","","","","","Ontogenetic_Distractor_Threat_target","ongrid","2500","q","7","Ontogenetic","true","experimental"
"","null","html-keyboard-response","167","219863","0.0-11.0-2.25","4k6s15Q25O","5d1ea7e579b687001af802c6","6617fad957f7c6a12ea16e26","6622ce27765850925d514890","
    <div id=""grid-container"">
        <!-- Grid items will be dynamically added here -->
    </div>    ","null","","","","","","","","","","","",""
"","null","html-keyboard-response","168","220567","0.0-11.0-0.26","4k6s15Q25O","5d1ea7e579b687001af802c6","6617fad957f7c6a12ea16e26","6622ce27765850925d514890","fixation cross","null","","","","","","","","","","","",""
"","1118","html-keyboard-response","169","221685","0.0-11.0-1.26","4k6s15Q25O","5d1ea7e579b687001af802c6","6617fad957f7c6a12ea16e26","6622ce27765850925d514890","image grid"," ","","","","","Ontogenetic_Distractor_Threat_target","ongrid","2500","q","3","Ontogenetic","false","experimental"
"","null","html-keyboard-response","170","221846","0.0-11.0-2.26","4k6s15Q25O","5d1ea7e579b687001af802c6","6617fad957f7c6a12ea16e26","6622ce27765850925d514890","
    <div id=""grid-container"">
        <!-- Grid items will be dynamically added here -->
    </div>    ","null","","","","","","","","","","","",""
"","null","html-keyboard-response","171","222550","0.0-11.0-0.27","4k6s15Q25O","5d1ea7e579b687001af802c6","6617fad957f7c6a12ea16e26","6622ce27765850925d514890","fixation cross","null","","","","","","","","","","","",""
"","856","html-keyboard-response","172","223407","0.0-11.0-1.27","4k6s15Q25O","5d1ea7e579b687001af802c6","6617fad957f7c6a12ea16e26","6622ce27765850925d514890","image grid","p","","","","","Ontogenetic_Distractor_Nonthreat_target","ongrid","2500","p","4","Ontogenetic","true","experimental"
"","null","html-keyboard-response","173","223568","0.0-11.0-2.27","4k6s15Q25O","5d1ea7e579b687001af802c6","6617fad957f7c6a12ea16e26","6622ce27765850925d514890","
    <div id=""grid-container"">
        <!-- Grid items will be dynamically added here -->
    </div>    ","null","","","","","","","","","","","",""
"","null","html-keyboard-response","174","224293","0.0-11.0-0.28","4k6s15Q25O","5d1ea7e579b687001af802c6","6617fad957f7c6a12ea16e26","6622ce27765850925d514890","fixation cross","null","","","","","","","","","","","",""
"","1184","html-keyboard-response","175","225479","0.0-11.0-1.28","4k6s15Q25O","5d1ea7e579b687001af802c6","6617fad957f7c6a12ea16e26","6622ce27765850925d514890","image grid"," ","","","","","Ontogenetic_Distractor_Threat_target","ongrid","2500","q","6","Ontogenetic","false","experimental"
"","null","html-keyboard-response","176","225639","0.0-11.0-2.28","4k6s15Q25O","5d1ea7e579b687001af802c6","6617fad957f7c6a12ea16e26","6622ce27765850925d514890","
    <div id=""grid-container"">
        <!-- Grid items will be dynamically added here -->
    </div>    ","null","","","","","","","","","","","",""
"","null","html-keyboard-response","177","226356","0.0-11.0-0.29","4k6s15Q25O","5d1ea7e579b687001af802c6","6617fad957f7c6a12ea16e26","6622ce27765850925d514890","fixation cross","null","","","","","","","","","","","",""
"","753","html-keyboard-response","178","227110","0.0-11.0-1.29","4k6s15Q25O","5d1ea7e579b687001af802c6","6617fad957f7c6a12ea16e26","6622ce27765850925d514890","image grid","q","","","","","Ontogenetic_Distractor_Nonthreat_target","ongrid","2500","p","7","Ontogenetic","false","experimental"
"","null","html-keyboard-response","179","227266","0.0-11.0-2.29","4k6s15Q25O","5d1ea7e579b687001af802c6","6617fad957f7c6a12ea16e26","6622ce27765850925d514890","
    <div id=""grid-container"">
        <!-- Grid items will be dynamically added here -->
    </div>    ","null","","","","","","","","","","","",""
"","null","html-keyboard-response","180","227970","0.0-11.0-0.30","4k6s15Q25O","5d1ea7e579b687001af802c6","6617fad957f7c6a12ea16e26","6622ce27765850925d514890","fixation cross","null","","","","","","","","","","","",""
"","772","html-keyboard-response","181","228743","0.0-11.0-1.30","4k6s15Q25O","5d1ea7e579b687001af802c6","6617fad957f7c6a12ea16e26","6622ce27765850925d514890","image grid","p","","","","","Ontogenetic_Distractor_Nonthreat_target","ongrid","2500","p","4","Ontogenetic","true","experimental"
"","null","html-keyboard-response","182","228909","0.0-11.0-2.30","4k6s15Q25O","5d1ea7e579b687001af802c6","6617fad957f7c6a12ea16e26","6622ce27765850925d514890","
    <div id=""grid-container"">
        <!-- Grid items will be dynamically added here -->
    </div>    ","null","","","","","","","","","","","",""
"","null","html-keyboard-response","183","229628","0.0-11.0-0.31","4k6s15Q25O","5d1ea7e579b687001af802c6","6617fad957f7c6a12ea16e26","6622ce27765850925d514890","fixation cross","null","","","","","","","","","","","",""
"","1290","html-keyboard-response","184","230919","0.0-11.0-1.31","4k6s15Q25O","5d1ea7e579b687001af802c6","6617fad957f7c6a12ea16e26","6622ce27765850925d514890","image grid"," ","","","","","Ontogenetic_Distractor_Threat_target","ongrid","2500","q","9","Ontogenetic","false","experimental"
"","null","html-keyboard-response","185","231084","0.0-11.0-2.31","4k6s15Q25O","5d1ea7e579b687001af802c6","6617fad957f7c6a12ea16e26","6622ce27765850925d514890","
    <div id=""grid-container"">
        <!-- Grid items will be dynamically added here -->
    </div>    ","null","","","","","","","","","","","",""
"","null","html-keyboard-response","186","231801","0.0-11.0-0.32","4k6s15Q25O","5d1ea7e579b687001af802c6","6617fad957f7c6a12ea16e26","6622ce27765850925d514890","fixation cross","null","","","","","","","","","","","",""
"","613","html-keyboard-response","187","232414","0.0-11.0-1.32","4k6s15Q25O","5d1ea7e579b687001af802c6","6617fad957f7c6a12ea16e26","6622ce27765850925d514890","image grid","p","","","","","Ontogenetic_Distractor_Nonthreat_target","ongrid","2500","p","9","Ontogenetic","true","experimental"
"","null","html-keyboard-response","188","232566","0.0-11.0-2.32","4k6s15Q25O","5d1ea7e579b687001af802c6","6617fad957f7c6a12ea16e26","6622ce27765850925d514890","
    <div id=""grid-container"">
        <!-- Grid items will be dynamically added here -->
    </div>    ","null","","","","","","","","","","","",""
"","null","html-keyboard-response","189","233291","0.0-11.0-0.33","4k6s15Q25O","5d1ea7e579b687001af802c6","6617fad957f7c6a12ea16e26","6622ce27765850925d514890","fixation cross","null","","","","","","","","","","","",""
"","860","html-keyboard-response","190","234151","0.0-11.0-1.33","4k6s15Q25O","5d1ea7e579b687001af802c6","6617fad957f7c6a12ea16e26","6622ce27765850925d514890","image grid","q","","","","","Ontogenetic_Distractor_Nonthreat_target","ongrid","2500","p","4","Ontogenetic","false","experimental"
"","null","html-keyboard-response","191","234315","0.0-11.0-2.33","4k6s15Q25O","5d1ea7e579b687001af802c6","6617fad957f7c6a12ea16e26","6622ce27765850925d514890","
    <div id=""grid-container"">
        <!-- Grid items will be dynamically added here -->
    </div>    ","null","","","","","","","","","","","",""
"","null","html-keyboard-response","192","235031","0.0-11.0-0.34","4k6s15Q25O","5d1ea7e579b687001af802c6","6617fad957f7c6a12ea16e26","6622ce27765850925d514890","fixation cross","null","","","","","","","","","","","",""
"","1383","html-keyboard-response","193","236415","0.0-11.0-1.34","4k6s15Q25O","5d1ea7e579b687001af802c6","6617fad957f7c6a12ea16e26","6622ce27765850925d514890","image grid","p","","","","","Ontogenetic_Distractor_Threat_target","ongrid","2500","q","1","Ontogenetic","false","experimental"
"","null","html-keyboard-response","194","236577","0.0-11.0-2.34","4k6s15Q25O","5d1ea7e579b687001af802c6","6617fad957f7c6a12ea16e26","6622ce27765850925d514890","
    <div id=""grid-container"">
        <!-- Grid items will be dynamically added here -->
    </div>    ","null","","","","","","","","","","","",""
"","null","html-keyboard-response","195","237293","0.0-11.0-0.35","4k6s15Q25O","5d1ea7e579b687001af802c6","6617fad957f7c6a12ea16e26","6622ce27765850925d514890","fixation cross","null","","","","","","","","","","","",""
"","856","html-keyboard-response","196","238150","0.0-11.0-1.35","4k6s15Q25O","5d1ea7e579b687001af802c6","6617fad957f7c6a12ea16e26","6622ce27765850925d514890","image grid","q","","","","","Ontogenetic_Distractor_Nonthreat_target","ongrid","2500","p","7","Ontogenetic","false","experimental"
"","null","html-keyboard-response","197","238309","0.0-11.0-2.35","4k6s15Q25O","5d1ea7e579b687001af802c6","6617fad957f7c6a12ea16e26","6622ce27765850925d514890","
    <div id=""grid-container"">
        <!-- Grid items will be dynamically added here -->
    </div>    ","null","","","","","","","","","","","",""
"","null","html-keyboard-response","198","239014","0.0-11.0-0.36","4k6s15Q25O","5d1ea7e579b687001af802c6","6617fad957f7c6a12ea16e26","6622ce27765850925d514890","fixation cross","null","","","","","","","","","","","",""
"","1287","html-keyboard-response","199","240302","0.0-11.0-1.36","4k6s15Q25O","5d1ea7e579b687001af802c6","6617fad957f7c6a12ea16e26","6622ce27765850925d514890","image grid"," ","","","","","Ontogenetic_Distractor_Threat_target","ongrid","2500","q","3","Ontogenetic","false","experimental"
"","null","html-keyboard-response","200","240464","0.0-11.0-2.36","4k6s15Q25O","5d1ea7e579b687001af802c6","6617fad957f7c6a12ea16e26","6622ce27765850925d514890","
    <div id=""grid-container"">
        <!-- Grid items will be dynamically added here -->
    </div>    ","null","","","","","","","","","","","",""
"","null","html-keyboard-response","201","241167","0.0-11.0-0.37","4k6s15Q25O","5d1ea7e579b687001af802c6","6617fad957f7c6a12ea16e26","6622ce27765850925d514890","fixation cross","null","","","","","","","","","","","",""
"","893","html-keyboard-response","202","242049","0.0-11.0-1.37","4k6s15Q25O","5d1ea7e579b687001af802c6","6617fad957f7c6a12ea16e26","6622ce27765850925d514890","image grid","p","","","","","Ontogenetic_Distractor_Threat_target","ongrid","2500","q","6","Ontogenetic","false","experimental"
"","null","html-keyboard-response","203","242203","0.0-11.0-2.37","4k6s15Q25O","5d1ea7e579b687001af802c6","6617fad957f7c6a12ea16e26","6622ce27765850925d514890","
    <div id=""grid-container"">
        <!-- Grid items will be dynamically added here -->
    </div>    ","null","","","","","","","","","","","",""
"","null","html-keyboard-response","204","242922","0.0-11.0-0.38","4k6s15Q25O","5d1ea7e579b687001af802c6","6617fad957f7c6a12ea16e26","6622ce27765850925d514890","fixation cross","null","","","","","","","","","","","",""
"","976","html-keyboard-response","205","243899","0.0-11.0-1.38","4k6s15Q25O","5d1ea7e579b687001af802c6","6617fad957f7c6a12ea16e26","6622ce27765850925d514890","image grid","q","","","","","Ontogenetic_Distractor_Threat_target","ongrid","2500","q","2","Ontogenetic","true","experimental"
"","null","html-keyboard-response","206","244055","0.0-11.0-2.38","4k6s15Q25O","5d1ea7e579b687001af802c6","6617fad957f7c6a12ea16e26","6622ce27765850925d514890","
    <div id=""grid-container"">
        <!-- Grid items will be dynamically added here -->
    </div>    ","null","","","","","","","","","","","",""
"","null","html-keyboard-response","207","244775","0.0-11.0-0.39","4k6s15Q25O","5d1ea7e579b687001af802c6","6617fad957f7c6a12ea16e26","6622ce27765850925d514890","fixation cross","null","","","","","","","","","","","",""
"","922","html-keyboard-response","208","245698","0.0-11.0-1.39","4k6s15Q25O","5d1ea7e579b687001af802c6","6617fad957f7c6a12ea16e26","6622ce27765850925d514890","image grid","q","","","","","Ontogenetic_Distractor_Nonthreat_target","ongrid","2500","p","9","Ontogenetic","false","experimental"
"","null","html-keyboard-response","209","245853","0.0-11.0-2.39","4k6s15Q25O","5d1ea7e579b687001af802c6","6617fad957f7c6a12ea16e26","6622ce27765850925d514890","
    <div id=""grid-container"">
        <!-- Grid items will be dynamically added here -->
    </div>    ","null","","","","","","","","","","","",""
"","4122","html-keyboard-response","210","250211","0.0-12.0","4k6s15Q25O","5d1ea7e579b687001af802c6","6617fad957f7c6a12ea16e26","6622ce27765850925d514890","break screen"," ","","","","","","","","","","","",""
"","null","html-keyboard-response","211","252764","0.0-13.0-0.0","4k6s15Q25O","5d1ea7e579b687001af802c6","6617fad957f7c6a12ea16e26","6622ce27765850925d514890","fixation cross","null","","","","","","","","","","","",""
"","null","html-keyboard-response","212","253572","0.0-13.0-1.0","4k6s15Q25O","5d1ea7e579b687001af802c6","6617fad957f7c6a12ea16e26","6622ce27765850925d514890","
        <div id=""grid-container"">
        <!-- Grid items will be dynamically added here -->
    </div>    ","null","","","","","","","","","","","",""
"","830","html-keyboard-response","213","253603","0.0-13.0-2.0","4k6s15Q25O","5d1ea7e579b687001af802c6","6617fad957f7c6a12ea16e26","6622ce27765850925d514890","mask grid"," ","","","","","Ontogenetic_Distractor_notarget","onmask","800"," ","7","Ontogenetic","true","experimental"
"","null","html-keyboard-response","214","254306","0.0-13.0-0.1","4k6s15Q25O","5d1ea7e579b687001af802c6","6617fad957f7c6a12ea16e26","6622ce27765850925d514890","fixation cross","null","","","","","","","","","","","",""
"","null","html-keyboard-response","215","255115","0.0-13.0-1.1","4k6s15Q25O","5d1ea7e579b687001af802c6","6617fad957f7c6a12ea16e26","6622ce27765850925d514890","
        <div id=""grid-container"">
        <!-- Grid items will be dynamically added here -->
    </div>    ","null","","","","","","","","","","","",""
"","1166","html-keyboard-response","216","255482","0.0-13.0-2.1","4k6s15Q25O","5d1ea7e579b687001af802c6","6617fad957f7c6a12ea16e26","6622ce27765850925d514890","mask grid","p","","","","","Ontogenetic_Distractor_Threat_target","onmask","800","q","1","Ontogenetic","false","experimental"
"","null","html-keyboard-response","217","256197","0.0-13.0-0.2","4k6s15Q25O","5d1ea7e579b687001af802c6","6617fad957f7c6a12ea16e26","6622ce27765850925d514890","fixation cross","null","","","","","","","","","","","",""
"","646","html-keyboard-response","218","256843","0.0-13.0-1.2","4k6s15Q25O","5d1ea7e579b687001af802c6","6617fad957f7c6a12ea16e26","6622ce27765850925d514890","image grid","q","","","","","Ontogenetic_Distractor_Nonthreat_target","ongrid","800","p","2","Ontogenetic","false","experimental"
"","null","html-keyboard-response","219","257005","0.0-13.0-2.2","4k6s15Q25O","5d1ea7e579b687001af802c6","6617fad957f7c6a12ea16e26","6622ce27765850925d514890","
    <div id=""grid-container"">
        <!-- Grid items will be dynamically added here -->
    </div>    ","null","","","","","","","","","","","",""
"","null","html-keyboard-response","220","257711","0.0-13.0-0.3","4k6s15Q25O","5d1ea7e579b687001af802c6","6617fad957f7c6a12ea16e26","6622ce27765850925d514890","fixation cross","null","","","","","","","","","","","",""
"","null","html-keyboard-response","221","258520","0.0-13.0-1.3","4k6s15Q25O","5d1ea7e579b687001af802c6","6617fad957f7c6a12ea16e26","6622ce27765850925d514890","
        <div id=""grid-container"">
        <!-- Grid items will be dynamically added here -->
    </div>    ","null","","","","","","","","","","","",""
"","947","html-keyboard-response","222","258667","0.0-13.0-2.3","4k6s15Q25O","5d1ea7e579b687001af802c6","6617fad957f7c6a12ea16e26","6622ce27765850925d514890","mask grid","q","","","","","Ontogenetic_Distractor_Threat_target","onmask","800","q","1","Ontogenetic","true","experimental"
"","null","html-keyboard-response","223","259381","0.0-13.0-0.4","4k6s15Q25O","5d1ea7e579b687001af802c6","6617fad957f7c6a12ea16e26","6622ce27765850925d514890","fixation cross","null","","","","","","","","","","","",""
"","null","html-keyboard-response","224","260188","0.0-13.0-1.4","4k6s15Q25O","5d1ea7e579b687001af802c6","6617fad957f7c6a12ea16e26","6622ce27765850925d514890","
        <div id=""grid-container"">
        <!-- Grid items will be dynamically added here -->
    </div>    ","null","","","","","","","","","","","",""
"","810","html-keyboard-response","225","260198","0.0-13.0-2.4","4k6s15Q25O","5d1ea7e579b687001af802c6","6617fad957f7c6a12ea16e26","6622ce27765850925d514890","mask grid","p","","","","","Ontogenetic_Distractor_Nonthreat_target","onmask","800","p","1","Ontogenetic","true","experimental"
"","null","html-keyboard-response","226","260909","0.0-13.0-0.5","4k6s15Q25O","5d1ea7e579b687001af802c6","6617fad957f7c6a12ea16e26","6622ce27765850925d514890","fixation cross","null","","","","","","","","","","","",""
"","null","html-keyboard-response","227","261719","0.0-13.0-1.5","4k6s15Q25O","5d1ea7e579b687001af802c6","6617fad957f7c6a12ea16e26","6622ce27765850925d514890","
        <div id=""grid-container"">
        <!-- Grid items will be dynamically added here -->
    </div>    ","null","","","","","","","","","","","",""
"","3091","html-keyboard-response","228","264011","0.0-13.0-2.5","4k6s15Q25O","5d1ea7e579b687001af802c6","6617fad957f7c6a12ea16e26","6622ce27765850925d514890","mask grid"," ","","","","","Ontogenetic_Distractor_Threat_target","onmask","800","q","6","Ontogenetic","false","experimental"
"","null","html-keyboard-response","229","264731","0.0-13.0-0.6","4k6s15Q25O","5d1ea7e579b687001af802c6","6617fad957f7c6a12ea16e26","6622ce27765850925d514890","fixation cross","null","","","","","","","","","","","",""
"","790","html-keyboard-response","230","265522","0.0-13.0-1.6","4k6s15Q25O","5d1ea7e579b687001af802c6","6617fad957f7c6a12ea16e26","6622ce27765850925d514890","image grid","p","","","","","Ontogenetic_Distractor_Threat_target","ongrid","800","q","3","Ontogenetic","false","experimental"
"","null","html-keyboard-response","231","265682","0.0-13.0-2.6","4k6s15Q25O","5d1ea7e579b687001af802c6","6617fad957f7c6a12ea16e26","6622ce27765850925d514890","
    <div id=""grid-container"">
        <!-- Grid items will be dynamically added here -->
    </div>    ","null","","","","","","","","","","","",""
"","null","html-keyboard-response","232","266401","0.0-13.0-0.7","4k6s15Q25O","5d1ea7e579b687001af802c6","6617fad957f7c6a12ea16e26","6622ce27765850925d514890","fixation cross","null","","","","","","","","","","","",""
"","794","html-keyboard-response","233","267195","0.0-13.0-1.7","4k6s15Q25O","5d1ea7e579b687001af802c6","6617fad957f7c6a12ea16e26","6622ce27765850925d514890","image grid","q","","","","","Ontogenetic_Distractor_Threat_target","ongrid","800","q","9","Ontogenetic","true","experimental"
"","null","html-keyboard-response","234","267357","0.0-13.0-2.7","4k6s15Q25O","5d1ea7e579b687001af802c6","6617fad957f7c6a12ea16e26","6622ce27765850925d514890","
    <div id=""grid-container"">
        <!-- Grid items will be dynamically added here -->
    </div>    ","null","","","","","","","","","","","",""
"","null","html-keyboard-response","235","268063","0.0-13.0-0.8","4k6s15Q25O","5d1ea7e579b687001af802c6","6617fad957f7c6a12ea16e26","6622ce27765850925d514890","fixation cross","null","","","","","","","","","","","",""
"","626","html-keyboard-response","236","268690","0.0-13.0-1.8","4k6s15Q25O","5d1ea7e579b687001af802c6","6617fad957f7c6a12ea16e26","6622ce27765850925d514890","image grid"," ","","","","","Ontogenetic_Distractor_notarget","ongrid","800"," ","6","Ontogenetic","true","experimental"
"","null","html-keyboard-response","237","268845","0.0-13.0-2.8","4k6s15Q25O","5d1ea7e579b687001af802c6","6617fad957f7c6a12ea16e26","6622ce27765850925d514890","
    <div id=""grid-container"">
        <!-- Grid items will be dynamically added here -->
    </div>    ","null","","","","","","","","","","","",""
"","null","html-keyboard-response","238","269562","0.0-13.0-0.9","4k6s15Q25O","5d1ea7e579b687001af802c6","6617fad957f7c6a12ea16e26","6622ce27765850925d514890","fixation cross","null","","","","","","","","","","","",""
"","648","html-keyboard-response","239","270211","0.0-13.0-1.9","4k6s15Q25O","5d1ea7e579b687001af802c6","6617fad957f7c6a12ea16e26","6622ce27765850925d514890","image grid"," ","","","","","Ontogenetic_Distractor_Nonthreat_target","ongrid","800","p","3","Ontogenetic","false","experimental"
"","null","html-keyboard-response","240","270375","0.0-13.0-2.9","4k6s15Q25O","5d1ea7e579b687001af802c6","6617fad957f7c6a12ea16e26","6622ce27765850925d514890","
    <div id=""grid-container"">
        <!-- Grid items will be dynamically added here -->
    </div>    ","null","","","","","","","","","","","",""
"","null","html-keyboard-response","241","271084","0.0-13.0-0.10","4k6s15Q25O","5d1ea7e579b687001af802c6","6617fad957f7c6a12ea16e26","6622ce27765850925d514890","fixation cross","null","","","","","","","","","","","",""
"","null","html-keyboard-response","242","271896","0.0-13.0-1.10","4k6s15Q25O","5d1ea7e579b687001af802c6","6617fad957f7c6a12ea16e26","6622ce27765850925d514890","
        <div id=""grid-container"">
        <!-- Grid items will be dynamically added here -->
    </div>    ","null","","","","","","","","","","","",""
"","913","html-keyboard-response","243","272010","0.0-13.0-2.10","4k6s15Q25O","5d1ea7e579b687001af802c6","6617fad957f7c6a12ea16e26","6622ce27765850925d514890","mask grid"," ","","","","","Ontogenetic_Distractor_notarget","onmask","800"," ","5","Ontogenetic","true","experimental"
"","null","html-keyboard-response","244","272725","0.0-13.0-0.11","4k6s15Q25O","5d1ea7e579b687001af802c6","6617fad957f7c6a12ea16e26","6622ce27765850925d514890","fixation cross","null","","","","","","","","","","","",""
"","654","html-keyboard-response","245","273379","0.0-13.0-1.11","4k6s15Q25O","5d1ea7e579b687001af802c6","6617fad957f7c6a12ea16e26","6622ce27765850925d514890","image grid","q","","","","","Ontogenetic_Distractor_Nonthreat_target","ongrid","800","p","2","Ontogenetic","false","experimental"
"","null","html-keyboard-response","246","273539","0.0-13.0-2.11","4k6s15Q25O","5d1ea7e579b687001af802c6","6617fad957f7c6a12ea16e26","6622ce27765850925d514890","
    <div id=""grid-container"">
        <!-- Grid items will be dynamically added here -->
    </div>    ","null","","","","","","","","","","","",""
"","null","html-keyboard-response","247","274251","0.0-13.0-0.12","4k6s15Q25O","5d1ea7e579b687001af802c6","6617fad957f7c6a12ea16e26","6622ce27765850925d514890","fixation cross","null","","","","","","","","","","","",""
"","550","html-keyboard-response","248","274802","0.0-13.0-1.12","4k6s15Q25O","5d1ea7e579b687001af802c6","6617fad957f7c6a12ea16e26","6622ce27765850925d514890","image grid","p","","","","","Ontogenetic_Distractor_Threat_target","ongrid","800","q","8","Ontogenetic","false","experimental"
"","null","html-keyboard-response","249","274956","0.0-13.0-2.12","4k6s15Q25O","5d1ea7e579b687001af802c6","6617fad957f7c6a12ea16e26","6622ce27765850925d514890","
    <div id=""grid-container"">
        <!-- Grid items will be dynamically added here -->
    </div>    ","null","","","","","","","","","","","",""
"","null","html-keyboard-response","250","275670","0.0-13.0-0.13","4k6s15Q25O","5d1ea7e579b687001af802c6","6617fad957f7c6a12ea16e26","6622ce27765850925d514890","fixation cross","null","","","","","","","","","","","",""
"","636","html-keyboard-response","251","276306","0.0-13.0-1.13","4k6s15Q25O","5d1ea7e579b687001af802c6","6617fad957f7c6a12ea16e26","6622ce27765850925d514890","image grid","q","","","","","Ontogenetic_Distractor_Nonthreat_target","ongrid","800","p","8","Ontogenetic","false","experimental"
"","null","html-keyboard-response","252","276460","0.0-13.0-2.13","4k6s15Q25O","5d1ea7e579b687001af802c6","6617fad957f7c6a12ea16e26","6622ce27765850925d514890","
    <div id=""grid-container"">
        <!-- Grid items will be dynamically added here -->
    </div>    ","null","","","","","","","","","","","",""
"","null","html-keyboard-response","253","277167","0.0-13.0-0.14","4k6s15Q25O","5d1ea7e579b687001af802c6","6617fad957f7c6a12ea16e26","6622ce27765850925d514890","fixation cross","null","","","","","","","","","","","",""
"","563","html-keyboard-response","254","277730","0.0-13.0-1.14","4k6s15Q25O","5d1ea7e579b687001af802c6","6617fad957f7c6a12ea16e26","6622ce27765850925d514890","image grid"," ","","","","","Ontogenetic_Distractor_Threat_target","ongrid","800","q","6","Ontogenetic","false","experimental"
"","null","html-keyboard-response","255","277884","0.0-13.0-2.14","4k6s15Q25O","5d1ea7e579b687001af802c6","6617fad957f7c6a12ea16e26","6622ce27765850925d514890","
    <div id=""grid-container"">
        <!-- Grid items will be dynamically added here -->
    </div>    ","null","","","","","","","","","","","",""
"","null","html-keyboard-response","256","278597","0.0-13.0-0.15","4k6s15Q25O","5d1ea7e579b687001af802c6","6617fad957f7c6a12ea16e26","6622ce27765850925d514890","fixation cross","null","","","","","","","","","","","",""
"","492","html-keyboard-response","257","279090","0.0-13.0-1.15","4k6s15Q25O","5d1ea7e579b687001af802c6","6617fad957f7c6a12ea16e26","6622ce27765850925d514890","image grid","p","","","","","Ontogenetic_Distractor_Threat_target","ongrid","800","q","5","Ontogenetic","false","experimental"
"","null","html-keyboard-response","258","279251","0.0-13.0-2.15","4k6s15Q25O","5d1ea7e579b687001af802c6","6617fad957f7c6a12ea16e26","6622ce27765850925d514890","
    <div id=""grid-container"">
        <!-- Grid items will be dynamically added here -->
    </div>    ","null","","","","","","","","","","","",""
"","null","html-keyboard-response","259","279971","0.0-13.0-0.16","4k6s15Q25O","5d1ea7e579b687001af802c6","6617fad957f7c6a12ea16e26","6622ce27765850925d514890","fixation cross","null","","","","","","","","","","","",""
"","711","html-keyboard-response","260","280682","0.0-13.0-1.16","4k6s15Q25O","5d1ea7e579b687001af802c6","6617fad957f7c6a12ea16e26","6622ce27765850925d514890","image grid"," ","","","","","Ontogenetic_Distractor_Nonthreat_target","ongrid","800","p","9","Ontogenetic","false","experimental"
"","null","html-keyboard-response","261","280848","0.0-13.0-2.16","4k6s15Q25O","5d1ea7e579b687001af802c6","6617fad957f7c6a12ea16e26","6622ce27765850925d514890","
    <div id=""grid-container"">
        <!-- Grid items will be dynamically added here -->
    </div>    ","null","","","","","","","","","","","",""
"","null","html-keyboard-response","262","281552","0.0-13.0-0.17","4k6s15Q25O","5d1ea7e579b687001af802c6","6617fad957f7c6a12ea16e26","6622ce27765850925d514890","fixation cross","null","","","","","","","","","","","",""
"","627","html-keyboard-response","263","282180","0.0-13.0-1.17","4k6s15Q25O","5d1ea7e579b687001af802c6","6617fad957f7c6a12ea16e26","6622ce27765850925d514890","image grid","q","","","","","Ontogenetic_Distractor_Threat_target","ongrid","800","q","5","Ontogenetic","true","experimental"
"","null","html-keyboard-response","264","282341","0.0-13.0-2.17","4k6s15Q25O","5d1ea7e579b687001af802c6","6617fad957f7c6a12ea16e26","6622ce27765850925d514890","
    <div id=""grid-container"">
        <!-- Grid items will be dynamically added here -->
    </div>    ","null","","","","","","","","","","","",""
"","null","html-keyboard-response","265","283046","0.0-13.0-0.18","4k6s15Q25O","5d1ea7e579b687001af802c6","6617fad957f7c6a12ea16e26","6622ce27765850925d514890","fixation cross","null","","","","","","","","","","","",""
"","749","html-keyboard-response","266","283795","0.0-13.0-1.18","4k6s15Q25O","5d1ea7e579b687001af802c6","6617fad957f7c6a12ea16e26","6622ce27765850925d514890","image grid","p","","","","","Ontogenetic_Distractor_Nonthreat_target","ongrid","800","p","5","Ontogenetic","true","experimental"
"","null","html-keyboard-response","267","283950","0.0-13.0-2.18","4k6s15Q25O","5d1ea7e579b687001af802c6","6617fad957f7c6a12ea16e26","6622ce27765850925d514890","
    <div id=""grid-container"">
        <!-- Grid items will be dynamically added here -->
    </div>    ","null","","","","","","","","","","","",""
"","null","html-keyboard-response","268","284669","0.0-13.0-0.19","4k6s15Q25O","5d1ea7e579b687001af802c6","6617fad957f7c6a12ea16e26","6622ce27765850925d514890","fixation cross","null","","","","","","","","","","","",""
"","701","html-keyboard-response","269","285371","0.0-13.0-1.19","4k6s15Q25O","5d1ea7e579b687001af802c6","6617fad957f7c6a12ea16e26","6622ce27765850925d514890","image grid","p","","","","","Ontogenetic_Distractor_Threat_target","ongrid","800","q","8","Ontogenetic","false","experimental"
"","null","html-keyboard-response","270","285530","0.0-13.0-2.19","4k6s15Q25O","5d1ea7e579b687001af802c6","6617fad957f7c6a12ea16e26","6622ce27765850925d514890","
    <div id=""grid-container"">
        <!-- Grid items will be dynamically added here -->
    </div>    ","null","","","","","","","","","","","",""
"","null","html-keyboard-response","271","286246","0.0-13.0-0.20","4k6s15Q25O","5d1ea7e579b687001af802c6","6617fad957f7c6a12ea16e26","6622ce27765850925d514890","fixation cross","null","","","","","","","","","","","",""
"","637","html-keyboard-response","272","286883","0.0-13.0-1.20","4k6s15Q25O","5d1ea7e579b687001af802c6","6617fad957f7c6a12ea16e26","6622ce27765850925d514890","image grid"," ","","","","","Ontogenetic_Distractor_notarget","ongrid","800"," ","1","Ontogenetic","true","experimental"
"","null","html-keyboard-response","273","287042","0.0-13.0-2.20","4k6s15Q25O","5d1ea7e579b687001af802c6","6617fad957f7c6a12ea16e26","6622ce27765850925d514890","
    <div id=""grid-container"">
        <!-- Grid items will be dynamically added here -->
    </div>    ","null","","","","","","","","","","","",""
"","null","html-keyboard-response","274","287758","0.0-13.0-0.21","4k6s15Q25O","5d1ea7e579b687001af802c6","6617fad957f7c6a12ea16e26","6622ce27765850925d514890","fixation cross","null","","","","","","","","","","","",""
"","null","html-keyboard-response","275","288569","0.0-13.0-1.21","4k6s15Q25O","5d1ea7e579b687001af802c6","6617fad957f7c6a12ea16e26","6622ce27765850925d514890","
        <div id=""grid-container"">
        <!-- Grid items will be dynamically added here -->
    </div>    ","null","","","","","","","","","","","",""
"","905","html-keyboard-response","276","288674","0.0-13.0-2.21","4k6s15Q25O","5d1ea7e579b687001af802c6","6617fad957f7c6a12ea16e26","6622ce27765850925d514890","mask grid","q","","","","","Ontogenetic_Distractor_Threat_target","onmask","800","q","9","Ontogenetic","true","experimental"
"","null","html-keyboard-response","277","289400","0.0-13.0-0.22","4k6s15Q25O","5d1ea7e579b687001af802c6","6617fad957f7c6a12ea16e26","6622ce27765850925d514890","fixation cross","null","","","","","","","","","","","",""
"","796","html-keyboard-response","278","290197","0.0-13.0-1.22","4k6s15Q25O","5d1ea7e579b687001af802c6","6617fad957f7c6a12ea16e26","6622ce27765850925d514890","image grid","p","","","","","Ontogenetic_Distractor_Nonthreat_target","ongrid","800","p","7","Ontogenetic","true","experimental"
"","null","html-keyboard-response","279","290362","0.0-13.0-2.22","4k6s15Q25O","5d1ea7e579b687001af802c6","6617fad957f7c6a12ea16e26","6622ce27765850925d514890","
    <div id=""grid-container"">
        <!-- Grid items will be dynamically added here -->
    </div>    ","null","","","","","","","","","","","",""
"","null","html-keyboard-response","280","291068","0.0-13.0-0.23","4k6s15Q25O","5d1ea7e579b687001af802c6","6617fad957f7c6a12ea16e26","6622ce27765850925d514890","fixation cross","null","","","","","","","","","","","",""
"","null","html-keyboard-response","281","291882","0.0-13.0-1.23","4k6s15Q25O","5d1ea7e579b687001af802c6","6617fad957f7c6a12ea16e26","6622ce27765850925d514890","
        <div id=""grid-container"">
        <!-- Grid items will be dynamically added here -->
    </div>    ","null","","","","","","","","","","","",""
"","984","html-keyboard-response","282","292067","0.0-13.0-2.23","4k6s15Q25O","5d1ea7e579b687001af802c6","6617fad957f7c6a12ea16e26","6622ce27765850925d514890","mask grid","q","","","","","Ontogenetic_Distractor_Threat_target","onmask","800","q","9","Ontogenetic","true","experimental"
"","null","html-keyboard-response","283","292787","0.0-13.0-0.24","4k6s15Q25O","5d1ea7e579b687001af802c6","6617fad957f7c6a12ea16e26","6622ce27765850925d514890","fixation cross","null","","","","","","","","","","","",""
"","null","html-keyboard-response","284","293598","0.0-13.0-1.24","4k6s15Q25O","5d1ea7e579b687001af802c6","6617fad957f7c6a12ea16e26","6622ce27765850925d514890","
        <div id=""grid-container"">
        <!-- Grid items will be dynamically added here -->
    </div>    ","null","","","","","","","","","","","",""
"","1051","html-keyboard-response","285","293850","0.0-13.0-2.24","4k6s15Q25O","5d1ea7e579b687001af802c6","6617fad957f7c6a12ea16e26","6622ce27765850925d514890","mask grid","q","","","","","Ontogenetic_Distractor_Threat_target","onmask","800","q","6","Ontogenetic","true","experimental"
"","null","html-keyboard-response","286","294553","0.0-13.0-0.25","4k6s15Q25O","5d1ea7e579b687001af802c6","6617fad957f7c6a12ea16e26","6622ce27765850925d514890","fixation cross","null","","","","","","","","","","","",""
"","777","html-keyboard-response","287","295330","0.0-13.0-1.25","4k6s15Q25O","5d1ea7e579b687001af802c6","6617fad957f7c6a12ea16e26","6622ce27765850925d514890","image grid"," ","","","","","Ontogenetic_Distractor_Threat_target","ongrid","800","q","9","Ontogenetic","false","experimental"
"","null","html-keyboard-response","288","295493","0.0-13.0-2.25","4k6s15Q25O","5d1ea7e579b687001af802c6","6617fad957f7c6a12ea16e26","6622ce27765850925d514890","
    <div id=""grid-container"">
        <!-- Grid items will be dynamically added here -->
    </div>    ","null","","","","","","","","","","","",""
"","null","html-keyboard-response","289","296199","0.0-13.0-0.26","4k6s15Q25O","5d1ea7e579b687001af802c6","6617fad957f7c6a12ea16e26","6622ce27765850925d514890","fixation cross","null","","","","","","","","","","","",""
"","548","html-keyboard-response","290","296748","0.0-13.0-1.26","4k6s15Q25O","5d1ea7e579b687001af802c6","6617fad957f7c6a12ea16e26","6622ce27765850925d514890","image grid","q","","","","","Ontogenetic_Distractor_Threat_target","ongrid","800","q","5","Ontogenetic","true","experimental"
"","null","html-keyboard-response","291","296914","0.0-13.0-2.26","4k6s15Q25O","5d1ea7e579b687001af802c6","6617fad957f7c6a12ea16e26","6622ce27765850925d514890","
    <div id=""grid-container"">
        <!-- Grid items will be dynamically added here -->
    </div>    ","null","","","","","","","","","","","",""
"","null","html-keyboard-response","292","297630","0.0-13.0-0.27","4k6s15Q25O","5d1ea7e579b687001af802c6","6617fad957f7c6a12ea16e26","6622ce27765850925d514890","fixation cross","null","","","","","","","","","","","",""
"","540","html-keyboard-response","293","298171","0.0-13.0-1.27","4k6s15Q25O","5d1ea7e579b687001af802c6","6617fad957f7c6a12ea16e26","6622ce27765850925d514890","image grid","p","","","","","Ontogenetic_Distractor_Nonthreat_target","ongrid","800","p","9","Ontogenetic","true","experimental"
"","null","html-keyboard-response","294","298332","0.0-13.0-2.27","4k6s15Q25O","5d1ea7e579b687001af802c6","6617fad957f7c6a12ea16e26","6622ce27765850925d514890","
    <div id=""grid-container"">
        <!-- Grid items will be dynamically added here -->
    </div>    ","null","","","","","","","","","","","",""
"","null","html-keyboard-response","295","299051","0.0-13.0-0.28","4k6s15Q25O","5d1ea7e579b687001af802c6","6617fad957f7c6a12ea16e26","6622ce27765850925d514890","fixation cross","null","","","","","","","","","","","",""
"","775","html-keyboard-response","296","299826","0.0-13.0-1.28","4k6s15Q25O","5d1ea7e579b687001af802c6","6617fad957f7c6a12ea16e26","6622ce27765850925d514890","image grid","p","","","","","Ontogenetic_Distractor_Nonthreat_target","ongrid","800","p","8","Ontogenetic","true","experimental"
"","null","html-keyboard-response","297","299989","0.0-13.0-2.28","4k6s15Q25O","5d1ea7e579b687001af802c6","6617fad957f7c6a12ea16e26","6622ce27765850925d514890","
    <div id=""grid-container"">
        <!-- Grid items will be dynamically added here -->
    </div>    ","null","","","","","","","","","","","",""
"","null","html-keyboard-response","298","300706","0.0-13.0-0.29","4k6s15Q25O","5d1ea7e579b687001af802c6","6617fad957f7c6a12ea16e26","6622ce27765850925d514890","fixation cross","null","","","","","","","","","","","",""
"","672","html-keyboard-response","299","301378","0.0-13.0-1.29","4k6s15Q25O","5d1ea7e579b687001af802c6","6617fad957f7c6a12ea16e26","6622ce27765850925d514890","image grid","q","","","","","Ontogenetic_Distractor_Threat_target","ongrid","800","q","5","Ontogenetic","true","experimental"
"","null","html-keyboard-response","300","301532","0.0-13.0-2.29","4k6s15Q25O","5d1ea7e579b687001af802c6","6617fad957f7c6a12ea16e26","6622ce27765850925d514890","
    <div id=""grid-container"">
        <!-- Grid items will be dynamically added here -->
    </div>    ","null","","","","","","","","","","","",""
"","null","html-keyboard-response","301","302236","0.0-13.0-0.30","4k6s15Q25O","5d1ea7e579b687001af802c6","6617fad957f7c6a12ea16e26","6622ce27765850925d514890","fixation cross","null","","","","","","","","","","","",""
"","null","html-keyboard-response","302","303045","0.0-13.0-1.30","4k6s15Q25O","5d1ea7e579b687001af802c6","6617fad957f7c6a12ea16e26","6622ce27765850925d514890","
        <div id=""grid-container"">
        <!-- Grid items will be dynamically added here -->
    </div>    ","null","","","","","","","","","","","",""
"","811","html-keyboard-response","303","303056","0.0-13.0-2.30","4k6s15Q25O","5d1ea7e579b687001af802c6","6617fad957f7c6a12ea16e26","6622ce27765850925d514890","mask grid","q","","","","","Ontogenetic_Distractor_Nonthreat_target","onmask","800","p","4","Ontogenetic","false","experimental"
"","null","html-keyboard-response","304","303781","0.0-13.0-0.31","4k6s15Q25O","5d1ea7e579b687001af802c6","6617fad957f7c6a12ea16e26","6622ce27765850925d514890","fixation cross","null","","","","","","","","","","","",""
"","698","html-keyboard-response","305","304479","0.0-13.0-1.31","4k6s15Q25O","5d1ea7e579b687001af802c6","6617fad957f7c6a12ea16e26","6622ce27765850925d514890","image grid"," ","","","","","Ontogenetic_Distractor_Nonthreat_target","ongrid","800","p","6","Ontogenetic","false","experimental"
"","null","html-keyboard-response","306","304633","0.0-13.0-2.31","4k6s15Q25O","5d1ea7e579b687001af802c6","6617fad957f7c6a12ea16e26","6622ce27765850925d514890","
    <div id=""grid-container"">
        <!-- Grid items will be dynamically added here -->
    </div>    ","null","","","","","","","","","","","",""
"","null","html-keyboard-response","307","305349","0.0-13.0-0.32","4k6s15Q25O","5d1ea7e579b687001af802c6","6617fad957f7c6a12ea16e26","6622ce27765850925d514890","fixation cross","null","","","","","","","","","","","",""
"","626","html-keyboard-response","308","305975","0.0-13.0-1.32","4k6s15Q25O","5d1ea7e579b687001af802c6","6617fad957f7c6a12ea16e26","6622ce27765850925d514890","image grid","p","","","","","Ontogenetic_Distractor_Nonthreat_target","ongrid","800","p","7","Ontogenetic","true","experimental"
"","null","html-keyboard-response","309","306140","0.0-13.0-2.32","4k6s15Q25O","5d1ea7e579b687001af802c6","6617fad957f7c6a12ea16e26","6622ce27765850925d514890","
    <div id=""grid-container"">
        <!-- Grid items will be dynamically added here -->
    </div>    ","null","","","","","","","","","","","",""
"","null","html-keyboard-response","310","306857","0.0-13.0-0.33","4k6s15Q25O","5d1ea7e579b687001af802c6","6617fad957f7c6a12ea16e26","6622ce27765850925d514890","fixation cross","null","","","","","","","","","","","",""
"","782","html-keyboard-response","311","307639","0.0-13.0-1.33","4k6s15Q25O","5d1ea7e579b687001af802c6","6617fad957f7c6a12ea16e26","6622ce27765850925d514890","image grid","q","","","","","Ontogenetic_Distractor_Threat_target","ongrid","800","q","8","Ontogenetic","true","experimental"
"","null","html-keyboard-response","312","307795","0.0-13.0-2.33","4k6s15Q25O","5d1ea7e579b687001af802c6","6617fad957f7c6a12ea16e26","6622ce27765850925d514890","
    <div id=""grid-container"">
        <!-- Grid items will be dynamically added here -->
    </div>    ","null","","","","","","","","","","","",""
"","null","html-keyboard-response","313","308504","0.0-13.0-0.34","4k6s15Q25O","5d1ea7e579b687001af802c6","6617fad957f7c6a12ea16e26","6622ce27765850925d514890","fixation cross","null","","","","","","","","","","","",""
"","null","html-keyboard-response","314","309318","0.0-13.0-1.34","4k6s15Q25O","5d1ea7e579b687001af802c6","6617fad957f7c6a12ea16e26","6622ce27765850925d514890","
        <div id=""grid-container"">
        <!-- Grid items will be dynamically added here -->
    </div>    ","null","","","","","","","","","","","",""
"","1042","html-keyboard-response","315","309560","0.0-13.0-2.34","4k6s15Q25O","5d1ea7e579b687001af802c6","6617fad957f7c6a12ea16e26","6622ce27765850925d514890","mask grid"," ","","","","","Ontogenetic_Distractor_Nonthreat_target","onmask","800","p","1","Ontogenetic","false","experimental"
"","null","html-keyboard-response","316","310272","0.0-13.0-0.35","4k6s15Q25O","5d1ea7e579b687001af802c6","6617fad957f7c6a12ea16e26","6622ce27765850925d514890","fixation cross","null","","","","","","","","","","","",""
"","559","html-keyboard-response","317","310832","0.0-13.0-1.35","4k6s15Q25O","5d1ea7e579b687001af802c6","6617fad957f7c6a12ea16e26","6622ce27765850925d514890","image grid","p","","","","","Ontogenetic_Distractor_Nonthreat_target","ongrid","800","p","4","Ontogenetic","true","experimental"
"","null","html-keyboard-response","318","310991","0.0-13.0-2.35","4k6s15Q25O","5d1ea7e579b687001af802c6","6617fad957f7c6a12ea16e26","6622ce27765850925d514890","
    <div id=""grid-container"">
        <!-- Grid items will be dynamically added here -->
    </div>    ","null","","","","","","","","","","","",""
"","null","html-keyboard-response","319","311700","0.0-13.0-0.36","4k6s15Q25O","5d1ea7e579b687001af802c6","6617fad957f7c6a12ea16e26","6622ce27765850925d514890","fixation cross","null","","","","","","","","","","","",""
"","675","html-keyboard-response","320","312375","0.0-13.0-1.36","4k6s15Q25O","5d1ea7e579b687001af802c6","6617fad957f7c6a12ea16e26","6622ce27765850925d514890","image grid","q","","","","","Ontogenetic_Distractor_Nonthreat_target","ongrid","800","p","6","Ontogenetic","false","experimental"
"","null","html-keyboard-response","321","312543","0.0-13.0-2.36","4k6s15Q25O","5d1ea7e579b687001af802c6","6617fad957f7c6a12ea16e26","6622ce27765850925d514890","
    <div id=""grid-container"">
        <!-- Grid items will be dynamically added here -->
    </div>    ","null","","","","","","","","","","","",""
"","null","html-keyboard-response","322","313246","0.0-13.0-0.37","4k6s15Q25O","5d1ea7e579b687001af802c6","6617fad957f7c6a12ea16e26","6622ce27765850925d514890","fixation cross","null","","","","","","","","","","","",""
"","649","html-keyboard-response","323","313895","0.0-13.0-1.37","4k6s15Q25O","5d1ea7e579b687001af802c6","6617fad957f7c6a12ea16e26","6622ce27765850925d514890","image grid","p","","","","","Ontogenetic_Distractor_Nonthreat_target","ongrid","800","p","8","Ontogenetic","true","experimental"
"","null","html-keyboard-response","324","314055","0.0-13.0-2.37","4k6s15Q25O","5d1ea7e579b687001af802c6","6617fad957f7c6a12ea16e26","6622ce27765850925d514890","
    <div id=""grid-container"">
        <!-- Grid items will be dynamically added here -->
    </div>    ","null","","","","","","","","","","","",""
"","null","html-keyboard-response","325","314776","0.0-13.0-0.38","4k6s15Q25O","5d1ea7e579b687001af802c6","6617fad957f7c6a12ea16e26","6622ce27765850925d514890","fixation cross","null","","","","","","","","","","","",""
"","463","html-keyboard-response","326","315240","0.0-13.0-1.38","4k6s15Q25O","5d1ea7e579b687001af802c6","6617fad957f7c6a12ea16e26","6622ce27765850925d514890","image grid","p","","","","","Ontogenetic_Distractor_Threat_target","ongrid","800","q","6","Ontogenetic","false","experimental"
"","null","html-keyboard-response","327","315398","0.0-13.0-2.38","4k6s15Q25O","5d1ea7e579b687001af802c6","6617fad957f7c6a12ea16e26","6622ce27765850925d514890","
    <div id=""grid-container"">
        <!-- Grid items will be dynamically added here -->
    </div>    ","null","","","","","","","","","","","",""
"","null","html-keyboard-response","328","316103","0.0-13.0-0.39","4k6s15Q25O","5d1ea7e579b687001af802c6","6617fad957f7c6a12ea16e26","6622ce27765850925d514890","fixation cross","null","","","","","","","","","","","",""
"","616","html-keyboard-response","329","316720","0.0-13.0-1.39","4k6s15Q25O","5d1ea7e579b687001af802c6","6617fad957f7c6a12ea16e26","6622ce27765850925d514890","image grid","q","","","","","Ontogenetic_Distractor_Nonthreat_target","ongrid","800","p","2","Ontogenetic","false","experimental"
"","null","html-keyboard-response","330","316881","0.0-13.0-2.39","4k6s15Q25O","5d1ea7e579b687001af802c6","6617fad957f7c6a12ea16e26","6622ce27765850925d514890","
    <div id=""grid-container"">
        <!-- Grid items will be dynamically added here -->
    </div>    ","null","","","","","","","","","","","",""
"","1923","html-keyboard-response","331","319008","0.0-14.0","4k6s15Q25O","5d1ea7e579b687001af802c6","6617fad957f7c6a12ea16e26","6622ce27765850925d514890","break screen"," ","","","","","","","","","","","",""
"","null","html-keyboard-response","332","321531","0.0-15.0-0.0","4k6s15Q25O","5d1ea7e579b687001af802c6","6617fad957f7c6a12ea16e26","6622ce27765850925d514890","fixation cross","null","","","","","","","","","","","",""
"","1019","html-keyboard-response","333","322551","0.0-15.0-1.0","4k6s15Q25O","5d1ea7e579b687001af802c6","6617fad957f7c6a12ea16e26","6622ce27765850925d514890","image grid"," ","","","","","Phylogenetic_Distractor_Threat_target","ongrid","2500","q","9","Phylogenetic","false","experimental"
"","null","html-keyboard-response","334","322715","0.0-15.0-2.0","4k6s15Q25O","5d1ea7e579b687001af802c6","6617fad957f7c6a12ea16e26","6622ce27765850925d514890","
    <div id=""grid-container"">
        <!-- Grid items will be dynamically added here -->
    </div>    ","null","","","","","","","","","","","",""
"","null","html-keyboard-response","335","323421","0.0-15.0-0.1","4k6s15Q25O","5d1ea7e579b687001af802c6","6617fad957f7c6a12ea16e26","6622ce27765850925d514890","fixation cross","null","","","","","","","","","","","",""
"","586","html-keyboard-response","336","324007","0.0-15.0-1.1","4k6s15Q25O","5d1ea7e579b687001af802c6","6617fad957f7c6a12ea16e26","6622ce27765850925d514890","image grid"," ","","","","","Phylogenetic_Distractor_Nonthreat_target","ongrid","2500","p","8","Phylogenetic","false","experimental"
"","null","html-keyboard-response","337","324167","0.0-15.0-2.1","4k6s15Q25O","5d1ea7e579b687001af802c6","6617fad957f7c6a12ea16e26","6622ce27765850925d514890","
    <div id=""grid-container"">
        <!-- Grid items will be dynamically added here -->
    </div>    ","null","","","","","","","","","","","",""
"","null","html-keyboard-response","338","324884","0.0-15.0-0.2","4k6s15Q25O","5d1ea7e579b687001af802c6","6617fad957f7c6a12ea16e26","6622ce27765850925d514890","fixation cross","null","","","","","","","","","","","",""
"","571","html-keyboard-response","339","325456","0.0-15.0-1.2","4k6s15Q25O","5d1ea7e579b687001af802c6","6617fad957f7c6a12ea16e26","6622ce27765850925d514890","image grid","q","","","","","Phylogenetic_Distractor_Nonthreat_target","ongrid","2500","p","1","Phylogenetic","false","experimental"
"","null","html-keyboard-response","340","325617","0.0-15.0-2.2","4k6s15Q25O","5d1ea7e579b687001af802c6","6617fad957f7c6a12ea16e26","6622ce27765850925d514890","
    <div id=""grid-container"">
        <!-- Grid items will be dynamically added here -->
    </div>    ","null","","","","","","","","","","","",""
"","null","html-keyboard-response","341","326322","0.0-15.0-0.3","4k6s15Q25O","5d1ea7e579b687001af802c6","6617fad957f7c6a12ea16e26","6622ce27765850925d514890","fixation cross","null","","","","","","","","","","","",""
"","621","html-keyboard-response","342","326943","0.0-15.0-1.3","4k6s15Q25O","5d1ea7e579b687001af802c6","6617fad957f7c6a12ea16e26","6622ce27765850925d514890","image grid","p","","","","","Phylogenetic_Distractor_Nonthreat_target","ongrid","2500","p","3","Phylogenetic","true","experimental"
"","null","html-keyboard-response","343","327097","0.0-15.0-2.3","4k6s15Q25O","5d1ea7e579b687001af802c6","6617fad957f7c6a12ea16e26","6622ce27765850925d514890","
    <div id=""grid-container"">
        <!-- Grid items will be dynamically added here -->
    </div>    ","null","","","","","","","","","","","",""
"","null","html-keyboard-response","344","327803","0.0-15.0-0.4","4k6s15Q25O","5d1ea7e579b687001af802c6","6617fad957f7c6a12ea16e26","6622ce27765850925d514890","fixation cross","null","","","","","","","","","","","",""
"","868","html-keyboard-response","345","328672","0.0-15.0-1.4","4k6s15Q25O","5d1ea7e579b687001af802c6","6617fad957f7c6a12ea16e26","6622ce27765850925d514890","image grid"," ","","","","","Phylogenetic_Distractor_Nonthreat_target","ongrid","2500","p","8","Phylogenetic","false","experimental"
"","null","html-keyboard-response","346","328832","0.0-15.0-2.4","4k6s15Q25O","5d1ea7e579b687001af802c6","6617fad957f7c6a12ea16e26","6622ce27765850925d514890","
    <div id=""grid-container"">
        <!-- Grid items will be dynamically added here -->
    </div>    ","null","","","","","","","","","","","",""
"","null","html-keyboard-response","347","329539","0.0-15.0-0.5","4k6s15Q25O","5d1ea7e579b687001af802c6","6617fad957f7c6a12ea16e26","6622ce27765850925d514890","fixation cross","null","","","","","","","","","","","",""
"","853","html-keyboard-response","348","330392","0.0-15.0-1.5","4k6s15Q25O","5d1ea7e579b687001af802c6","6617fad957f7c6a12ea16e26","6622ce27765850925d514890","image grid","q","","","","","Phylogenetic_Distractor_Threat_target","ongrid","2500","q","4","Phylogenetic","true","experimental"
"","null","html-keyboard-response","349","330555","0.0-15.0-2.5","4k6s15Q25O","5d1ea7e579b687001af802c6","6617fad957f7c6a12ea16e26","6622ce27765850925d514890","
    <div id=""grid-container"">
        <!-- Grid items will be dynamically added here -->
    </div>    ","null","","","","","","","","","","","",""
"","null","html-keyboard-response","350","331273","0.0-15.0-0.6","4k6s15Q25O","5d1ea7e579b687001af802c6","6617fad957f7c6a12ea16e26","6622ce27765850925d514890","fixation cross","null","","","","","","","","","","","",""
"","1501","html-keyboard-response","351","332775","0.0-15.0-1.6","4k6s15Q25O","5d1ea7e579b687001af802c6","6617fad957f7c6a12ea16e26","6622ce27765850925d514890","image grid"," ","","","","","Phylogenetic_Distractor_Nonthreat_target","ongrid","2500","p","2","Phylogenetic","false","experimental"
"","null","html-keyboard-response","352","332938","0.0-15.0-2.6","4k6s15Q25O","5d1ea7e579b687001af802c6","6617fad957f7c6a12ea16e26","6622ce27765850925d514890","
    <div id=""grid-container"">
        <!-- Grid items will be dynamically added here -->
    </div>    ","null","","","","","","","","","","","",""
"","null","html-keyboard-response","353","333647","0.0-15.0-0.7","4k6s15Q25O","5d1ea7e579b687001af802c6","6617fad957f7c6a12ea16e26","6622ce27765850925d514890","fixation cross","null","","","","","","","","","","","",""
"","951","html-keyboard-response","354","334599","0.0-15.0-1.7","4k6s15Q25O","5d1ea7e579b687001af802c6","6617fad957f7c6a12ea16e26","6622ce27765850925d514890","image grid","p","","","","","Phylogenetic_Distractor_Threat_target","ongrid","2500","q","1","Phylogenetic","false","experimental"
"","null","html-keyboard-response","355","334760","0.0-15.0-2.7","4k6s15Q25O","5d1ea7e579b687001af802c6","6617fad957f7c6a12ea16e26","6622ce27765850925d514890","
    <div id=""grid-container"">
        <!-- Grid items will be dynamically added here -->
    </div>    ","null","","","","","","","","","","","",""
"","null","html-keyboard-response","356","335477","0.0-15.0-0.8","4k6s15Q25O","5d1ea7e579b687001af802c6","6617fad957f7c6a12ea16e26","6622ce27765850925d514890","fixation cross","null","","","","","","","","","","","",""
"","857","html-keyboard-response","357","336335","0.0-15.0-1.8","4k6s15Q25O","5d1ea7e579b687001af802c6","6617fad957f7c6a12ea16e26","6622ce27765850925d514890","image grid","p","","","","","Phylogenetic_Distractor_Nonthreat_target","ongrid","2500","p","2","Phylogenetic","true","experimental"
"","null","html-keyboard-response","358","336500","0.0-15.0-2.8","4k6s15Q25O","5d1ea7e579b687001af802c6","6617fad957f7c6a12ea16e26","6622ce27765850925d514890","
    <div id=""grid-container"">
        <!-- Grid items will be dynamically added here -->
    </div>    ","null","","","","","","","","","","","",""
"","null","html-keyboard-response","359","337216","0.0-15.0-0.9","4k6s15Q25O","5d1ea7e579b687001af802c6","6617fad957f7c6a12ea16e26","6622ce27765850925d514890","fixation cross","null","","","","","","","","","","","",""
"","685","html-keyboard-response","360","337902","0.0-15.0-1.9","4k6s15Q25O","5d1ea7e579b687001af802c6","6617fad957f7c6a12ea16e26","6622ce27765850925d514890","image grid","p","","","","","Phylogenetic_Distractor_Nonthreat_target","ongrid","2500","p","2","Phylogenetic","true","experimental"
"","null","html-keyboard-response","361","338059","0.0-15.0-2.9","4k6s15Q25O","5d1ea7e579b687001af802c6","6617fad957f7c6a12ea16e26","6622ce27765850925d514890","
    <div id=""grid-container"">
        <!-- Grid items will be dynamically added here -->
    </div>    ","null","","","","","","","","","","","",""
"","null","html-keyboard-response","362","338775","0.0-15.0-0.10","4k6s15Q25O","5d1ea7e579b687001af802c6","6617fad957f7c6a12ea16e26","6622ce27765850925d514890","fixation cross","null","","","","","","","","","","","",""
"","880","html-keyboard-response","363","339656","0.0-15.0-1.10","4k6s15Q25O","5d1ea7e579b687001af802c6","6617fad957f7c6a12ea16e26","6622ce27765850925d514890","image grid","q","","","","","Phylogenetic_Distractor_Threat_target","ongrid","2500","q","3","Phylogenetic","true","experimental"
"","null","html-keyboard-response","364","339817","0.0-15.0-2.10","4k6s15Q25O","5d1ea7e579b687001af802c6","6617fad957f7c6a12ea16e26","6622ce27765850925d514890","
    <div id=""grid-container"">
        <!-- Grid items will be dynamically added here -->
    </div>    ","null","","","","","","","","","","","",""
"","null","html-keyboard-response","365","340528","0.0-15.0-0.11","4k6s15Q25O","5d1ea7e579b687001af802c6","6617fad957f7c6a12ea16e26","6622ce27765850925d514890","fixation cross","null","","","","","","","","","","","",""
"","767","html-keyboard-response","366","341296","0.0-15.0-1.11","4k6s15Q25O","5d1ea7e579b687001af802c6","6617fad957f7c6a12ea16e26","6622ce27765850925d514890","image grid"," ","","","","","Phylogenetic_Distractor_Threat_target","ongrid","2500","q","4","Phylogenetic","false","experimental"
"","null","html-keyboard-response","367","341456","0.0-15.0-2.11","4k6s15Q25O","5d1ea7e579b687001af802c6","6617fad957f7c6a12ea16e26","6622ce27765850925d514890","
    <div id=""grid-container"">
        <!-- Grid items will be dynamically added here -->
    </div>    ","null","","","","","","","","","","","",""
"","null","html-keyboard-response","368","342160","0.0-15.0-0.12","4k6s15Q25O","5d1ea7e579b687001af802c6","6617fad957f7c6a12ea16e26","6622ce27765850925d514890","fixation cross","null","","","","","","","","","","","",""
"","1104","html-keyboard-response","369","343264","0.0-15.0-1.12","4k6s15Q25O","5d1ea7e579b687001af802c6","6617fad957f7c6a12ea16e26","6622ce27765850925d514890","image grid","q","","","","","Phylogenetic_Distractor_Nonthreat_target","ongrid","2500","p","7","Phylogenetic","false","experimental"
"","null","html-keyboard-response","370","343426","0.0-15.0-2.12","4k6s15Q25O","5d1ea7e579b687001af802c6","6617fad957f7c6a12ea16e26","6622ce27765850925d514890","
    <div id=""grid-container"">
        <!-- Grid items will be dynamically added here -->
