"success","rt","trial_type","trial_index","time_elapsed","internal_node_id","unique_identifier","subject_id","study_id","session_id","stimulus","response","timeout","failed_images","failed_audio","failed_video","task","time_manipulation","respondedwhen","correctresponse","targetimagelocation","blocktype","correct","roundtype"
"true","1571","fullscreen","0","2580","0.0-0.0","AnlQSU3nB6","5bc79ce8f653a50001ce430e","6617fad957f7c6a12ea16e26","6622c275765850925d5146d7","","","","","","","","","","","","","",""
"","11370","html-keyboard-response","1","13951","0.0-1.0","AnlQSU3nB6","5bc79ce8f653a50001ce430e","6617fad957f7c6a12ea16e26","6622c275765850925d5146d7","instruction screen 0"," ","","","","","","","","","","","",""
"true","","preload","2","18749","0.0-2.0","AnlQSU3nB6","5bc79ce8f653a50001ce430e","6617fad957f7c6a12ea16e26","6622c275765850925d5146d7","","","false","[]","[]","[]","","","","","","","",""
"","40680","html-keyboard-response","3","59430","0.0-3.0","AnlQSU3nB6","5bc79ce8f653a50001ce430e","6617fad957f7c6a12ea16e26","6622c275765850925d5146d7","instruction screen 1"," ","","","","","","","","","","","",""
"","15454","html-keyboard-response","4","74886","0.0-4.0","AnlQSU3nB6","5bc79ce8f653a50001ce430e","6617fad957f7c6a12ea16e26","6622c275765850925d5146d7","instruction screen 2","q","","","","","","","","","","","",""
"","5125","html-keyboard-response","5","80033","0.0-5.0","AnlQSU3nB6","5bc79ce8f653a50001ce430e","6617fad957f7c6a12ea16e26","6622c275765850925d5146d7","instruction screen 3","p","","","","","","","","","","","",""
"","8326","html-keyboard-response","6","88378","0.0-6.0","AnlQSU3nB6","5bc79ce8f653a50001ce430e","6617fad957f7c6a12ea16e26","6622c275765850925d5146d7","instruction screen 4"," ","","","","","","","","","","","",""
"","8364","html-keyboard-response","7","96763","0.0-7.0","AnlQSU3nB6","5bc79ce8f653a50001ce430e","6617fad957f7c6a12ea16e26","6622c275765850925d5146d7","instruction screen 5"," ","","","","","","","","","","","",""
"","null","html-keyboard-response","8","97288","0.0-8.0","AnlQSU3nB6","5bc79ce8f653a50001ce430e","6617fad957f7c6a12ea16e26","6622c275765850925d5146d7","fixation cross","null","","","","","","","","","","","",""
"","null","html-keyboard-response","9","97802","0.0-9.0-0.0","AnlQSU3nB6","5bc79ce8f653a50001ce430e","6617fad957f7c6a12ea16e26","6622c275765850925d5146d7","fixation cross","null","","","","","","","","","","","",""
"","1369","html-keyboard-response","10","99171","0.0-9.0-1.0","AnlQSU3nB6","5bc79ce8f653a50001ce430e","6617fad957f7c6a12ea16e26","6622c275765850925d5146d7","image grid"," ","","","","","Phylogenetic_Distractor_Threat_target","3000","ongrid","q","7","Phylogenetic","false","practice"
"","null","html-keyboard-response","11","99329","0.0-9.0-2.0","AnlQSU3nB6","5bc79ce8f653a50001ce430e","6617fad957f7c6a12ea16e26","6622c275765850925d5146d7","
    <div id=""grid-container"">
        <!-- Grid items will be dynamically added here -->
    </div>    ","null","","","","","","","","","","","",""
"","null","html-keyboard-response","12","100539","0.0-9.0-3.0","AnlQSU3nB6","5bc79ce8f653a50001ce430e","6617fad957f7c6a12ea16e26","6622c275765850925d5146d7","feedback screen","null","","","","","","","","","","","",""
"","null","html-keyboard-response","13","101053","0.0-9.0-0.1","AnlQSU3nB6","5bc79ce8f653a50001ce430e","6617fad957f7c6a12ea16e26","6622c275765850925d5146d7","fixation cross","null","","","","","","","","","","","",""
"","null","html-keyboard-response","14","103958","0.0-9.0-1.1","AnlQSU3nB6","5bc79ce8f653a50001ce430e","6617fad957f7c6a12ea16e26","6622c275765850925d5146d7","
        <div id=""grid-container"">
        <!-- Grid items will be dynamically added here -->
    </div>    ","null","","","","","","","","","","","",""
"","2900","html-keyboard-response","15","108968","0.0-9.0-2.1","AnlQSU3nB6","5bc79ce8f653a50001ce430e","6617fad957f7c6a12ea16e26","6622c275765850925d5146d7","mask grid","null","","","","","Ontogenetic_Distractor_Nonthreat_target","2900","onmask","p","7","Phylogenetic","false","practice"
"","null","html-keyboard-response","16","110180","0.0-9.0-3.1","AnlQSU3nB6","5bc79ce8f653a50001ce430e","6617fad957f7c6a12ea16e26","6622c275765850925d5146d7","feedback screen","null","","","","","","","","","","","",""
"","null","html-keyboard-response","17","110694","0.0-9.0-0.2","AnlQSU3nB6","5bc79ce8f653a50001ce430e","6617fad957f7c6a12ea16e26","6622c275765850925d5146d7","fixation cross","null","","","","","","","","","","","",""
"","1399","html-keyboard-response","18","112094","0.0-9.0-1.2","AnlQSU3nB6","5bc79ce8f653a50001ce430e","6617fad957f7c6a12ea16e26","6622c275765850925d5146d7","image grid","q","","","","","Ontogenetic_Distractor_Threat_target","2800","ongrid","q","7","Phylogenetic","true","practice"
"","null","html-keyboard-response","19","112250","0.0-9.0-2.2","AnlQSU3nB6","5bc79ce8f653a50001ce430e","6617fad957f7c6a12ea16e26","6622c275765850925d5146d7","
    <div id=""grid-container"">
        <!-- Grid items will be dynamically added here -->
    </div>    ","null","","","","","","","","","","","",""
"","null","html-keyboard-response","20","113474","0.0-9.0-3.2","AnlQSU3nB6","5bc79ce8f653a50001ce430e","6617fad957f7c6a12ea16e26","6622c275765850925d5146d7","feedback screen","null","","","","","","","","","","","",""
"","null","html-keyboard-response","21","113989","0.0-9.0-0.3","AnlQSU3nB6","5bc79ce8f653a50001ce430e","6617fad957f7c6a12ea16e26","6622c275765850925d5146d7","fixation cross","null","","","","","","","","","","","",""
"","2696","html-keyboard-response","22","116685","0.0-9.0-1.3","AnlQSU3nB6","5bc79ce8f653a50001ce430e","6617fad957f7c6a12ea16e26","6622c275765850925d5146d7","image grid"," ","","","","","Phylogenetic_Distractor_Threat_target","2700","ongrid","q","4","Phylogenetic","false","practice"
"","null","html-keyboard-response","23","116844","0.0-9.0-2.3","AnlQSU3nB6","5bc79ce8f653a50001ce430e","6617fad957f7c6a12ea16e26","6622c275765850925d5146d7","
    <div id=""grid-container"">
        <!-- Grid items will be dynamically added here -->
    </div>    ","null","","","","","","","","","","","",""
"","null","html-keyboard-response","24","118061","0.0-9.0-3.3","AnlQSU3nB6","5bc79ce8f653a50001ce430e","6617fad957f7c6a12ea16e26","6622c275765850925d5146d7","feedback screen","null","","","","","","","","","","","",""
"","null","html-keyboard-response","25","118573","0.0-9.0-0.4","AnlQSU3nB6","5bc79ce8f653a50001ce430e","6617fad957f7c6a12ea16e26","6622c275765850925d5146d7","fixation cross","null","","","","","","","","","","","",""
"","1737","html-keyboard-response","26","120310","0.0-9.0-1.4","AnlQSU3nB6","5bc79ce8f653a50001ce430e","6617fad957f7c6a12ea16e26","6622c275765850925d5146d7","image grid","q","","","","","Phylogenetic_Distractor_Threat_target","2600","ongrid","q","8","Phylogenetic","true","practice"
"","null","html-keyboard-response","27","120469","0.0-9.0-2.4","AnlQSU3nB6","5bc79ce8f653a50001ce430e","6617fad957f7c6a12ea16e26","6622c275765850925d5146d7","
    <div id=""grid-container"">
        <!-- Grid items will be dynamically added here -->
    </div>    ","null","","","","","","","","","","","",""
"","null","html-keyboard-response","28","121681","0.0-9.0-3.4","AnlQSU3nB6","5bc79ce8f653a50001ce430e","6617fad957f7c6a12ea16e26","6622c275765850925d5146d7","feedback screen","null","","","","","","","","","","","",""
"","null","html-keyboard-response","29","122196","0.0-9.0-0.5","AnlQSU3nB6","5bc79ce8f653a50001ce430e","6617fad957f7c6a12ea16e26","6622c275765850925d5146d7","fixation cross","null","","","","","","","","","","","",""
"","1021","html-keyboard-response","30","123218","0.0-9.0-1.5","AnlQSU3nB6","5bc79ce8f653a50001ce430e","6617fad957f7c6a12ea16e26","6622c275765850925d5146d7","image grid","p","","","","","Ontogenetic_Distractor_Nonthreat_target","2500","ongrid","p","5","Phylogenetic","true","practice"
"","null","html-keyboard-response","31","123380","0.0-9.0-2.5","AnlQSU3nB6","5bc79ce8f653a50001ce430e","6617fad957f7c6a12ea16e26","6622c275765850925d5146d7","
    <div id=""grid-container"">
        <!-- Grid items will be dynamically added here -->
    </div>    ","null","","","","","","","","","","","",""
"","null","html-keyboard-response","32","124595","0.0-9.0-3.5","AnlQSU3nB6","5bc79ce8f653a50001ce430e","6617fad957f7c6a12ea16e26","6622c275765850925d5146d7","feedback screen","null","","","","","","","","","","","",""
"","null","html-keyboard-response","33","125105","0.0-9.0-0.6","AnlQSU3nB6","5bc79ce8f653a50001ce430e","6617fad957f7c6a12ea16e26","6622c275765850925d5146d7","fixation cross","null","","","","","","","","","","","",""
"","1252","html-keyboard-response","34","126357","0.0-9.0-1.6","AnlQSU3nB6","5bc79ce8f653a50001ce430e","6617fad957f7c6a12ea16e26","6622c275765850925d5146d7","image grid"," ","","","","","Ontogenetic_Distractor_notarget","2400","ongrid"," ","8","Phylogenetic","true","practice"
"","null","html-keyboard-response","35","126510","0.0-9.0-2.6","AnlQSU3nB6","5bc79ce8f653a50001ce430e","6617fad957f7c6a12ea16e26","6622c275765850925d5146d7","
    <div id=""grid-container"">
        <!-- Grid items will be dynamically added here -->
    </div>    ","null","","","","","","","","","","","",""
"","null","html-keyboard-response","36","127723","0.0-9.0-3.6","AnlQSU3nB6","5bc79ce8f653a50001ce430e","6617fad957f7c6a12ea16e26","6622c275765850925d5146d7","feedback screen","null","","","","","","","","","","","",""
"","null","html-keyboard-response","37","128236","0.0-9.0-0.7","AnlQSU3nB6","5bc79ce8f653a50001ce430e","6617fad957f7c6a12ea16e26","6622c275765850925d5146d7","fixation cross","null","","","","","","","","","","","",""
"","2171","html-keyboard-response","38","130408","0.0-9.0-1.7","AnlQSU3nB6","5bc79ce8f653a50001ce430e","6617fad957f7c6a12ea16e26","6622c275765850925d5146d7","image grid","p","","","","","Phylogenetic_Distractor_Nonthreat_target","2300","ongrid","p","8","Phylogenetic","true","practice"
"","null","html-keyboard-response","39","130567","0.0-9.0-2.7","AnlQSU3nB6","5bc79ce8f653a50001ce430e","6617fad957f7c6a12ea16e26","6622c275765850925d5146d7","
    <div id=""grid-container"">
        <!-- Grid items will be dynamically added here -->
    </div>    ","null","","","","","","","","","","","",""
"","null","html-keyboard-response","40","131782","0.0-9.0-3.7","AnlQSU3nB6","5bc79ce8f653a50001ce430e","6617fad957f7c6a12ea16e26","6622c275765850925d5146d7","feedback screen","null","","","","","","","","","","","",""
"","null","html-keyboard-response","41","132295","0.0-9.0-0.8","AnlQSU3nB6","5bc79ce8f653a50001ce430e","6617fad957f7c6a12ea16e26","6622c275765850925d5146d7","fixation cross","null","","","","","","","","","","","",""
"","1149","html-keyboard-response","42","133445","0.0-9.0-1.8","AnlQSU3nB6","5bc79ce8f653a50001ce430e","6617fad957f7c6a12ea16e26","6622c275765850925d5146d7","image grid"," ","","","","","Phylogenetic_Distractor_Nonthreat_target","2200","ongrid","p","7","Phylogenetic","false","practice"
"","null","html-keyboard-response","43","133602","0.0-9.0-2.8","AnlQSU3nB6","5bc79ce8f653a50001ce430e","6617fad957f7c6a12ea16e26","6622c275765850925d5146d7","
    <div id=""grid-container"">
        <!-- Grid items will be dynamically added here -->
    </div>    ","null","","","","","","","","","","","",""
"","null","html-keyboard-response","44","134819","0.0-9.0-3.8","AnlQSU3nB6","5bc79ce8f653a50001ce430e","6617fad957f7c6a12ea16e26","6622c275765850925d5146d7","feedback screen","null","","","","","","","","","","","",""
"","null","html-keyboard-response","45","135332","0.0-9.0-0.9","AnlQSU3nB6","5bc79ce8f653a50001ce430e","6617fad957f7c6a12ea16e26","6622c275765850925d5146d7","fixation cross","null","","","","","","","","","","","",""
"","1802","html-keyboard-response","46","137134","0.0-9.0-1.9","AnlQSU3nB6","5bc79ce8f653a50001ce430e","6617fad957f7c6a12ea16e26","6622c275765850925d5146d7","image grid"," ","","","","","Ontogenetic_Distractor_notarget","2100","ongrid"," ","6","Phylogenetic","true","practice"
"","null","html-keyboard-response","47","137288","0.0-9.0-2.9","AnlQSU3nB6","5bc79ce8f653a50001ce430e","6617fad957f7c6a12ea16e26","6622c275765850925d5146d7","
    <div id=""grid-container"">
        <!-- Grid items will be dynamically added here -->
    </div>    ","null","","","","","","","","","","","",""
"","null","html-keyboard-response","48","138499","0.0-9.0-3.9","AnlQSU3nB6","5bc79ce8f653a50001ce430e","6617fad957f7c6a12ea16e26","6622c275765850925d5146d7","feedback screen","null","","","","","","","","","","","",""
"","null","html-keyboard-response","49","139013","0.0-9.0-0.10","AnlQSU3nB6","5bc79ce8f653a50001ce430e","6617fad957f7c6a12ea16e26","6622c275765850925d5146d7","fixation cross","null","","","","","","","","","","","",""
"","null","html-keyboard-response","50","141020","0.0-9.0-1.10","AnlQSU3nB6","5bc79ce8f653a50001ce430e","6617fad957f7c6a12ea16e26","6622c275765850925d5146d7","
        <div id=""grid-container"">
        <!-- Grid items will be dynamically added here -->
    </div>    ","null","","","","","","","","","","","",""
"","2245","html-keyboard-response","51","141265","0.0-9.0-2.10","AnlQSU3nB6","5bc79ce8f653a50001ce430e","6617fad957f7c6a12ea16e26","6622c275765850925d5146d7","mask grid","p","","","","","Phylogenetic_Distractor_Nonthreat_target","2000","onmask","p","2","Phylogenetic","true","practice"
"","null","html-keyboard-response","52","142482","0.0-9.0-3.10","AnlQSU3nB6","5bc79ce8f653a50001ce430e","6617fad957f7c6a12ea16e26","6622c275765850925d5146d7","feedback screen","null","","","","","","","","","","","",""
"","null","html-keyboard-response","53","142994","0.0-9.0-0.11","AnlQSU3nB6","5bc79ce8f653a50001ce430e","6617fad957f7c6a12ea16e26","6622c275765850925d5146d7","fixation cross","null","","","","","","","","","","","",""
"","955","html-keyboard-response","54","143949","0.0-9.0-1.11","AnlQSU3nB6","5bc79ce8f653a50001ce430e","6617fad957f7c6a12ea16e26","6622c275765850925d5146d7","image grid","q","","","","","Ontogenetic_Distractor_Threat_target","1900","ongrid","q","2","Phylogenetic","true","practice"
"","null","html-keyboard-response","55","144115","0.0-9.0-2.11","AnlQSU3nB6","5bc79ce8f653a50001ce430e","6617fad957f7c6a12ea16e26","6622c275765850925d5146d7","
    <div id=""grid-container"">
        <!-- Grid items will be dynamically added here -->
    </div>    ","null","","","","","","","","","","","",""
"","null","html-keyboard-response","56","145330","0.0-9.0-3.11","AnlQSU3nB6","5bc79ce8f653a50001ce430e","6617fad957f7c6a12ea16e26","6622c275765850925d5146d7","feedback screen","null","","","","","","","","","","","",""
"","null","html-keyboard-response","57","145844","0.0-9.0-0.12","AnlQSU3nB6","5bc79ce8f653a50001ce430e","6617fad957f7c6a12ea16e26","6622c275765850925d5146d7","fixation cross","null","","","","","","","","","","","",""
"","1046","html-keyboard-response","58","146890","0.0-9.0-1.12","AnlQSU3nB6","5bc79ce8f653a50001ce430e","6617fad957f7c6a12ea16e26","6622c275765850925d5146d7","image grid","p","","","","","Ontogenetic_Distractor_Nonthreat_target","1800","ongrid","p","7","Phylogenetic","true","practice"
"","null","html-keyboard-response","59","147042","0.0-9.0-2.12","AnlQSU3nB6","5bc79ce8f653a50001ce430e","6617fad957f7c6a12ea16e26","6622c275765850925d5146d7","
    <div id=""grid-container"">
        <!-- Grid items will be dynamically added here -->
    </div>    ","null","","","","","","","","","","","",""
"","null","html-keyboard-response","60","148254","0.0-9.0-3.12","AnlQSU3nB6","5bc79ce8f653a50001ce430e","6617fad957f7c6a12ea16e26","6622c275765850925d5146d7","feedback screen","null","","","","","","","","","","","",""
"","null","html-keyboard-response","61","148767","0.0-9.0-0.13","AnlQSU3nB6","5bc79ce8f653a50001ce430e","6617fad957f7c6a12ea16e26","6622c275765850925d5146d7","fixation cross","null","","","","","","","","","","","",""
"","986","html-keyboard-response","62","149753","0.0-9.0-1.13","AnlQSU3nB6","5bc79ce8f653a50001ce430e","6617fad957f7c6a12ea16e26","6622c275765850925d5146d7","image grid","q","","","","","Ontogenetic_Distractor_Threat_target","1700","ongrid","q","8","Phylogenetic","true","practice"
"","null","html-keyboard-response","63","149907","0.0-9.0-2.13","AnlQSU3nB6","5bc79ce8f653a50001ce430e","6617fad957f7c6a12ea16e26","6622c275765850925d5146d7","
    <div id=""grid-container"">
        <!-- Grid items will be dynamically added here -->
    </div>    ","null","","","","","","","","","","","",""
"","null","html-keyboard-response","64","151119","0.0-9.0-3.13","AnlQSU3nB6","5bc79ce8f653a50001ce430e","6617fad957f7c6a12ea16e26","6622c275765850925d5146d7","feedback screen","null","","","","","","","","","","","",""
"","null","html-keyboard-response","65","151634","0.0-9.0-0.14","AnlQSU3nB6","5bc79ce8f653a50001ce430e","6617fad957f7c6a12ea16e26","6622c275765850925d5146d7","fixation cross","null","","","","","","","","","","","",""
"","802","html-keyboard-response","66","152436","0.0-9.0-1.14","AnlQSU3nB6","5bc79ce8f653a50001ce430e","6617fad957f7c6a12ea16e26","6622c275765850925d5146d7","image grid","p","","","","","Ontogenetic_Distractor_Nonthreat_target","1600","ongrid","p","7","Phylogenetic","true","practice"
"","null","html-keyboard-response","67","152598","0.0-9.0-2.14","AnlQSU3nB6","5bc79ce8f653a50001ce430e","6617fad957f7c6a12ea16e26","6622c275765850925d5146d7","
    <div id=""grid-container"">
        <!-- Grid items will be dynamically added here -->
    </div>    ","null","","","","","","","","","","","",""
"","null","html-keyboard-response","68","153814","0.0-9.0-3.14","AnlQSU3nB6","5bc79ce8f653a50001ce430e","6617fad957f7c6a12ea16e26","6622c275765850925d5146d7","feedback screen","null","","","","","","","","","","","",""
"","null","html-keyboard-response","69","154327","0.0-9.0-0.15","AnlQSU3nB6","5bc79ce8f653a50001ce430e","6617fad957f7c6a12ea16e26","6622c275765850925d5146d7","fixation cross","null","","","","","","","","","","","",""
"","null","html-keyboard-response","70","155840","0.0-9.0-1.15","AnlQSU3nB6","5bc79ce8f653a50001ce430e","6617fad957f7c6a12ea16e26","6622c275765850925d5146d7","
        <div id=""grid-container"">
        <!-- Grid items will be dynamically added here -->
    </div>    ","null","","","","","","","","","","","",""
"","1594","html-keyboard-response","71","155934","0.0-9.0-2.15","AnlQSU3nB6","5bc79ce8f653a50001ce430e","6617fad957f7c6a12ea16e26","6622c275765850925d5146d7","mask grid","p","","","","","Phylogenetic_Distractor_Nonthreat_target","1500","onmask","p","6","Phylogenetic","true","practice"
"","null","html-keyboard-response","72","157146","0.0-9.0-3.15","AnlQSU3nB6","5bc79ce8f653a50001ce430e","6617fad957f7c6a12ea16e26","6622c275765850925d5146d7","feedback screen","null","","","","","","","","","","","",""
"","null","html-keyboard-response","73","157661","0.0-9.0-0.16","AnlQSU3nB6","5bc79ce8f653a50001ce430e","6617fad957f7c6a12ea16e26","6622c275765850925d5146d7","fixation cross","null","","","","","","","","","","","",""
"","null","html-keyboard-response","74","159063","0.0-9.0-1.16","AnlQSU3nB6","5bc79ce8f653a50001ce430e","6617fad957f7c6a12ea16e26","6622c275765850925d5146d7","
        <div id=""grid-container"">
        <!-- Grid items will be dynamically added here -->
    </div>    ","null","","","","","","","","","","","",""
"","2033","html-keyboard-response","75","159696","0.0-9.0-2.16","AnlQSU3nB6","5bc79ce8f653a50001ce430e","6617fad957f7c6a12ea16e26","6622c275765850925d5146d7","mask grid"," ","","","","","Phylogenetic_Distractor_notarget","1400","onmask"," ","8","Phylogenetic","true","practice"
"","null","html-keyboard-response","76","160910","0.0-9.0-3.16","AnlQSU3nB6","5bc79ce8f653a50001ce430e","6617fad957f7c6a12ea16e26","6622c275765850925d5146d7","feedback screen","null","","","","","","","","","","","",""
"","null","html-keyboard-response","77","161424","0.0-9.0-0.17","AnlQSU3nB6","5bc79ce8f653a50001ce430e","6617fad957f7c6a12ea16e26","6622c275765850925d5146d7","fixation cross","null","","","","","","","","","","","",""
"","1303","html-keyboard-response","78","162727","0.0-9.0-1.17","AnlQSU3nB6","5bc79ce8f653a50001ce430e","6617fad957f7c6a12ea16e26","6622c275765850925d5146d7","image grid","q","","","","","Phylogenetic_Distractor_Threat_target","1300","ongrid","q","3","Phylogenetic","true","practice"
"","null","html-keyboard-response","79","162888","0.0-9.0-2.17","AnlQSU3nB6","5bc79ce8f653a50001ce430e","6617fad957f7c6a12ea16e26","6622c275765850925d5146d7","
    <div id=""grid-container"">
        <!-- Grid items will be dynamically added here -->
    </div>    ","null","","","","","","","","","","","",""
"","null","html-keyboard-response","80","164113","0.0-9.0-3.17","AnlQSU3nB6","5bc79ce8f653a50001ce430e","6617fad957f7c6a12ea16e26","6622c275765850925d5146d7","feedback screen","null","","","","","","","","","","","",""
"","null","html-keyboard-response","81","164630","0.0-9.0-0.18","AnlQSU3nB6","5bc79ce8f653a50001ce430e","6617fad957f7c6a12ea16e26","6622c275765850925d5146d7","fixation cross","null","","","","","","","","","","","",""
"","null","html-keyboard-response","82","165843","0.0-9.0-1.18","AnlQSU3nB6","5bc79ce8f653a50001ce430e","6617fad957f7c6a12ea16e26","6622c275765850925d5146d7","
        <div id=""grid-container"">
        <!-- Grid items will be dynamically added here -->
    </div>    ","null","","","","","","","","","","","",""
"","1589","html-keyboard-response","83","166232","0.0-9.0-2.18","AnlQSU3nB6","5bc79ce8f653a50001ce430e","6617fad957f7c6a12ea16e26","6622c275765850925d5146d7","mask grid"," ","","","","","Phylogenetic_Distractor_notarget","1200","onmask"," ","9","Phylogenetic","true","practice"
"","null","html-keyboard-response","84","167441","0.0-9.0-3.18","AnlQSU3nB6","5bc79ce8f653a50001ce430e","6617fad957f7c6a12ea16e26","6622c275765850925d5146d7","feedback screen","null","","","","","","","","","","","",""
"","null","html-keyboard-response","85","167954","0.0-9.0-0.19","AnlQSU3nB6","5bc79ce8f653a50001ce430e","6617fad957f7c6a12ea16e26","6622c275765850925d5146d7","fixation cross","null","","","","","","","","","","","",""
"","null","html-keyboard-response","86","169060","0.0-9.0-1.19","AnlQSU3nB6","5bc79ce8f653a50001ce430e","6617fad957f7c6a12ea16e26","6622c275765850925d5146d7","
        <div id=""grid-container"">
        <!-- Grid items will be dynamically added here -->
    </div>    ","null","","","","","","","","","","","",""
"","1197","html-keyboard-response","87","169158","0.0-9.0-2.19","AnlQSU3nB6","5bc79ce8f653a50001ce430e","6617fad957f7c6a12ea16e26","6622c275765850925d5146d7","mask grid"," ","","","","","Ontogenetic_Distractor_Threat_target","1100","onmask","q","6","Phylogenetic","false","practice"
"","234","html-keyboard-response","88","169603","0.0-9.0-3.19","AnlQSU3nB6","5bc79ce8f653a50001ce430e","6617fad957f7c6a12ea16e26","6622c275765850925d5146d7","feedback screen","q","","","","","","","","","","","",""
"","4441","html-keyboard-response","89","174064","0.0-10.0","AnlQSU3nB6","5bc79ce8f653a50001ce430e","6617fad957f7c6a12ea16e26","6622c275765850925d5146d7","pre-experimental_briefing"," ","","","","","","","","","","","",""
"","null","html-keyboard-response","90","176609","0.0-11.0-0.0","AnlQSU3nB6","5bc79ce8f653a50001ce430e","6617fad957f7c6a12ea16e26","6622c275765850925d5146d7","fixation cross","null","","","","","","","","","","","",""
"","1533","html-keyboard-response","91","178143","0.0-11.0-1.0","AnlQSU3nB6","5bc79ce8f653a50001ce430e","6617fad957f7c6a12ea16e26","6622c275765850925d5146d7","image grid","p","","","","","Phylogenetic_Distractor_Nonthreat_target","2500","ongrid","p","6","Phylogenetic","true","experimental"
"","null","html-keyboard-response","92","178296","0.0-11.0-2.0","AnlQSU3nB6","5bc79ce8f653a50001ce430e","6617fad957f7c6a12ea16e26","6622c275765850925d5146d7","
    <div id=""grid-container"">
        <!-- Grid items will be dynamically added here -->
    </div>    ","null","","","","","","","","","","","",""
"","null","html-keyboard-response","93","179010","0.0-11.0-0.1","AnlQSU3nB6","5bc79ce8f653a50001ce430e","6617fad957f7c6a12ea16e26","6622c275765850925d5146d7","fixation cross","null","","","","","","","","","","","",""
"","1683","html-keyboard-response","94","180693","0.0-11.0-1.1","AnlQSU3nB6","5bc79ce8f653a50001ce430e","6617fad957f7c6a12ea16e26","6622c275765850925d5146d7","image grid"," ","","","","","Phylogenetic_Distractor_notarget","2500","ongrid"," ","9","Phylogenetic","true","experimental"
"","null","html-keyboard-response","95","180855","0.0-11.0-2.1","AnlQSU3nB6","5bc79ce8f653a50001ce430e","6617fad957f7c6a12ea16e26","6622c275765850925d5146d7","
    <div id=""grid-container"">
        <!-- Grid items will be dynamically added here -->
    </div>    ","null","","","","","","","","","","","",""
"","null","html-keyboard-response","96","181570","0.0-11.0-0.2","AnlQSU3nB6","5bc79ce8f653a50001ce430e","6617fad957f7c6a12ea16e26","6622c275765850925d5146d7","fixation cross","null","","","","","","","","","","","",""
"","1542","html-keyboard-response","97","183113","0.0-11.0-1.2","AnlQSU3nB6","5bc79ce8f653a50001ce430e","6617fad957f7c6a12ea16e26","6622c275765850925d5146d7","image grid","p","","","","","Phylogenetic_Distractor_Nonthreat_target","2500","ongrid","p","7","Phylogenetic","true","experimental"
"","null","html-keyboard-response","98","183264","0.0-11.0-2.2","AnlQSU3nB6","5bc79ce8f653a50001ce430e","6617fad957f7c6a12ea16e26","6622c275765850925d5146d7","
    <div id=""grid-container"">
        <!-- Grid items will be dynamically added here -->
    </div>    ","null","","","","","","","","","","","",""
"","null","html-keyboard-response","99","183981","0.0-11.0-0.3","AnlQSU3nB6","5bc79ce8f653a50001ce430e","6617fad957f7c6a12ea16e26","6622c275765850925d5146d7","fixation cross","null","","","","","","","","","","","",""
"","1919","html-keyboard-response","100","185900","0.0-11.0-1.3","AnlQSU3nB6","5bc79ce8f653a50001ce430e","6617fad957f7c6a12ea16e26","6622c275765850925d5146d7","image grid","q","","","","","Phylogenetic_Distractor_Threat_target","2500","ongrid","q","3","Phylogenetic","true","experimental"
"","null","html-keyboard-response","101","186055","0.0-11.0-2.3","AnlQSU3nB6","5bc79ce8f653a50001ce430e","6617fad957f7c6a12ea16e26","6622c275765850925d5146d7","
    <div id=""grid-container"">
        <!-- Grid items will be dynamically added here -->
    </div>    ","null","","","","","","","","","","","",""
"","null","html-keyboard-response","102","186768","0.0-11.0-0.4","AnlQSU3nB6","5bc79ce8f653a50001ce430e","6617fad957f7c6a12ea16e26","6622c275765850925d5146d7","fixation cross","null","","","","","","","","","","","",""
"","1578","html-keyboard-response","103","188346","0.0-11.0-1.4","AnlQSU3nB6","5bc79ce8f653a50001ce430e","6617fad957f7c6a12ea16e26","6622c275765850925d5146d7","image grid","q","","","","","Phylogenetic_Distractor_Threat_target","2500","ongrid","q","8","Phylogenetic","true","experimental"
"","null","html-keyboard-response","104","188510","0.0-11.0-2.4","AnlQSU3nB6","5bc79ce8f653a50001ce430e","6617fad957f7c6a12ea16e26","6622c275765850925d5146d7","
    <div id=""grid-container"">
        <!-- Grid items will be dynamically added here -->
    </div>    ","null","","","","","","","","","","","",""
"","null","html-keyboard-response","105","189225","0.0-11.0-0.5","AnlQSU3nB6","5bc79ce8f653a50001ce430e","6617fad957f7c6a12ea16e26","6622c275765850925d5146d7","fixation cross","null","","","","","","","","","","","",""
"","1389","html-keyboard-response","106","190614","0.0-11.0-1.5","AnlQSU3nB6","5bc79ce8f653a50001ce430e","6617fad957f7c6a12ea16e26","6622c275765850925d5146d7","image grid","p","","","","","Phylogenetic_Distractor_Nonthreat_target","2500","ongrid","p","1","Phylogenetic","true","experimental"
"","null","html-keyboard-response","107","190773","0.0-11.0-2.5","AnlQSU3nB6","5bc79ce8f653a50001ce430e","6617fad957f7c6a12ea16e26","6622c275765850925d5146d7","
    <div id=""grid-container"">
        <!-- Grid items will be dynamically added here -->
    </div>    ","null","","","","","","","","","","","",""
"","null","html-keyboard-response","108","191502","0.0-11.0-0.6","AnlQSU3nB6","5bc79ce8f653a50001ce430e","6617fad957f7c6a12ea16e26","6622c275765850925d5146d7","fixation cross","null","","","","","","","","","","","",""
"","1249","html-keyboard-response","109","192752","0.0-11.0-1.6","AnlQSU3nB6","5bc79ce8f653a50001ce430e","6617fad957f7c6a12ea16e26","6622c275765850925d5146d7","image grid","q","","","","","Phylogenetic_Distractor_Threat_target","2500","ongrid","q","1","Phylogenetic","true","experimental"
"","null","html-keyboard-response","110","192916","0.0-11.0-2.6","AnlQSU3nB6","5bc79ce8f653a50001ce430e","6617fad957f7c6a12ea16e26","6622c275765850925d5146d7","
    <div id=""grid-container"">
        <!-- Grid items will be dynamically added here -->
    </div>    ","null","","","","","","","","","","","",""
"","null","html-keyboard-response","111","193630","0.0-11.0-0.7","AnlQSU3nB6","5bc79ce8f653a50001ce430e","6617fad957f7c6a12ea16e26","6622c275765850925d5146d7","fixation cross","null","","","","","","","","","","","",""
"","1871","html-keyboard-response","112","195501","0.0-11.0-1.7","AnlQSU3nB6","5bc79ce8f653a50001ce430e","6617fad957f7c6a12ea16e26","6622c275765850925d5146d7","image grid"," ","","","","","Phylogenetic_Distractor_Nonthreat_target","2500","ongrid","p","2","Phylogenetic","false","experimental"
"","null","html-keyboard-response","113","195667","0.0-11.0-2.7","AnlQSU3nB6","5bc79ce8f653a50001ce430e","6617fad957f7c6a12ea16e26","6622c275765850925d5146d7","
    <div id=""grid-container"">
        <!-- Grid items will be dynamically added here -->
    </div>    ","null","","","","","","","","","","","",""
"","null","html-keyboard-response","114","196380","0.0-11.0-0.8","AnlQSU3nB6","5bc79ce8f653a50001ce430e","6617fad957f7c6a12ea16e26","6622c275765850925d5146d7","fixation cross","null","","","","","","","","","","","",""
"","1890","html-keyboard-response","115","198270","0.0-11.0-1.8","AnlQSU3nB6","5bc79ce8f653a50001ce430e","6617fad957f7c6a12ea16e26","6622c275765850925d5146d7","image grid","q","","","","","Phylogenetic_Distractor_Threat_target","2500","ongrid","q","9","Phylogenetic","true","experimental"
"","null","html-keyboard-response","116","198427","0.0-11.0-2.8","AnlQSU3nB6","5bc79ce8f653a50001ce430e","6617fad957f7c6a12ea16e26","6622c275765850925d5146d7","
    <div id=""grid-container"">
        <!-- Grid items will be dynamically added here -->
    </div>    ","null","","","","","","","","","","","",""
"","null","html-keyboard-response","117","199145","0.0-11.0-0.9","AnlQSU3nB6","5bc79ce8f653a50001ce430e","6617fad957f7c6a12ea16e26","6622c275765850925d5146d7","fixation cross","null","","","","","","","","","","","",""
"","1471","html-keyboard-response","118","200617","0.0-11.0-1.9","AnlQSU3nB6","5bc79ce8f653a50001ce430e","6617fad957f7c6a12ea16e26","6622c275765850925d5146d7","image grid"," ","","","","","Phylogenetic_Distractor_notarget","2500","ongrid"," ","9","Phylogenetic","true","experimental"
"","null","html-keyboard-response","119","200780","0.0-11.0-2.9","AnlQSU3nB6","5bc79ce8f653a50001ce430e","6617fad957f7c6a12ea16e26","6622c275765850925d5146d7","
    <div id=""grid-container"">
        <!-- Grid items will be dynamically added here -->
    </div>    ","null","","","","","","","","","","","",""
"","null","html-keyboard-response","120","201496","0.0-11.0-0.10","AnlQSU3nB6","5bc79ce8f653a50001ce430e","6617fad957f7c6a12ea16e26","6622c275765850925d5146d7","fixation cross","null","","","","","","","","","","","",""
"","1070","html-keyboard-response","121","202567","0.0-11.0-1.10","AnlQSU3nB6","5bc79ce8f653a50001ce430e","6617fad957f7c6a12ea16e26","6622c275765850925d5146d7","image grid","q","","","","","Phylogenetic_Distractor_Threat_target","2500","ongrid","q","2","Phylogenetic","true","experimental"
"","null","html-keyboard-response","122","202727","0.0-11.0-2.10","AnlQSU3nB6","5bc79ce8f653a50001ce430e","6617fad957f7c6a12ea16e26","6622c275765850925d5146d7","
    <div id=""grid-container"">
        <!-- Grid items will be dynamically added here -->
    </div>    ","null","","","","","","","","","","","",""
"","null","html-keyboard-response","123","203456","0.0-11.0-0.11","AnlQSU3nB6","5bc79ce8f653a50001ce430e","6617fad957f7c6a12ea16e26","6622c275765850925d5146d7","fixation cross","null","","","","","","","","","","","",""
"","1448","html-keyboard-response","124","204904","0.0-11.0-1.11","AnlQSU3nB6","5bc79ce8f653a50001ce430e","6617fad957f7c6a12ea16e26","6622c275765850925d5146d7","image grid","q","","","","","Phylogenetic_Distractor_Threat_target","2500","ongrid","q","7","Phylogenetic","true","experimental"
"","null","html-keyboard-response","125","205060","0.0-11.0-2.11","AnlQSU3nB6","5bc79ce8f653a50001ce430e","6617fad957f7c6a12ea16e26","6622c275765850925d5146d7","
    <div id=""grid-container"">
        <!-- Grid items will be dynamically added here -->
    </div>    ","null","","","","","","","","","","","",""
"","null","html-keyboard-response","126","205778","0.0-11.0-0.12","AnlQSU3nB6","5bc79ce8f653a50001ce430e","6617fad957f7c6a12ea16e26","6622c275765850925d5146d7","fixation cross","null","","","","","","","","","","","",""
"","1821","html-keyboard-response","127","207600","0.0-11.0-1.12","AnlQSU3nB6","5bc79ce8f653a50001ce430e","6617fad957f7c6a12ea16e26","6622c275765850925d5146d7","image grid","p","","","","","Phylogenetic_Distractor_Nonthreat_target","2500","ongrid","p","6","Phylogenetic","true","experimental"
"","null","html-keyboard-response","128","207752","0.0-11.0-2.12","AnlQSU3nB6","5bc79ce8f653a50001ce430e","6617fad957f7c6a12ea16e26","6622c275765850925d5146d7","
    <div id=""grid-container"">
        <!-- Grid items will be dynamically added here -->
    </div>    ","null","","","","","","","","","","","",""
"","null","html-keyboard-response","129","208472","0.0-11.0-0.13","AnlQSU3nB6","5bc79ce8f653a50001ce430e","6617fad957f7c6a12ea16e26","6622c275765850925d5146d7","fixation cross","null","","","","","","","","","","","",""
"","1249","html-keyboard-response","130","209722","0.0-11.0-1.13","AnlQSU3nB6","5bc79ce8f653a50001ce430e","6617fad957f7c6a12ea16e26","6622c275765850925d5146d7","image grid","q","","","","","Phylogenetic_Distractor_Threat_target","2500","ongrid","q","5","Phylogenetic","true","experimental"
"","null","html-keyboard-response","131","209887","0.0-11.0-2.13","AnlQSU3nB6","5bc79ce8f653a50001ce430e","6617fad957f7c6a12ea16e26","6622c275765850925d5146d7","
    <div id=""grid-container"">
        <!-- Grid items will be dynamically added here -->
    </div>    ","null","","","","","","","","","","","",""
"","null","html-keyboard-response","132","210602","0.0-11.0-0.14","AnlQSU3nB6","5bc79ce8f653a50001ce430e","6617fad957f7c6a12ea16e26","6622c275765850925d5146d7","fixation cross","null","","","","","","","","","","","",""
"","1146","html-keyboard-response","133","211749","0.0-11.0-1.14","AnlQSU3nB6","5bc79ce8f653a50001ce430e","6617fad957f7c6a12ea16e26","6622c275765850925d5146d7","image grid","p","","","","","Phylogenetic_Distractor_Nonthreat_target","2500","ongrid","p","8","Phylogenetic","true","experimental"
"","null","html-keyboard-response","134","211906","0.0-11.0-2.14","AnlQSU3nB6","5bc79ce8f653a50001ce430e","6617fad957f7c6a12ea16e26","6622c275765850925d5146d7","
    <div id=""grid-container"">
        <!-- Grid items will be dynamically added here -->
    </div>    ","null","","","","","","","","","","","",""
"","null","html-keyboard-response","135","212609","0.0-11.0-0.15","AnlQSU3nB6","5bc79ce8f653a50001ce430e","6617fad957f7c6a12ea16e26","6622c275765850925d5146d7","fixation cross","null","","","","","","","","","","","",""
"","1530","html-keyboard-response","136","214139","0.0-11.0-1.15","AnlQSU3nB6","5bc79ce8f653a50001ce430e","6617fad957f7c6a12ea16e26","6622c275765850925d5146d7","image grid","q","","","","","Phylogenetic_Distractor_Nonthreat_target","2500","ongrid","p","1","Phylogenetic","false","experimental"
"","null","html-keyboard-response","137","214305","0.0-11.0-2.15","AnlQSU3nB6","5bc79ce8f653a50001ce430e","6617fad957f7c6a12ea16e26","6622c275765850925d5146d7","
    <div id=""grid-container"">
        <!-- Grid items will be dynamically added here -->
    </div>    ","null","","","","","","","","","","","",""
"","null","html-keyboard-response","138","215020","0.0-11.0-0.16","AnlQSU3nB6","5bc79ce8f653a50001ce430e","6617fad957f7c6a12ea16e26","6622c275765850925d5146d7","fixation cross","null","","","","","","","","","","","",""
"","1807","html-keyboard-response","139","216828","0.0-11.0-1.16","AnlQSU3nB6","5bc79ce8f653a50001ce430e","6617fad957f7c6a12ea16e26","6622c275765850925d5146d7","image grid","p","","","","","Phylogenetic_Distractor_Nonthreat_target","2500","ongrid","p","4","Phylogenetic","true","experimental"
"","null","html-keyboard-response","140","216983","0.0-11.0-2.16","AnlQSU3nB6","5bc79ce8f653a50001ce430e","6617fad957f7c6a12ea16e26","6622c275765850925d5146d7","
    <div id=""grid-container"">
        <!-- Grid items will be dynamically added here -->
    </div>    ","null","","","","","","","","","","","",""
"","null","html-keyboard-response","141","217696","0.0-11.0-0.17","AnlQSU3nB6","5bc79ce8f653a50001ce430e","6617fad957f7c6a12ea16e26","6622c275765850925d5146d7","fixation cross","null","","","","","","","","","","","",""
"","2014","html-keyboard-response","142","219711","0.0-11.0-1.17","AnlQSU3nB6","5bc79ce8f653a50001ce430e","6617fad957f7c6a12ea16e26","6622c275765850925d5146d7","image grid","p","","","","","Phylogenetic_Distractor_Nonthreat_target","2500","ongrid","p","9","Phylogenetic","true","experimental"
"","null","html-keyboard-response","143","219875","0.0-11.0-2.17","AnlQSU3nB6","5bc79ce8f653a50001ce430e","6617fad957f7c6a12ea16e26","6622c275765850925d5146d7","
    <div id=""grid-container"">
        <!-- Grid items will be dynamically added here -->
    </div>    ","null","","","","","","","","","","","",""
"","null","html-keyboard-response","144","220583","0.0-11.0-0.18","AnlQSU3nB6","5bc79ce8f653a50001ce430e","6617fad957f7c6a12ea16e26","6622c275765850925d5146d7","fixation cross","null","","","","","","","","","","","",""
"","1665","html-keyboard-response","145","222249","0.0-11.0-1.18","AnlQSU3nB6","5bc79ce8f653a50001ce430e","6617fad957f7c6a12ea16e26","6622c275765850925d5146d7","image grid","q","","","","","Phylogenetic_Distractor_Threat_target","2500","ongrid","q","8","Phylogenetic","true","experimental"
"","null","html-keyboard-response","146","222404","0.0-11.0-2.18","AnlQSU3nB6","5bc79ce8f653a50001ce430e","6617fad957f7c6a12ea16e26","6622c275765850925d5146d7","
    <div id=""grid-container"">
        <!-- Grid items will be dynamically added here -->
    </div>    ","null","","","","","","","","","","","",""
"","null","html-keyboard-response","147","223129","0.0-11.0-0.19","AnlQSU3nB6","5bc79ce8f653a50001ce430e","6617fad957f7c6a12ea16e26","6622c275765850925d5146d7","fixation cross","null","","","","","","","","","","","",""
"","1021","html-keyboard-response","148","224150","0.0-11.0-1.19","AnlQSU3nB6","5bc79ce8f653a50001ce430e","6617fad957f7c6a12ea16e26","6622c275765850925d5146d7","image grid","q","","","","","Phylogenetic_Distractor_Threat_target","2500","ongrid","q","9","Phylogenetic","true","experimental"
"","null","html-keyboard-response","149","224304","0.0-11.0-2.19","AnlQSU3nB6","5bc79ce8f653a50001ce430e","6617fad957f7c6a12ea16e26","6622c275765850925d5146d7","
    <div id=""grid-container"">
        <!-- Grid items will be dynamically added here -->
    </div>    ","null","","","","","","","","","","","",""
"","null","html-keyboard-response","150","225019","0.0-11.0-0.20","AnlQSU3nB6","5bc79ce8f653a50001ce430e","6617fad957f7c6a12ea16e26","6622c275765850925d5146d7","fixation cross","null","","","","","","","","","","","",""
"","1224","html-keyboard-response","151","226244","0.0-11.0-1.20","AnlQSU3nB6","5bc79ce8f653a50001ce430e","6617fad957f7c6a12ea16e26","6622c275765850925d5146d7","image grid","p","","","","","Phylogenetic_Distractor_Nonthreat_target","2500","ongrid","p","1","Phylogenetic","true","experimental"
"","null","html-keyboard-response","152","226405","0.0-11.0-2.20","AnlQSU3nB6","5bc79ce8f653a50001ce430e","6617fad957f7c6a12ea16e26","6622c275765850925d5146d7","
    <div id=""grid-container"">
        <!-- Grid items will be dynamically added here -->
    </div>    ","null","","","","","","","","","","","",""
"","null","html-keyboard-response","153","227123","0.0-11.0-0.21","AnlQSU3nB6","5bc79ce8f653a50001ce430e","6617fad957f7c6a12ea16e26","6622c275765850925d5146d7","fixation cross","null","","","","","","","","","","","",""
"","1535","html-keyboard-response","154","228658","0.0-11.0-1.21","AnlQSU3nB6","5bc79ce8f653a50001ce430e","6617fad957f7c6a12ea16e26","6622c275765850925d5146d7","image grid"," ","","","","","Phylogenetic_Distractor_notarget","2500","ongrid"," ","1","Phylogenetic","true","experimental"
"","null","html-keyboard-response","155","228815","0.0-11.0-2.21","AnlQSU3nB6","5bc79ce8f653a50001ce430e","6617fad957f7c6a12ea16e26","6622c275765850925d5146d7","
    <div id=""grid-container"">
        <!-- Grid items will be dynamically added here -->
    </div>    ","null","","","","","","","","","","","",""
"","null","html-keyboard-response","156","229544","0.0-11.0-0.22","AnlQSU3nB6","5bc79ce8f653a50001ce430e","6617fad957f7c6a12ea16e26","6622c275765850925d5146d7","fixation cross","null","","","","","","","","","","","",""
"","992","html-keyboard-response","157","230536","0.0-11.0-1.22","AnlQSU3nB6","5bc79ce8f653a50001ce430e","6617fad957f7c6a12ea16e26","6622c275765850925d5146d7","image grid","p","","","","","Phylogenetic_Distractor_Nonthreat_target","2500","ongrid","p","2","Phylogenetic","true","experimental"
"","null","html-keyboard-response","158","230697","0.0-11.0-2.22","AnlQSU3nB6","5bc79ce8f653a50001ce430e","6617fad957f7c6a12ea16e26","6622c275765850925d5146d7","
    <div id=""grid-container"">
        <!-- Grid items will be dynamically added here -->
    </div>    ","null","","","","","","","","","","","",""
"","null","html-keyboard-response","159","231399","0.0-11.0-0.23","AnlQSU3nB6","5bc79ce8f653a50001ce430e","6617fad957f7c6a12ea16e26","6622c275765850925d5146d7","fixation cross","null","","","","","","","","","","","",""
"","1340","html-keyboard-response","160","232739","0.0-11.0-1.23","AnlQSU3nB6","5bc79ce8f653a50001ce430e","6617fad957f7c6a12ea16e26","6622c275765850925d5146d7","image grid","p","","","","","Phylogenetic_Distractor_Nonthreat_target","2500","ongrid","p","3","Phylogenetic","true","experimental"
"","null","html-keyboard-response","161","232892","0.0-11.0-2.23","AnlQSU3nB6","5bc79ce8f653a50001ce430e","6617fad957f7c6a12ea16e26","6622c275765850925d5146d7","
    <div id=""grid-container"">
        <!-- Grid items will be dynamically added here -->
    </div>    ","null","","","","","","","","","","","",""
"","null","html-keyboard-response","162","233597","0.0-11.0-0.24","AnlQSU3nB6","5bc79ce8f653a50001ce430e","6617fad957f7c6a12ea16e26","6622c275765850925d5146d7","fixation cross","null","","","","","","","","","","","",""
"","1500","html-keyboard-response","163","235097","0.0-11.0-1.24","AnlQSU3nB6","5bc79ce8f653a50001ce430e","6617fad957f7c6a12ea16e26","6622c275765850925d5146d7","image grid"," ","","","","","Phylogenetic_Distractor_Nonthreat_target","2500","ongrid","p","7","Phylogenetic","false","experimental"
"","null","html-keyboard-response","164","235261","0.0-11.0-2.24","AnlQSU3nB6","5bc79ce8f653a50001ce430e","6617fad957f7c6a12ea16e26","6622c275765850925d5146d7","
    <div id=""grid-container"">
        <!-- Grid items will be dynamically added here -->
    </div>    ","null","","","","","","","","","","","",""
"","null","html-keyboard-response","165","235977","0.0-11.0-0.25","AnlQSU3nB6","5bc79ce8f653a50001ce430e","6617fad957f7c6a12ea16e26","6622c275765850925d5146d7","fixation cross","null","","","","","","","","","","","",""
"","null","html-keyboard-response","166","238482","0.0-11.0-1.25","AnlQSU3nB6","5bc79ce8f653a50001ce430e","6617fad957f7c6a12ea16e26","6622c275765850925d5146d7","
        <div id=""grid-container"">
        <!-- Grid items will be dynamically added here -->
    </div>    ","null","","","","","","","","","","","",""
"","3072","html-keyboard-response","167","239054","0.0-11.0-2.25","AnlQSU3nB6","5bc79ce8f653a50001ce430e","6617fad957f7c6a12ea16e26","6622c275765850925d5146d7","mask grid","p","","","","","Phylogenetic_Distractor_Nonthreat_target","2500","onmask","p","3","Phylogenetic","true","experimental"
"","null","html-keyboard-response","168","239761","0.0-11.0-0.26","AnlQSU3nB6","5bc79ce8f653a50001ce430e","6617fad957f7c6a12ea16e26","6622c275765850925d5146d7","fixation cross","null","","","","","","","","","","","",""
"","1018","html-keyboard-response","169","240780","0.0-11.0-1.26","AnlQSU3nB6","5bc79ce8f653a50001ce430e","6617fad957f7c6a12ea16e26","6622c275765850925d5146d7","image grid","q","","","","","Phylogenetic_Distractor_Threat_target","2500","ongrid","q","1","Phylogenetic","true","experimental"
"","null","html-keyboard-response","170","240942","0.0-11.0-2.26","AnlQSU3nB6","5bc79ce8f653a50001ce430e","6617fad957f7c6a12ea16e26","6622c275765850925d5146d7","
    <div id=""grid-container"">
        <!-- Grid items will be dynamically added here -->
    </div>    ","null","","","","","","","","","","","",""
"","null","html-keyboard-response","171","241658","0.0-11.0-0.27","AnlQSU3nB6","5bc79ce8f653a50001ce430e","6617fad957f7c6a12ea16e26","6622c275765850925d5146d7","fixation cross","null","","","","","","","","","","","",""
"","937","html-keyboard-response","172","242595","0.0-11.0-1.27","AnlQSU3nB6","5bc79ce8f653a50001ce430e","6617fad957f7c6a12ea16e26","6622c275765850925d5146d7","image grid","q","","","","","Phylogenetic_Distractor_Threat_target","2500","ongrid","q","4","Phylogenetic","true","experimental"
"","null","html-keyboard-response","173","242760","0.0-11.0-2.27","AnlQSU3nB6","5bc79ce8f653a50001ce430e","6617fad957f7c6a12ea16e26","6622c275765850925d5146d7","
    <div id=""grid-container"">
        <!-- Grid items will be dynamically added here -->
    </div>    ","null","","","","","","","","","","","",""
"","null","html-keyboard-response","174","243476","0.0-11.0-0.28","AnlQSU3nB6","5bc79ce8f653a50001ce430e","6617fad957f7c6a12ea16e26","6622c275765850925d5146d7","fixation cross","null","","","","","","","","","","","",""
"","751","html-keyboard-response","175","244228","0.0-11.0-1.28","AnlQSU3nB6","5bc79ce8f653a50001ce430e","6617fad957f7c6a12ea16e26","6622c275765850925d5146d7","image grid","q","","","","","Phylogenetic_Distractor_Threat_target","2500","ongrid","q","1","Phylogenetic","true","experimental"
"","null","html-keyboard-response","176","244381","0.0-11.0-2.28","AnlQSU3nB6","5bc79ce8f653a50001ce430e","6617fad957f7c6a12ea16e26","6622c275765850925d5146d7","
    <div id=""grid-container"">
        <!-- Grid items will be dynamically added here -->
    </div>    ","null","","","","","","","","","","","",""
"","null","html-keyboard-response","177","245098","0.0-11.0-0.29","AnlQSU3nB6","5bc79ce8f653a50001ce430e","6617fad957f7c6a12ea16e26","6622c275765850925d5146d7","fixation cross","null","","","","","","","","","","","",""
"","1102","html-keyboard-response","178","246201","0.0-11.0-1.29","AnlQSU3nB6","5bc79ce8f653a50001ce430e","6617fad957f7c6a12ea16e26","6622c275765850925d5146d7","image grid"," ","","","","","Phylogenetic_Distractor_Nonthreat_target","2500","ongrid","p","5","Phylogenetic","false","experimental"
"","null","html-keyboard-response","179","246355","0.0-11.0-2.29","AnlQSU3nB6","5bc79ce8f653a50001ce430e","6617fad957f7c6a12ea16e26","6622c275765850925d5146d7","
    <div id=""grid-container"">
        <!-- Grid items will be dynamically added here -->
    </div>    ","null","","","","","","","","","","","",""
"","null","html-keyboard-response","180","247068","0.0-11.0-0.30","AnlQSU3nB6","5bc79ce8f653a50001ce430e","6617fad957f7c6a12ea16e26","6622c275765850925d5146d7","fixation cross","null","","","","","","","","","","","",""
"","928","html-keyboard-response","181","247997","0.0-11.0-1.30","AnlQSU3nB6","5bc79ce8f653a50001ce430e","6617fad957f7c6a12ea16e26","6622c275765850925d5146d7","image grid","q","","","","","Phylogenetic_Distractor_Threat_target","2500","ongrid","q","6","Phylogenetic","true","experimental"
"","null","html-keyboard-response","182","248159","0.0-11.0-2.30","AnlQSU3nB6","5bc79ce8f653a50001ce430e","6617fad957f7c6a12ea16e26","6622c275765850925d5146d7","
    <div id=""grid-container"">
        <!-- Grid items will be dynamically added here -->
    </div>    ","null","","","","","","","","","","","",""
"","null","html-keyboard-response","183","248873","0.0-11.0-0.31","AnlQSU3nB6","5bc79ce8f653a50001ce430e","6617fad957f7c6a12ea16e26","6622c275765850925d5146d7","fixation cross","null","","","","","","","","","","","",""
"","1955","html-keyboard-response","184","250828","0.0-11.0-1.31","AnlQSU3nB6","5bc79ce8f653a50001ce430e","6617fad957f7c6a12ea16e26","6622c275765850925d5146d7","image grid"," ","","","","","Phylogenetic_Distractor_notarget","2500","ongrid"," ","1","Phylogenetic","true","experimental"
"","null","html-keyboard-response","185","250979","0.0-11.0-2.31","AnlQSU3nB6","5bc79ce8f653a50001ce430e","6617fad957f7c6a12ea16e26","6622c275765850925d5146d7","
    <div id=""grid-container"">
        <!-- Grid items will be dynamically added here -->
    </div>    ","null","","","","","","","","","","","",""
"","null","html-keyboard-response","186","251693","0.0-11.0-0.32","AnlQSU3nB6","5bc79ce8f653a50001ce430e","6617fad957f7c6a12ea16e26","6622c275765850925d5146d7","fixation cross","null","","","","","","","","","","","",""
"","773","html-keyboard-response","187","252466","0.0-11.0-1.32","AnlQSU3nB6","5bc79ce8f653a50001ce430e","6617fad957f7c6a12ea16e26","6622c275765850925d5146d7","image grid","q","","","","","Phylogenetic_Distractor_Threat_target","2500","ongrid","q","5","Phylogenetic","true","experimental"
"","null","html-keyboard-response","188","252626","0.0-11.0-2.32","AnlQSU3nB6","5bc79ce8f653a50001ce430e","6617fad957f7c6a12ea16e26","6622c275765850925d5146d7","
    <div id=""grid-container"">
        <!-- Grid items will be dynamically added here -->
    </div>    ","null","","","","","","","","","","","",""
"","null","html-keyboard-response","189","253342","0.0-11.0-0.33","AnlQSU3nB6","5bc79ce8f653a50001ce430e","6617fad957f7c6a12ea16e26","6622c275765850925d5146d7","fixation cross","null","","","","","","","","","","","",""
"","796","html-keyboard-response","190","254138","0.0-11.0-1.33","AnlQSU3nB6","5bc79ce8f653a50001ce430e","6617fad957f7c6a12ea16e26","6622c275765850925d5146d7","image grid","q","","","","","Phylogenetic_Distractor_Threat_target","2500","ongrid","q","6","Phylogenetic","true","experimental"
"","null","html-keyboard-response","191","254295","0.0-11.0-2.33","AnlQSU3nB6","5bc79ce8f653a50001ce430e","6617fad957f7c6a12ea16e26","6622c275765850925d5146d7","
    <div id=""grid-container"">
        <!-- Grid items will be dynamically added here -->
    </div>    ","null","","","","","","","","","","","",""
"","null","html-keyboard-response","192","255007","0.0-11.0-0.34","AnlQSU3nB6","5bc79ce8f653a50001ce430e","6617fad957f7c6a12ea16e26","6622c275765850925d5146d7","fixation cross","null","","","","","","","","","","","",""
"","830","html-keyboard-response","193","255838","0.0-11.0-1.34","AnlQSU3nB6","5bc79ce8f653a50001ce430e","6617fad957f7c6a12ea16e26","6622c275765850925d5146d7","image grid","p","","","","","Phylogenetic_Distractor_Nonthreat_target","2500","ongrid","p","2","Phylogenetic","true","experimental"
"","null","html-keyboard-response","194","256003","0.0-11.0-2.34","AnlQSU3nB6","5bc79ce8f653a50001ce430e","6617fad957f7c6a12ea16e26","6622c275765850925d5146d7","
    <div id=""grid-container"">
        <!-- Grid items will be dynamically added here -->
    </div>    ","null","","","","","","","","","","","",""
"","null","html-keyboard-response","195","256716","0.0-11.0-0.35","AnlQSU3nB6","5bc79ce8f653a50001ce430e","6617fad957f7c6a12ea16e26","6622c275765850925d5146d7","fixation cross","null","","","","","","","","","","","",""
"","1097","html-keyboard-response","196","257813","0.0-11.0-1.35","AnlQSU3nB6","5bc79ce8f653a50001ce430e","6617fad957f7c6a12ea16e26","6622c275765850925d5146d7","image grid"," ","","","","","Phylogenetic_Distractor_Threat_target","2500","ongrid","q","7","Phylogenetic","false","experimental"
"","null","html-keyboard-response","197","257976","0.0-11.0-2.35","AnlQSU3nB6","5bc79ce8f653a50001ce430e","6617fad957f7c6a12ea16e26","6622c275765850925d5146d7","
    <div id=""grid-container"">
        <!-- Grid items will be dynamically added here -->
    </div>    ","null","","","","","","","","","","","",""
"","null","html-keyboard-response","198","258678","0.0-11.0-0.36","AnlQSU3nB6","5bc79ce8f653a50001ce430e","6617fad957f7c6a12ea16e26","6622c275765850925d5146d7","fixation cross","null","","","","","","","","","","","",""
"","1161","html-keyboard-response","199","259839","0.0-11.0-1.36","AnlQSU3nB6","5bc79ce8f653a50001ce430e","6617fad957f7c6a12ea16e26","6622c275765850925d5146d7","image grid","p","","","","","Phylogenetic_Distractor_Nonthreat_target","2500","ongrid","p","4","Phylogenetic","true","experimental"
"","null","html-keyboard-response","200","259997","0.0-11.0-2.36","AnlQSU3nB6","5bc79ce8f653a50001ce430e","6617fad957f7c6a12ea16e26","6622c275765850925d5146d7","
    <div id=""grid-container"">
        <!-- Grid items will be dynamically added here -->
    </div>    ","null","","","","","","","","","","","",""
"","null","html-keyboard-response","201","260714","0.0-11.0-0.37","AnlQSU3nB6","5bc79ce8f653a50001ce430e","6617fad957f7c6a12ea16e26","6622c275765850925d5146d7","fixation cross","null","","","","","","","","","","","",""
"","655","html-keyboard-response","202","261370","0.0-11.0-1.37","AnlQSU3nB6","5bc79ce8f653a50001ce430e","6617fad957f7c6a12ea16e26","6622c275765850925d5146d7","image grid","q","","","","","Phylogenetic_Distractor_Threat_target","2500","ongrid","q","7","Phylogenetic","true","experimental"
"","null","html-keyboard-response","203","261526","0.0-11.0-2.37","AnlQSU3nB6","5bc79ce8f653a50001ce430e","6617fad957f7c6a12ea16e26","6622c275765850925d5146d7","
    <div id=""grid-container"">
        <!-- Grid items will be dynamically added here -->
    </div>    ","null","","","","","","","","","","","",""
"","null","html-keyboard-response","204","262243","0.0-11.0-0.38","AnlQSU3nB6","5bc79ce8f653a50001ce430e","6617fad957f7c6a12ea16e26","6622c275765850925d5146d7","fixation cross","null","","","","","","","","","","","",""
"","822","html-keyboard-response","205","263065","0.0-11.0-1.38","AnlQSU3nB6","5bc79ce8f653a50001ce430e","6617fad957f7c6a12ea16e26","6622c275765850925d5146d7","image grid","q","","","","","Phylogenetic_Distractor_Threat_target","2500","ongrid","q","7","Phylogenetic","true","experimental"
"","null","html-keyboard-response","206","263223","0.0-11.0-2.38","AnlQSU3nB6","5bc79ce8f653a50001ce430e","6617fad957f7c6a12ea16e26","6622c275765850925d5146d7","
    <div id=""grid-container"">
        <!-- Grid items will be dynamically added here -->
    </div>    ","null","","","","","","","","","","","",""
"","null","html-keyboard-response","207","263940","0.0-11.0-0.39","AnlQSU3nB6","5bc79ce8f653a50001ce430e","6617fad957f7c6a12ea16e26","6622c275765850925d5146d7","fixation cross","null","","","","","","","","","","","",""
"","1179","html-keyboard-response","208","265119","0.0-11.0-1.39","AnlQSU3nB6","5bc79ce8f653a50001ce430e","6617fad957f7c6a12ea16e26","6622c275765850925d5146d7","image grid","p","","","","","Phylogenetic_Distractor_Nonthreat_target","2500","ongrid","p","7","Phylogenetic","true","experimental"
"","null","html-keyboard-response","209","265273","0.0-11.0-2.39","AnlQSU3nB6","5bc79ce8f653a50001ce430e","6617fad957f7c6a12ea16e26","6622c275765850925d5146d7","
    <div id=""grid-container"">
        <!-- Grid items will be dynamically added here -->
    </div>    ","null","","","","","","","","","","","",""
"","3762","html-keyboard-response","210","269257","0.0-12.0","AnlQSU3nB6","5bc79ce8f653a50001ce430e","6617fad957f7c6a12ea16e26","6622c275765850925d5146d7","break screen"," ","","","","","","","","","","","",""
"","null","html-keyboard-response","211","271776","0.0-13.0-0.0","AnlQSU3nB6","5bc79ce8f653a50001ce430e","6617fad957f7c6a12ea16e26","6622c275765850925d5146d7","fixation cross","null","","","","","","","","","","","",""
"","null","html-keyboard-response","212","272582","0.0-13.0-1.0","AnlQSU3nB6","5bc79ce8f653a50001ce430e","6617fad957f7c6a12ea16e26","6622c275765850925d5146d7","
        <div id=""grid-container"">
        <!-- Grid items will be dynamically added here -->
    </div>    ","null","","","","","","","","","","","",""
"","4767","html-keyboard-response","213","276549","0.0-13.0-2.0","AnlQSU3nB6","5bc79ce8f653a50001ce430e","6617fad957f7c6a12ea16e26","6622c275765850925d5146d7","mask grid"," ","","","","","Phylogenetic_Distractor_Nonthreat_target","800","onmask","p","1","Phylogenetic","false","experimental"
"","null","html-keyboard-response","214","277276","0.0-13.0-0.1","AnlQSU3nB6","5bc79ce8f653a50001ce430e","6617fad957f7c6a12ea16e26","6622c275765850925d5146d7","fixation cross","null","","","","","","","","","","","",""
"","null","html-keyboard-response","215","278087","0.0-13.0-1.1","AnlQSU3nB6","5bc79ce8f653a50001ce430e","6617fad957f7c6a12ea16e26","6622c275765850925d5146d7","
        <div id=""grid-container"">
        <!-- Grid items will be dynamically added here -->
    </div>    ","null","","","","","","","","","","","",""
"","1191","html-keyboard-response","216","278478","0.0-13.0-2.1","AnlQSU3nB6","5bc79ce8f653a50001ce430e","6617fad957f7c6a12ea16e26","6622c275765850925d5146d7","mask grid"," ","","","","","Phylogenetic_Distractor_notarget","800","onmask"," ","2","Phylogenetic","true","experimental"
"","null","html-keyboard-response","217","279207","0.0-13.0-0.2","AnlQSU3nB6","5bc79ce8f653a50001ce430e","6617fad957f7c6a12ea16e26","6622c275765850925d5146d7","fixation cross","null","","","","","","","","","","","",""
"","null","html-keyboard-response","218","280018","0.0-13.0-1.2","AnlQSU3nB6","5bc79ce8f653a50001ce430e","6617fad957f7c6a12ea16e26","6622c275765850925d5146d7","
        <div id=""grid-container"">
        <!-- Grid items will be dynamically added here -->
    </div>    ","null","","","","","","","","","","","",""
"","848","html-keyboard-response","219","280066","0.0-13.0-2.2","AnlQSU3nB6","5bc79ce8f653a50001ce430e","6617fad957f7c6a12ea16e26","6622c275765850925d5146d7","mask grid"," ","","","","","Phylogenetic_Distractor_notarget","800","onmask"," ","8","Phylogenetic","true","experimental"
"","null","html-keyboard-response","220","280781","0.0-13.0-0.3","AnlQSU3nB6","5bc79ce8f653a50001ce430e","6617fad957f7c6a12ea16e26","6622c275765850925d5146d7","fixation cross","null","","","","","","","","","","","",""
"","null","html-keyboard-response","221","281592","0.0-13.0-1.3","AnlQSU3nB6","5bc79ce8f653a50001ce430e","6617fad957f7c6a12ea16e26","6622c275765850925d5146d7","
        <div id=""grid-container"">
        <!-- Grid items will be dynamically added here -->
    </div>    ","null","","","","","","","","","","","",""
"","1083","html-keyboard-response","222","281875","0.0-13.0-2.3","AnlQSU3nB6","5bc79ce8f653a50001ce430e","6617fad957f7c6a12ea16e26","6622c275765850925d5146d7","mask grid","p","","","","","Phylogenetic_Distractor_Nonthreat_target","800","onmask","p","8","Phylogenetic","true","experimental"
"","null","html-keyboard-response","223","282592","0.0-13.0-0.4","AnlQSU3nB6","5bc79ce8f653a50001ce430e","6617fad957f7c6a12ea16e26","6622c275765850925d5146d7","fixation cross","null","","","","","","","","","","","",""
"","641","html-keyboard-response","224","283234","0.0-13.0-1.4","AnlQSU3nB6","5bc79ce8f653a50001ce430e","6617fad957f7c6a12ea16e26","6622c275765850925d5146d7","image grid","q","","","","","Phylogenetic_Distractor_Threat_target","800","ongrid","q","2","Phylogenetic","true","experimental"
"","null","html-keyboard-response","225","283385","0.0-13.0-2.4","AnlQSU3nB6","5bc79ce8f653a50001ce430e","6617fad957f7c6a12ea16e26","6622c275765850925d5146d7","
    <div id=""grid-container"">
        <!-- Grid items will be dynamically added here -->
    </div>    ","null","","","","","","","","","","","",""
"","null","html-keyboard-response","226","284100","0.0-13.0-0.5","AnlQSU3nB6","5bc79ce8f653a50001ce430e","6617fad957f7c6a12ea16e26","6622c275765850925d5146d7","fixation cross","null","","","","","","","","","","","",""
"","670","html-keyboard-response","227","284770","0.0-13.0-1.5","AnlQSU3nB6","5bc79ce8f653a50001ce430e","6617fad957f7c6a12ea16e26","6622c275765850925d5146d7","image grid","q","","","","","Phylogenetic_Distractor_Threat_target","800","ongrid","q","2","Phylogenetic","true","experimental"
"","null","html-keyboard-response","228","284925","0.0-13.0-2.5","AnlQSU3nB6","5bc79ce8f653a50001ce430e","6617fad957f7c6a12ea16e26","6622c275765850925d5146d7","
    <div id=""grid-container"">
        <!-- Grid items will be dynamically added here -->
    </div>    ","null","","","","","","","","","","","",""
"","null","html-keyboard-response","229","285641","0.0-13.0-0.6","AnlQSU3nB6","5bc79ce8f653a50001ce430e","6617fad957f7c6a12ea16e26","6622c275765850925d5146d7","fixation cross","null","","","","","","","","","","","",""
"","null","html-keyboard-response","230","286452","0.0-13.0-1.6","AnlQSU3nB6","5bc79ce8f653a50001ce430e","6617fad957f7c6a12ea16e26","6622c275765850925d5146d7","
        <div id=""grid-container"">
        <!-- Grid items will be dynamically added here -->
    </div>    ","null","","","","","","","","","","","",""
"","843","html-keyboard-response","231","286495","0.0-13.0-2.6","AnlQSU3nB6","5bc79ce8f653a50001ce430e","6617fad957f7c6a12ea16e26","6622c275765850925d5146d7","mask grid","q","","","","","Phylogenetic_Distractor_Threat_target","800","onmask","q","6","Phylogenetic","true","experimental"
"","null","html-keyboard-response","232","287218","0.0-13.0-0.7","AnlQSU3nB6","5bc79ce8f653a50001ce430e","6617fad957f7c6a12ea16e26","6622c275765850925d5146d7","fixation cross","null","","","","","","","","","","","",""
"","616","html-keyboard-response","233","287835","0.0-13.0-1.7","AnlQSU3nB6","5bc79ce8f653a50001ce430e","6617fad957f7c6a12ea16e26","6622c275765850925d5146d7","image grid","q","","","","","Phylogenetic_Distractor_Threat_target","800","ongrid","q","5","Phylogenetic","true","experimental"
"","null","html-keyboard-response","234","287987","0.0-13.0-2.7","AnlQSU3nB6","5bc79ce8f653a50001ce430e","6617fad957f7c6a12ea16e26","6622c275765850925d5146d7","
    <div id=""grid-container"">
        <!-- Grid items will be dynamically added here -->
    </div>    ","null","","","","","","","","","","","",""
"","null","html-keyboard-response","235","288714","0.0-13.0-0.8","AnlQSU3nB6","5bc79ce8f653a50001ce430e","6617fad957f7c6a12ea16e26","6622c275765850925d5146d7","fixation cross","null","","","","","","","","","","","",""
"","634","html-keyboard-response","236","289349","0.0-13.0-1.8","AnlQSU3nB6","5bc79ce8f653a50001ce430e","6617fad957f7c6a12ea16e26","6622c275765850925d5146d7","image grid","q","","","","","Phylogenetic_Distractor_Threat_target","800","ongrid","q","2","Phylogenetic","true","experimental"
"","null","html-keyboard-response","237","289500","0.0-13.0-2.8","AnlQSU3nB6","5bc79ce8f653a50001ce430e","6617fad957f7c6a12ea16e26","6622c275765850925d5146d7","
    <div id=""grid-container"">
        <!-- Grid items will be dynamically added here -->
    </div>    ","null","","","","","","","","","","","",""
"","null","html-keyboard-response","238","290223","0.0-13.0-0.9","AnlQSU3nB6","5bc79ce8f653a50001ce430e","6617fad957f7c6a12ea16e26","6622c275765850925d5146d7","fixation cross","null","","","","","","","","","","","",""
"","783","html-keyboard-response","239","291007","0.0-13.0-1.9","AnlQSU3nB6","5bc79ce8f653a50001ce430e","6617fad957f7c6a12ea16e26","6622c275765850925d5146d7","image grid","q","","","","","Phylogenetic_Distractor_Threat_target","800","ongrid","q","5","Phylogenetic","true","experimental"
"","null","html-keyboard-response","240","291163","0.0-13.0-2.9","AnlQSU3nB6","5bc79ce8f653a50001ce430e","6617fad957f7c6a12ea16e26","6622c275765850925d5146d7","
    <div id=""grid-container"">
        <!-- Grid items will be dynamically added here -->
    </div>    ","null","","","","","","","","","","","",""
"","null","html-keyboard-response","241","291884","0.0-13.0-0.10","AnlQSU3nB6","5bc79ce8f653a50001ce430e","6617fad957f7c6a12ea16e26","6622c275765850925d5146d7","fixation cross","null","","","","","","","","","","","",""
"","741","html-keyboard-response","242","292625","0.0-13.0-1.10","AnlQSU3nB6","5bc79ce8f653a50001ce430e","6617fad957f7c6a12ea16e26","6622c275765850925d5146d7","image grid","p","","","","","Phylogenetic_Distractor_Nonthreat_target","800","ongrid","p","1","Phylogenetic","true","experimental"
"","null","html-keyboard-response","243","292786","0.0-13.0-2.10","AnlQSU3nB6","5bc79ce8f653a50001ce430e","6617fad957f7c6a12ea16e26","6622c275765850925d5146d7","
    <div id=""grid-container"">
        <!-- Grid items will be dynamically added here -->
    </div>    ","null","","","","","","","","","","","",""
"","null","html-keyboard-response","244","293503","0.0-13.0-0.11","AnlQSU3nB6","5bc79ce8f653a50001ce430e","6617fad957f7c6a12ea16e26","6622c275765850925d5146d7","fixation cross","null","","","","","","","","","","","",""
"","null","html-keyboard-response","245","294310","0.0-13.0-1.11","AnlQSU3nB6","5bc79ce8f653a50001ce430e","6617fad957f7c6a12ea16e26","6622c275765850925d5146d7","
        <div id=""grid-container"">
        <!-- Grid items will be dynamically added here -->
    </div>    ","null","","","","","","","","","","","",""
"","1388","html-keyboard-response","246","294898","0.0-13.0-2.11","AnlQSU3nB6","5bc79ce8f653a50001ce430e","6617fad957f7c6a12ea16e26","6622c275765850925d5146d7","mask grid"," ","","","","","Phylogenetic_Distractor_Nonthreat_target","800","onmask","p","9","Phylogenetic","false","experimental"
"","null","html-keyboard-response","247","295617","0.0-13.0-0.12","AnlQSU3nB6","5bc79ce8f653a50001ce430e","6617fad957f7c6a12ea16e26","6622c275765850925d5146d7","fixation cross","null","","","","","","","","","","","",""
"","null","html-keyboard-response","248","296424","0.0-13.0-1.12","AnlQSU3nB6","5bc79ce8f653a50001ce430e","6617fad957f7c6a12ea16e26","6622c275765850925d5146d7","
        <div id=""grid-container"">
        <!-- Grid items will be dynamically added here -->
    </div>    ","null","","","","","","","","","","","",""
"","1109","html-keyboard-response","249","296733","0.0-13.0-2.12","AnlQSU3nB6","5bc79ce8f653a50001ce430e","6617fad957f7c6a12ea16e26","6622c275765850925d5146d7","mask grid","p","","","","","Phylogenetic_Distractor_Nonthreat_target","800","onmask","p","6","Phylogenetic","true","experimental"
"","null","html-keyboard-response","250","297451","0.0-13.0-0.13","AnlQSU3nB6","5bc79ce8f653a50001ce430e","6617fad957f7c6a12ea16e26","6622c275765850925d5146d7","fixation cross","null","","","","","","","","","","","",""
"","null","html-keyboard-response","251","298265","0.0-13.0-1.13","AnlQSU3nB6","5bc79ce8f653a50001ce430e","6617fad957f7c6a12ea16e26","6622c275765850925d5146d7","
        <div id=""grid-container"">
        <!-- Grid items will be dynamically added here -->
    </div>    ","null","","","","","","","","","","","",""
"","1245","html-keyboard-response","252","298710","0.0-13.0-2.13","AnlQSU3nB6","5bc79ce8f653a50001ce430e","6617fad957f7c6a12ea16e26","6622c275765850925d5146d7","mask grid"," ","","","","","Phylogenetic_Distractor_Nonthreat_target","800","onmask","p","1","Phylogenetic","false","experimental"
"","null","html-keyboard-response","253","299428","0.0-13.0-0.14","AnlQSU3nB6","5bc79ce8f653a50001ce430e","6617fad957f7c6a12ea16e26","6622c275765850925d5146d7","fixation cross","null","","","","","","","","","","","",""
"","789","html-keyboard-response","254","300218","0.0-13.0-1.14","AnlQSU3nB6","5bc79ce8f653a50001ce430e","6617fad957f7c6a12ea16e26","6622c275765850925d5146d7","image grid","p","","","","","Phylogenetic_Distractor_Nonthreat_target","800","ongrid","p","4","Phylogenetic","true","experimental"
"","null","html-keyboard-response","255","300381","0.0-13.0-2.14","AnlQSU3nB6","5bc79ce8f653a50001ce430e","6617fad957f7c6a12ea16e26","6622c275765850925d5146d7","
    <div id=""grid-container"">
        <!-- Grid items will be dynamically added here -->
    </div>    ","null","","","","","","","","","","","",""
"","null","html-keyboard-response","256","301097","0.0-13.0-0.15","AnlQSU3nB6","5bc79ce8f653a50001ce430e","6617fad957f7c6a12ea16e26","6622c275765850925d5146d7","fixation cross","null","","","","","","","","","","","",""
"","null","html-keyboard-response","257","301897","0.0-13.0-1.15","AnlQSU3nB6","5bc79ce8f653a50001ce430e","6617fad957f7c6a12ea16e26","6622c275765850925d5146d7","
        <div id=""grid-container"">
        <!-- Grid items will be dynamically added here -->
    </div>    ","null","","","","","","","","","","","",""
"","1046","html-keyboard-response","258","302144","0.0-13.0-2.15","AnlQSU3nB6","5bc79ce8f653a50001ce430e","6617fad957f7c6a12ea16e26","6622c275765850925d5146d7","mask grid","p","","","","","Phylogenetic_Distractor_Nonthreat_target","800","onmask","p","3","Phylogenetic","true","experimental"
"","null","html-keyboard-response","259","302868","0.0-13.0-0.16","AnlQSU3nB6","5bc79ce8f653a50001ce430e","6617fad957f7c6a12ea16e26","6622c275765850925d5146d7","fixation cross","null","","","","","","","","","","","",""
"","707","html-keyboard-response","260","303576","0.0-13.0-1.16","AnlQSU3nB6","5bc79ce8f653a50001ce430e","6617fad957f7c6a12ea16e26","6622c275765850925d5146d7","image grid","p","","","","","Phylogenetic_Distractor_Nonthreat_target","800","ongrid","p","1","Phylogenetic","true","experimental"
"","null","html-keyboard-response","261","303727","0.0-13.0-2.16","AnlQSU3nB6","5bc79ce8f653a50001ce430e","6617fad957f7c6a12ea16e26","6622c275765850925d5146d7","
    <div id=""grid-container"">
        <!-- Grid items will be dynamically added here -->
    </div>    ","null","","","","","","","","","","","",""
"","null","html-keyboard-response","262","304445","0.0-13.0-0.17","AnlQSU3nB6","5bc79ce8f653a50001ce430e","6617fad957f7c6a12ea16e26","6622c275765850925d5146d7","fixation cross","null","","","","","","","","","","","",""
"","null","html-keyboard-response","263","305253","0.0-13.0-1.17","AnlQSU3nB6","5bc79ce8f653a50001ce430e","6617fad957f7c6a12ea16e26","6622c275765850925d5146d7","
        <div id=""grid-container"">
        <!-- Grid items will be dynamically added here -->
    </div>    ","null","","","","","","","","","","","",""
"","1122","html-keyboard-response","264","305575","0.0-13.0-2.17","AnlQSU3nB6","5bc79ce8f653a50001ce430e","6617fad957f7c6a12ea16e26","6622c275765850925d5146d7","mask grid","q","","","","","Phylogenetic_Distractor_Threat_target","800","onmask","q","2","Phylogenetic","true","experimental"
"","null","html-keyboard-response","265","306296","0.0-13.0-0.18","AnlQSU3nB6","5bc79ce8f653a50001ce430e","6617fad957f7c6a12ea16e26","6622c275765850925d5146d7","fixation cross","null","","","","","","","","","","","",""
"","null","html-keyboard-response","266","307109","0.0-13.0-1.18","AnlQSU3nB6","5bc79ce8f653a50001ce430e","6617fad957f7c6a12ea16e26","6622c275765850925d5146d7","
        <div id=""grid-container"">
        <!-- Grid items will be dynamically added here -->
    </div>    ","null","","","","","","","","","","","",""
"","866","html-keyboard-response","267","307175","0.0-13.0-2.18","AnlQSU3nB6","5bc79ce8f653a50001ce430e","6617fad957f7c6a12ea16e26","6622c275765850925d5146d7","mask grid","p","","","","","Phylogenetic_Distractor_Nonthreat_target","800","onmask","p","9","Phylogenetic","true","experimental"
"","null","html-keyboard-response","268","307902","0.0-13.0-0.19","AnlQSU3nB6","5bc79ce8f653a50001ce430e","6617fad957f7c6a12ea16e26","6622c275765850925d5146d7","fixation cross","null","","","","","","","","","","","",""
"","692","html-keyboard-response","269","308594","0.0-13.0-1.19","AnlQSU3nB6","5bc79ce8f653a50001ce430e","6617fad957f7c6a12ea16e26","6622c275765850925d5146d7","image grid","q","","","","","Phylogenetic_Distractor_Threat_target","800","ongrid","q","4","Phylogenetic","true","experimental"
"","null","html-keyboard-response","270","308761","0.0-13.0-2.19","AnlQSU3nB6","5bc79ce8f653a50001ce430e","6617fad957f7c6a12ea16e26","6622c275765850925d5146d7","
    <div id=""grid-container"">
        <!-- Grid items will be dynamically added here -->
    </div>    ","null","","","","","","","","","","","",""
"","null","html-keyboard-response","271","309474","0.0-13.0-0.20","AnlQSU3nB6","5bc79ce8f653a50001ce430e","6617fad957f7c6a12ea16e26","6622c275765850925d5146d7","fixation cross","null","","","","","","","","","","","",""
"","null","html-keyboard-response","272","310284","0.0-13.0-1.20","AnlQSU3nB6","5bc79ce8f653a50001ce430e","6617fad957f7c6a12ea16e26","6622c275765850925d5146d7","
        <div id=""grid-container"">
        <!-- Grid items will be dynamically added here -->
    </div>    ","null","","","","","","","","","","","",""
"","865","html-keyboard-response","273","310349","0.0-13.0-2.20","AnlQSU3nB6","5bc79ce8f653a50001ce430e","6617fad957f7c6a12ea16e26","6622c275765850925d5146d7","mask grid","p","","","","","Phylogenetic_Distractor_Nonthreat_target","800","onmask","p","3","Phylogenetic","true","experimental"
"","null","html-keyboard-response","274","311080","0.0-13.0-0.21","AnlQSU3nB6","5bc79ce8f653a50001ce430e","6617fad957f7c6a12ea16e26","6622c275765850925d5146d7","fixation cross","null","","","","","","","","","","","",""
"","755","html-keyboard-response","275","311835","0.0-13.0-1.21","AnlQSU3nB6","5bc79ce8f653a50001ce430e","6617fad957f7c6a12ea16e26","6622c275765850925d5146d7","image grid","p","","","","","Phylogenetic_Distractor_Nonthreat_target","800","ongrid","p","2","Phylogenetic","true","experimental"
"","null","html-keyboard-response","276","312002","0.0-13.0-2.21","AnlQSU3nB6","5bc79ce8f653a50001ce430e","6617fad957f7c6a12ea16e26","6622c275765850925d5146d7","
    <div id=""grid-container"">
        <!-- Grid items will be dynamically added here -->
    </div>    ","null","","","","","","","","","","","",""
"","null","html-keyboard-response","277","312717","0.0-13.0-0.22","AnlQSU3nB6","5bc79ce8f653a50001ce430e","6617fad957f7c6a12ea16e26","6622c275765850925d5146d7","fixation cross","null","","","","","","","","","","","",""
"","570","html-keyboard-response","278","313287","0.0-13.0-1.22","AnlQSU3nB6","5bc79ce8f653a50001ce430e","6617fad957f7c6a12ea16e26","6622c275765850925d5146d7","image grid","q","","","","","Phylogenetic_Distractor_Threat_target","800","ongrid","q","4","Phylogenetic","true","experimental"
"","null","html-keyboard-response","279","313447","0.0-13.0-2.22","AnlQSU3nB6","5bc79ce8f653a50001ce430e","6617fad957f7c6a12ea16e26","6622c275765850925d5146d7","
    <div id=""grid-container"">
        <!-- Grid items will be dynamically added here -->
    </div>    ","null","","","","","","","","","","","",""
"","null","html-keyboard-response","280","314165","0.0-13.0-0.23","AnlQSU3nB6","5bc79ce8f653a50001ce430e","6617fad957f7c6a12ea16e26","6622c275765850925d5146d7","fixation cross","null","","","","","","","","","","","",""
"","null","html-keyboard-response","281","314972","0.0-13.0-1.23","AnlQSU3nB6","5bc79ce8f653a50001ce430e","6617fad957f7c6a12ea16e26","6622c275765850925d5146d7","
        <div id=""grid-container"">
        <!-- Grid items will be dynamically added here -->
    </div>    ","null","","","","","","","","","","","",""
"","815","html-keyboard-response","282","314987","0.0-13.0-2.23","AnlQSU3nB6","5bc79ce8f653a50001ce430e","6617fad957f7c6a12ea16e26","6622c275765850925d5146d7","mask grid","p","","","","","Phylogenetic_Distractor_notarget","800","onmask"," ","6","Phylogenetic","false","experimental"
"","null","html-keyboard-response","283","315691","0.0-13.0-0.24","AnlQSU3nB6","5bc79ce8f653a50001ce430e","6617fad957f7c6a12ea16e26","6622c275765850925d5146d7","fixation cross","null","","","","","","","","","","","",""
"","null","html-keyboard-response","284","316496","0.0-13.0-1.24","AnlQSU3nB6","5bc79ce8f653a50001ce430e","6617fad957f7c6a12ea16e26","6622c275765850925d5146d7","
        <div id=""grid-container"">
        <!-- Grid items will be dynamically added here -->
    </div>    ","null","","","","","","","","","","","",""
"","4021","html-keyboard-response","285","319718","0.0-13.0-2.24","AnlQSU3nB6","5bc79ce8f653a50001ce430e","6617fad957f7c6a12ea16e26","6622c275765850925d5146d7","mask grid"," ","","","","","Phylogenetic_Distractor_notarget","800","onmask"," ","3","Phylogenetic","true","experimental"
"","null","html-keyboard-response","286","320436","0.0-13.0-0.25","AnlQSU3nB6","5bc79ce8f653a50001ce430e","6617fad957f7c6a12ea16e26","6622c275765850925d5146d7","fixation cross","null","","","","","","","","","","","",""
"","747","html-keyboard-response","287","321183","0.0-13.0-1.25","AnlQSU3nB6","5bc79ce8f653a50001ce430e","6617fad957f7c6a12ea16e26","6622c275765850925d5146d7","image grid","p","","","","","Phylogenetic_Distractor_Nonthreat_target","800","ongrid","p","7","Phylogenetic","true","experimental"
"","null","html-keyboard-response","288","321342","0.0-13.0-2.25","AnlQSU3nB6","5bc79ce8f653a50001ce430e","6617fad957f7c6a12ea16e26","6622c275765850925d5146d7","
    <div id=""grid-container"">
        <!-- Grid items will be dynamically added here -->
    </div>    ","null","","","","","","","","","","","",""
"","null","html-keyboard-response","289","322059","0.0-13.0-0.26","AnlQSU3nB6","5bc79ce8f653a50001ce430e","6617fad957f7c6a12ea16e26","6622c275765850925d5146d7","fixation cross","null","","","","","","","","","","","",""
"","null","html-keyboard-response","290","322868","0.0-13.0-1.26","AnlQSU3nB6","5bc79ce8f653a50001ce430e","6617fad957f7c6a12ea16e26","6622c275765850925d5146d7","
        <div id=""grid-container"">
        <!-- Grid items will be dynamically added here -->
    </div>    ","null","","","","","","","","","","","",""
"","920","html-keyboard-response","291","322988","0.0-13.0-2.26","AnlQSU3nB6","5bc79ce8f653a50001ce430e","6617fad957f7c6a12ea16e26","6622c275765850925d5146d7","mask grid","p","","","","","Phylogenetic_Distractor_Nonthreat_target","800","onmask","p","2","Phylogenetic","true","experimental"
"","null","html-keyboard-response","292","323709","0.0-13.0-0.27","AnlQSU3nB6","5bc79ce8f653a50001ce430e","6617fad957f7c6a12ea16e26","6622c275765850925d5146d7","fixation cross","null","","","","","","","","","","","",""
"","799","html-keyboard-response","293","324508","0.0-13.0-1.27","AnlQSU3nB6","5bc79ce8f653a50001ce430e","6617fad957f7c6a12ea16e26","6622c275765850925d5146d7","image grid","q","","","","","Phylogenetic_Distractor_Threat_target","800","ongrid","q","8","Phylogenetic","true","experimental"
"","null","html-keyboard-response","294","324673","0.0-13.0-2.27","AnlQSU3nB6","5bc79ce8f653a50001ce430e","6617fad957f7c6a12ea16e26","6622c275765850925d5146d7","
    <div id=""grid-container"">
        <!-- Grid items will be dynamically added here -->
    </div>    ","null","","","","","","","","","","","",""
"","null","html-keyboard-response","295","325386","0.0-13.0-0.28","AnlQSU3nB6","5bc79ce8f653a50001ce430e","6617fad957f7c6a12ea16e26","6622c275765850925d5146d7","fixation cross","null","","","","","","","","","","","",""
"","667","html-keyboard-response","296","326054","0.0-13.0-1.28","AnlQSU3nB6","5bc79ce8f653a50001ce430e","6617fad957f7c6a12ea16e26","6622c275765850925d5146d7","image grid","q","","","","","Phylogenetic_Distractor_Threat_target","800","ongrid","q","2","Phylogenetic","true","experimental"
"","null","html-keyboard-response","297","326211","0.0-13.0-2.28","AnlQSU3nB6","5bc79ce8f653a50001ce430e","6617fad957f7c6a12ea16e26","6622c275765850925d5146d7","
    <div id=""grid-container"">
        <!-- Grid items will be dynamically added here -->
    </div>    ","null","","","","","","","","","","","",""
"","null","html-keyboard-response","298","326914","0.0-13.0-0.29","AnlQSU3nB6","5bc79ce8f653a50001ce430e","6617fad957f7c6a12ea16e26","6622c275765850925d5146d7","fixation cross","null","","","","","","","","","","","",""
"","462","html-keyboard-response","299","327376","0.0-13.0-1.29","AnlQSU3nB6","5bc79ce8f653a50001ce430e","6617fad957f7c6a12ea16e26","6622c275765850925d5146d7","image grid","q","","","","","Phylogenetic_Distractor_Threat_target","800","ongrid","q","4","Phylogenetic","true","experimental"
"","null","html-keyboard-response","300","327536","0.0-13.0-2.29","AnlQSU3nB6","5bc79ce8f653a50001ce430e","6617fad957f7c6a12ea16e26","6622c275765850925d5146d7","
    <div id=""grid-container"">
        <!-- Grid items will be dynamically added here -->
    </div>    ","null","","","","","","","","","","","",""
"","null","html-keyboard-response","301","328254","0.0-13.0-0.30","AnlQSU3nB6","5bc79ce8f653a50001ce430e","6617fad957f7c6a12ea16e26","6622c275765850925d5146d7","fixation cross","null","","","","","","","","","","","",""
"","null","html-keyboard-response","302","329063","0.0-13.0-1.30","AnlQSU3nB6","5bc79ce8f653a50001ce430e","6617fad957f7c6a12ea16e26","6622c275765850925d5146d7","
        <div id=""grid-container"">
        <!-- Grid items will be dynamically added here -->
    </div>    ","null","","","","","","","","","","","",""
"","1033","html-keyboard-response","303","329297","0.0-13.0-2.30","AnlQSU3nB6","5bc79ce8f653a50001ce430e","6617fad957f7c6a12ea16e26","6622c275765850925d5146d7","mask grid"," ","","","","","Phylogenetic_Distractor_Nonthreat_target","800","onmask","p","5","Phylogenetic","false","experimental"
"","null","html-keyboard-response","304","330011","0.0-13.0-0.31","AnlQSU3nB6","5bc79ce8f653a50001ce430e","6617fad957f7c6a12ea16e26","6622c275765850925d5146d7","fixation cross","null","","","","","","","","","","","",""
"","null","html-keyboard-response","305","330824","0.0-13.0-1.31","AnlQSU3nB6","5bc79ce8f653a50001ce430e","6617fad957f7c6a12ea16e26","6622c275765850925d5146d7","
        <div id=""grid-container"">
        <!-- Grid items will be dynamically added here -->
    </div>    ","null","","","","","","","","","","","",""
"","1032","html-keyboard-response","306","331056","0.0-13.0-2.31","AnlQSU3nB6","5bc79ce8f653a50001ce430e","6617fad957f7c6a12ea16e26","6622c275765850925d5146d7","mask grid"," ","","","","","Phylogenetic_Distractor_Nonthreat_target","800","onmask","p","5","Phylogenetic","false","experimental"
"","null","html-keyboard-response","307","331775","0.0-13.0-0.32","AnlQSU3nB6","5bc79ce8f653a50001ce430e","6617fad957f7c6a12ea16e26","6622c275765850925d5146d7","fixation cross","null","","","","","","","","","","","",""
"","705","html-keyboard-response","308","332480","0.0-13.0-1.32","AnlQSU3nB6","5bc79ce8f653a50001ce430e","6617fad957f7c6a12ea16e26","6622c275765850925d5146d7","image grid","q","","","","","Phylogenetic_Distractor_Threat_target","800","ongrid","q","2","Phylogenetic","true","experimental"
"","null","html-keyboard-response","309","332632","0.0-13.0-2.32","AnlQSU3nB6","5bc79ce8f653a50001ce430e","6617fad957f7c6a12ea16e26","6622c275765850925d5146d7","
    <div id=""grid-container"">
        <!-- Grid items will be dynamically added here -->
    </div>    ","null","","","","","","","","","","","",""
"","null","html-keyboard-response","310","333350","0.0-13.0-0.33","AnlQSU3nB6","5bc79ce8f653a50001ce430e","6617fad957f7c6a12ea16e26","6622c275765850925d5146d7","fixation cross","null","","","","","","","","","","","",""
"","617","html-keyboard-response","311","333967","0.0-13.0-1.33","AnlQSU3nB6","5bc79ce8f653a50001ce430e","6617fad957f7c6a12ea16e26","6622c275765850925d5146d7","image grid","q","","","","","Phylogenetic_Distractor_Threat_target","800","ongrid","q","2","Phylogenetic","true","experimental"
"","null","html-keyboard-response","312","334130","0.0-13.0-2.33","AnlQSU3nB6","5bc79ce8f653a50001ce430e","6617fad957f7c6a12ea16e26","6622c275765850925d5146d7","
    <div id=""grid-container"">
        <!-- Grid items will be dynamically added here -->
    </div>    ","null","","","","","","","","","","","",""
"","null","html-keyboard-response","313","334834","0.0-13.0-0.34","AnlQSU3nB6","5bc79ce8f653a50001ce430e","6617fad957f7c6a12ea16e26","6622c275765850925d5146d7","fixation cross","null","","","","","","","","","","","",""
"","null","html-keyboard-response","314","335648","0.0-13.0-1.34","AnlQSU3nB6","5bc79ce8f653a50001ce430e","6617fad957f7c6a12ea16e26","6622c275765850925d5146d7","
        <div id=""grid-container"">
        <!-- Grid items will be dynamically added here -->
    </div>    ","null","","","","","","","","","","","",""
"","981","html-keyboard-response","315","335830","0.0-13.0-2.34","AnlQSU3nB6","5bc79ce8f653a50001ce430e","6617fad957f7c6a12ea16e26","6622c275765850925d5146d7","mask grid","p","","","","","Phylogenetic_Distractor_Nonthreat_target","800","onmask","p","4","Phylogenetic","true","experimental"
"","null","html-keyboard-response","316","336537","0.0-13.0-0.35","AnlQSU3nB6","5bc79ce8f653a50001ce430e","6617fad957f7c6a12ea16e26","6622c275765850925d5146d7","fixation cross","null","","","","","","","","","","","",""
"","744","html-keyboard-response","317","337281","0.0-13.0-1.35","AnlQSU3nB6","5bc79ce8f653a50001ce430e","6617fad957f7c6a12ea16e26","6622c275765850925d5146d7","image grid","q","","","","","Phylogenetic_Distractor_Threat_target","800","ongrid","q","4","Phylogenetic","true","experimental"
"","null","html-keyboard-response","318","337441","0.0-13.0-2.35","AnlQSU3nB6","5bc79ce8f653a50001ce430e","6617fad957f7c6a12ea16e26","6622c275765850925d5146d7","
    <div id=""grid-container"">
        <!-- Grid items will be dynamically added here -->
    </div>    ","null","","","","","","","","","","","",""
"","null","html-keyboard-response","319","338157","0.0-13.0-0.36","AnlQSU3nB6","5bc79ce8f653a50001ce430e","6617fad957f7c6a12ea16e26","6622c275765850925d5146d7","fixation cross","null","","","","","","","","","","","",""
"","559","html-keyboard-response","320","338716","0.0-13.0-1.36","AnlQSU3nB6","5bc79ce8f653a50001ce430e","6617fad957f7c6a12ea16e26","6622c275765850925d5146d7","image grid","q","","","","","Phylogenetic_Distractor_Threat_target","800","ongrid","q","2","Phylogenetic","true","experimental"
"","null","html-keyboard-response","321","338873","0.0-13.0-2.36","AnlQSU3nB6","5bc79ce8f653a50001ce430e","6617fad957f7c6a12ea16e26","6622c275765850925d5146d7","
    <div id=""grid-container"">
        <!-- Grid items will be dynamically added here -->
    </div>    ","null","","","","","","","","","","","",""
"","null","html-keyboard-response","322","339588","0.0-13.0-0.37","AnlQSU3nB6","5bc79ce8f653a50001ce430e","6617fad957f7c6a12ea16e26","6622c275765850925d5146d7","fixation cross","null","","","","","","","","","","","",""
"","null","html-keyboard-response","323","340399","0.0-13.0-1.37","AnlQSU3nB6","5bc79ce8f653a50001ce430e","6617fad957f7c6a12ea16e26","6622c275765850925d5146d7","
        <div id=""grid-container"">
        <!-- Grid items will be dynamically added here -->
    </div>    ","null","","","","","","","","","","","",""
"","1709","html-keyboard-response","324","341308","0.0-13.0-2.37","AnlQSU3nB6","5bc79ce8f653a50001ce430e","6617fad957f7c6a12ea16e26","6622c275765850925d5146d7","mask grid","p","","","","","Phylogenetic_Distractor_Nonthreat_target","800","onmask","p","5","Phylogenetic","true","experimental"
"","null","html-keyboard-response","325","342036","0.0-13.0-0.38","AnlQSU3nB6","5bc79ce8f653a50001ce430e","6617fad957f7c6a12ea16e26","6622c275765850925d5146d7","fixation cross","null","","","","","","","","","","","",""
"","700","html-keyboard-response","326","342735","0.0-13.0-1.38","AnlQSU3nB6","5bc79ce8f653a50001ce430e","6617fad957f7c6a12ea16e26","6622c275765850925d5146d7","image grid","q","","","","","Phylogenetic_Distractor_Threat_target","800","ongrid","q","9","Phylogenetic","true","experimental"
"","null","html-keyboard-response","327","342892","0.0-13.0-2.38","AnlQSU3nB6","5bc79ce8f653a50001ce430e","6617fad957f7c6a12ea16e26","6622c275765850925d5146d7","
    <div id=""grid-container"">
        <!-- Grid items will be dynamically added here -->
    </div>    ","null","","","","","","","","","","","",""
"","null","html-keyboard-response","328","343598","0.0-13.0-0.39","AnlQSU3nB6","5bc79ce8f653a50001ce430e","6617fad957f7c6a12ea16e26","6622c275765850925d5146d7","fixation cross","null","","","","","","","","","","","",""
"","736","html-keyboard-response","329","344334","0.0-13.0-1.39","AnlQSU3nB6","5bc79ce8f653a50001ce430e","6617fad957f7c6a12ea16e26","6622c275765850925d5146d7","image grid","q","","","","","Phylogenetic_Distractor_Threat_target","800","ongrid","q","6","Phylogenetic","true","experimental"
"","null","html-keyboard-response","330","344490","0.0-13.0-2.39","AnlQSU3nB6","5bc79ce8f653a50001ce430e","6617fad957f7c6a12ea16e26","6622c275765850925d5146d7","
    <div id=""grid-container"">
        <!-- Grid items will be dynamically added here -->
    </div>    ","null","","","","","","","","","","","",""
"","1167","html-keyboard-response","331","345873","0.0-14.0","AnlQSU3nB6","5bc79ce8f653a50001ce430e","6617fad957f7c6a12ea16e26","6622c275765850925d5146d7","break screen"," ","","","","","","","","","","","",""
"","null","html-keyboard-response","332","348397","0.0-15.0-0.0","AnlQSU3nB6","5bc79ce8f653a50001ce430e","6617fad957f7c6a12ea16e26","6622c275765850925d5146d7","fixation cross","null","","","","","","","","","","","",""
"","null","html-keyboard-response","333","350907","0.0-15.0-1.0","AnlQSU3nB6","5bc79ce8f653a50001ce430e","6617fad957f7c6a12ea16e26","6622c275765850925d5146d7","
        <div id=""grid-container"">
        <!-- Grid items will be dynamically added here -->
    </div>    ","null","","","","","","","","","","","",""
"","2691","html-keyboard-response","334","351099","0.0-15.0-2.0","AnlQSU3nB6","5bc79ce8f653a50001ce430e","6617fad957f7c6a12ea16e26","6622c275765850925d5146d7","mask grid","p","","","","","Ontogenetic_Distractor_Nonthreat_target","2500","onmask","p","6","Ontogenetic","true","experimental"
"","null","html-keyboard-response","335","351817","0.0-15.0-0.1","AnlQSU3nB6","5bc79ce8f653a50001ce430e","6617fad957f7c6a12ea16e26","6622c275765850925d5146d7","fixation cross","null","","","","","","","","","","","",""
"","1407","html-keyboard-response","336","353224","0.0-15.0-1.1","AnlQSU3nB6","5bc79ce8f653a50001ce430e","6617fad957f7c6a12ea16e26","6622c275765850925d5146d7","image grid"," ","","","","","Ontogenetic_Distractor_notarget","2500","ongrid"," ","4","Ontogenetic","true","experimental"
"","null","html-keyboard-response","337","353388","0.0-15.0-2.1","AnlQSU3nB6","5bc79ce8f653a50001ce430e","6617fad957f7c6a12ea16e26","6622c275765850925d5146d7","
    <div id=""grid-container"">
        <!-- Grid items will be dynamically added here -->
    </div>    ","null","","","","","","","","","","","",""
"","null","html-keyboard-response","338","354095","0.0-15.0-0.2","AnlQSU3nB6","5bc79ce8f653a50001ce430e","6617fad957f7c6a12ea16e26","6622c275765850925d5146d7","fixation cross","null","","","","","","","","","","","",""
"","1265","html-keyboard-response","339","355360","0.0-15.0-1.2","AnlQSU3nB6","5bc79ce8f653a50001ce430e","6617fad957f7c6a12ea16e26","6622c275765850925d5146d7","image grid","q","","","","","Ontogenetic_Distractor_Threat_target","2500","ongrid","q","7","Ontogenetic","true","experimental"
"","null","html-keyboard-response","340","355513","0.0-15.0-2.2","AnlQSU3nB6","5bc79ce8f653a50001ce430e","6617fad957f7c6a12ea16e26","6622c275765850925d5146d7","
    <div id=""grid-container"">
        <!-- Grid items will be dynamically added here -->
    </div>    ","null","","","","","","","","","","","",""
"","null","html-keyboard-response","341","356234","0.0-15.0-0.3","AnlQSU3nB6","5bc79ce8f653a50001ce430e","6617fad957f7c6a12ea16e26","6622c275765850925d5146d7","fixation cross","null","","","","","","","","","","","",""
"","858","html-keyboard-response","342","357092","0.0-15.0-1.3","AnlQSU3nB6","5bc79ce8f653a50001ce430e","6617fad957f7c6a12ea16e26","6622c275765850925d5146d7","image grid","q","","","","","Ontogenetic_Distractor_Threat_target","2500","ongrid","q","6","Ontogenetic","true","experimental"
"","null","html-keyboard-response","343","357249","0.0-15.0-2.3","AnlQSU3nB6","5bc79ce8f653a50001ce430e","6617fad957f7c6a12ea16e26","6622c275765850925d5146d7","
    <div id=""grid-container"">
        <!-- Grid items will be dynamically added here -->
    </div>    ","null","","","","","","","","","","","",""
"","null","html-keyboard-response","344","357976","0.0-15.0-0.4","AnlQSU3nB6","5bc79ce8f653a50001ce430e","6617fad957f7c6a12ea16e26","6622c275765850925d5146d7","fixation cross","null","","","","","","","","","","","",""
"","1103","html-keyboard-response","345","359079","0.0-15.0-1.4","AnlQSU3nB6","5bc79ce8f653a50001ce430e","6617fad957f7c6a12ea16e26","6622c275765850925d5146d7","image grid","q","","","","","Ontogenetic_Distractor_Threat_target","2500","ongrid","q","8","Ontogenetic","true","experimental"
"","null","html-keyboard-response","346","359237","0.0-15.0-2.4","AnlQSU3nB6","5bc79ce8f653a50001ce430e","6617fad957f7c6a12ea16e26","6622c275765850925d5146d7","
    <div id=""grid-container"">
        <!-- Grid items will be dynamically added here -->
    </div>    ","null","","","","","","","","","","","",""
"","null","html-keyboard-response","347","359955","0.0-15.0-0.5","AnlQSU3nB6","5bc79ce8f653a50001ce430e","6617fad957f7c6a12ea16e26","6622c275765850925d5146d7","fixation cross","null","","","","","","","","","","","",""
"","1357","html-keyboard-response","348","361312","0.0-15.0-1.5","AnlQSU3nB6","5bc79ce8f653a50001ce430e","6617fad957f7c6a12ea16e26","6622c275765850925d5146d7","image grid"," ","","","","","Ontogenetic_Distractor_notarget","2500","ongrid"," ","6","Ontogenetic","true","experimental"
"","null","html-keyboard-response","349","361471","0.0-15.0-2.5","AnlQSU3nB6","5bc79ce8f653a50001ce430e","6617fad957f7c6a12ea16e26","6622c275765850925d5146d7","
    <div id=""grid-container"">
        <!-- Grid items will be dynamically added here -->
    </div>    ","null","","","","","","","","","","","",""
"","null","html-keyboard-response","350","362187","0.0-15.0-0.6","AnlQSU3nB6","5bc79ce8f653a50001ce430e","6617fad957f7c6a12ea16e26","6622c275765850925d5146d7","fixation cross","null","","","","","","","","","","","",""
"","720","html-keyboard-response","351","362908","0.0-15.0-1.6","AnlQSU3nB6","5bc79ce8f653a50001ce430e","6617fad957f7c6a12ea16e26","6622c275765850925d5146d7","image grid","p","","","","","Ontogenetic_Distractor_Nonthreat_target","2500","ongrid","p","4","Ontogenetic","true","experimental"
"","null","html-keyboard-response","352","363060","0.0-15.0-2.6","AnlQSU3nB6","5bc79ce8f653a50001ce430e","6617fad957f7c6a12ea16e26","6622c275765850925d5146d7","
    <div id=""grid-container"">
        <!-- Grid items will be dynamically added here -->
    </div>    ","null","","","","","","","","","","","",""
"","null","html-keyboard-response","353","363777","0.0-15.0-0.7","AnlQSU3nB6","5bc79ce8f653a50001ce430e","6617fad957f7c6a12ea16e26","6622c275765850925d5146d7","fixation cross","null","","","","","","","","","","","",""
"","858","html-keyboard-response","354","364634","0.0-15.0-1.7","AnlQSU3nB6","5bc79ce8f653a50001ce430e","6617fad957f7c6a12ea16e26","6622c275765850925d5146d7","image grid","q","","","","","Ontogenetic_Distractor_Threat_target","2500","ongrid","q","8","Ontogenetic","true","experimental"
"","null","html-keyboard-response","355","364792","0.0-15.0-2.7","AnlQSU3nB6","5bc79ce8f653a50001ce430e","6617fad957f7c6a12ea16e26","6622c275765850925d5146d7","
    <div id=""grid-container"">
        <!-- Grid items will be dynamically added here -->
    </div>    ","null","","","","","","","","","","","",""
"","null","html-keyboard-response","356","365523","0.0-15.0-0.8","AnlQSU3nB6","5bc79ce8f653a50001ce430e","6617fad957f7c6a12ea16e26","6622c275765850925d5146d7","fixation cross","null","","","","","","","","","","","",""
"","1540","html-keyboard-response","357","367063","0.0-15.0-1.8","AnlQSU3nB6","5bc79ce8f653a50001ce430e","6617fad957f7c6a12ea16e26","6622c275765850925d5146d7","image grid"," ","","","","","Ontogenetic_Distractor_Nonthreat_target","2500","ongrid","p","4","Ontogenetic","false","experimental"
"","null","html-keyboard-response","358","367223","0.0-15.0-2.8","AnlQSU3nB6","5bc79ce8f653a50001ce430e","6617fad957f7c6a12ea16e26","6622c275765850925d5146d7","
    <div id=""grid-container"">
        <!-- Grid items will be dynamically added here -->
    </div>    ","null","","","","","","","","","","","",""
"","null","html-keyboard-response","359","367940","0.0-15.0-0.9","AnlQSU3nB6","5bc79ce8f653a50001ce430e","6617fad957f7c6a12ea16e26","6622c275765850925d5146d7","fixation cross","null","","","","","","","","","","","",""
"","911","html-keyboard-response","360","368851","0.0-15.0-1.9","AnlQSU3nB6","5bc79ce8f653a50001ce430e","6617fad957f7c6a12ea16e26","6622c275765850925d5146d7","image grid","q","","","","","Ontogenetic_Distractor_Threat_target","2500","ongrid","q","5","Ontogenetic","true","experimental"
"","null","html-keyboard-response","361","369003","0.0-15.0-2.9","AnlQSU3nB6","5bc79ce8f653a50001ce430e","6617fad957f7c6a12ea16e26","6622c275765850925d5146d7","
    <div id=""grid-container"">
        <!-- Grid items will be dynamically added here -->
    </div>    ","null","","","","","","","","","","","",""
"","null","html-keyboard-response","362","369720","0.0-15.0-0.10","AnlQSU3nB6","5bc79ce8f653a50001ce430e","6617fad957f7c6a12ea16e26","6622c275765850925d5146d7","fixation cross","null","","","","","","","","","","","",""
"","1260","html-keyboard-response","363","370980","0.0-15.0-1.10","AnlQSU3nB6","5bc79ce8f653a50001ce430e","6617fad957f7c6a12ea16e26","6622c275765850925d5146d7","image grid","p","","","","","Ontogenetic_Distractor_Nonthreat_target","2500","ongrid","p","9","Ontogenetic","true","experimental"
"","null","html-keyboard-response","364","371136","0.0-15.0-2.10","AnlQSU3nB6","5bc79ce8f653a50001ce430e","6617fad957f7c6a12ea16e26","6622c275765850925d5146d7","
    <div id=""grid-container"">
        <!-- Grid items will be dynamically added here -->
    </div>    ","null","","","","","","","","","","","",""
"","null","html-keyboard-response","365","371853","0.0-15.0-0.11","AnlQSU3nB6","5bc79ce8f653a50001ce430e","6617fad957f7c6a12ea16e26","6622c275765850925d5146d7","fixation cross","null","","","","","","","","","","","",""
"","854","html-keyboard-response","366","372708","0.0-15.0-1.11","AnlQSU3nB6","5bc79ce8f653a50001ce430e","6617fad957f7c6a12ea16e26","6622c275765850925d5146d7","image grid","p","","","","","Ontogenetic_Distractor_Nonthreat_target","2500","ongrid","p","5","Ontogenetic","true","experimental"
"","null","html-keyboard-response","367","372863","0.0-15.0-2.11","AnlQSU3nB6","5bc79ce8f653a50001ce430e","6617fad957f7c6a12ea16e26","6622c275765850925d5146d7","
    <div id=""grid-container"">
        <!-- Grid items will be dynamically added here -->
    </div>    ","null","","","","","","","","","","","",""
"","null","html-keyboard-response","368","373579","0.0-15.0-0.12","AnlQSU3nB6","5bc79ce8f653a50001ce430e","6617fad957f7c6a12ea16e26","6622c275765850925d5146d7","fixation cross","null","","","","","","","","","","","",""
"","1442","html-keyboard-response","369","375021","0.0-15.0-1.12","AnlQSU3nB6","5bc79ce8f653a50001ce430e","6617fad957f7c6a12ea16e26","6622c275765850925d5146d7","image grid","p","","","","","Ontogenetic_Distractor_Nonthreat_target","2500","ongrid","p","8","Ontogenetic","true","experimental"
