"success","rt","trial_type","trial_index","time_elapsed","internal_node_id","unique_identifier","subject_id","study_id","session_id","stimulus","response","timeout","failed_images","failed_audio","failed_video","task","time_manipulation","respondedwhen","correctresponse","targetimagelocation","blocktype","correct","roundtype"
"true","3080","fullscreen","0","4085","0.0-0.0","yoTFPQqraq","62d3384b50d764bc57cc6c60","6617fad957f7c6a12ea16e26","6622baa1b44fba477ed57ca5","","","","","","","","","","","","","",""
"","14433","html-keyboard-response","1","18519","0.0-1.0","yoTFPQqraq","62d3384b50d764bc57cc6c60","6617fad957f7c6a12ea16e26","6622baa1b44fba477ed57ca5","instruction screen 0"," ","","","","","","","","","","","",""
"true","","preload","2","27098","0.0-2.0","yoTFPQqraq","62d3384b50d764bc57cc6c60","6617fad957f7c6a12ea16e26","6622baa1b44fba477ed57ca5","","","false","[]","[]","[]","","","","","","","",""
"","119531","html-keyboard-response","3","146631","0.0-3.0","yoTFPQqraq","62d3384b50d764bc57cc6c60","6617fad957f7c6a12ea16e26","6622baa1b44fba477ed57ca5","instruction screen 1"," ","","","","","","","","","","","",""
"","24819","html-keyboard-response","4","171469","0.0-4.0","yoTFPQqraq","62d3384b50d764bc57cc6c60","6617fad957f7c6a12ea16e26","6622baa1b44fba477ed57ca5","instruction screen 2","q","","","","","","","","","","","",""
"","8130","html-keyboard-response","5","179618","0.0-5.0","yoTFPQqraq","62d3384b50d764bc57cc6c60","6617fad957f7c6a12ea16e26","6622baa1b44fba477ed57ca5","instruction screen 3","p","","","","","","","","","","","",""
"","6435","html-keyboard-response","6","186072","0.0-6.0","yoTFPQqraq","62d3384b50d764bc57cc6c60","6617fad957f7c6a12ea16e26","6622baa1b44fba477ed57ca5","instruction screen 4"," ","","","","","","","","","","","",""
"","20483","html-keyboard-response","7","206570","0.0-7.0","yoTFPQqraq","62d3384b50d764bc57cc6c60","6617fad957f7c6a12ea16e26","6622baa1b44fba477ed57ca5","instruction screen 5"," ","","","","","","","","","","","",""
"","null","html-keyboard-response","8","207089","0.0-8.0","yoTFPQqraq","62d3384b50d764bc57cc6c60","6617fad957f7c6a12ea16e26","6622baa1b44fba477ed57ca5","fixation cross","null","","","","","","","","","","","",""
"","null","html-keyboard-response","9","207593","0.0-9.0-0.0","yoTFPQqraq","62d3384b50d764bc57cc6c60","6617fad957f7c6a12ea16e26","6622baa1b44fba477ed57ca5","fixation cross","null","","","","","","","","","","","",""
"","2013","html-keyboard-response","10","209606","0.0-9.0-1.0","yoTFPQqraq","62d3384b50d764bc57cc6c60","6617fad957f7c6a12ea16e26","6622baa1b44fba477ed57ca5","image grid","q","","","","","Phylogenetic_Distractor_Threat_target","3000","ongrid","q","6","Ontogenetic","true","practice"
"","null","html-keyboard-response","11","209757","0.0-9.0-2.0","yoTFPQqraq","62d3384b50d764bc57cc6c60","6617fad957f7c6a12ea16e26","6622baa1b44fba477ed57ca5","
    <div id=""grid-container"">
        <!-- Grid items will be dynamically added here -->
    </div>    ","null","","","","","","","","","","","",""
"","null","html-keyboard-response","12","210961","0.0-9.0-3.0","yoTFPQqraq","62d3384b50d764bc57cc6c60","6617fad957f7c6a12ea16e26","6622baa1b44fba477ed57ca5","feedback screen","null","","","","","","","","","","","",""
"","null","html-keyboard-response","13","211465","0.0-9.0-0.1","yoTFPQqraq","62d3384b50d764bc57cc6c60","6617fad957f7c6a12ea16e26","6622baa1b44fba477ed57ca5","fixation cross","null","","","","","","","","","","","",""
"","1442","html-keyboard-response","14","212907","0.0-9.0-1.1","yoTFPQqraq","62d3384b50d764bc57cc6c60","6617fad957f7c6a12ea16e26","6622baa1b44fba477ed57ca5","image grid","p","","","","","Ontogenetic_Distractor_Nonthreat_target","2900","ongrid","p","3","Ontogenetic","true","practice"
"","null","html-keyboard-response","15","213058","0.0-9.0-2.1","yoTFPQqraq","62d3384b50d764bc57cc6c60","6617fad957f7c6a12ea16e26","6622baa1b44fba477ed57ca5","
    <div id=""grid-container"">
        <!-- Grid items will be dynamically added here -->
    </div>    ","null","","","","","","","","","","","",""
"","null","html-keyboard-response","16","214265","0.0-9.0-3.1","yoTFPQqraq","62d3384b50d764bc57cc6c60","6617fad957f7c6a12ea16e26","6622baa1b44fba477ed57ca5","feedback screen","null","","","","","","","","","","","",""
"","null","html-keyboard-response","17","214769","0.0-9.0-0.2","yoTFPQqraq","62d3384b50d764bc57cc6c60","6617fad957f7c6a12ea16e26","6622baa1b44fba477ed57ca5","fixation cross","null","","","","","","","","","","","",""
"","1094","html-keyboard-response","18","215863","0.0-9.0-1.2","yoTFPQqraq","62d3384b50d764bc57cc6c60","6617fad957f7c6a12ea16e26","6622baa1b44fba477ed57ca5","image grid","p","","","","","Ontogenetic_Distractor_Nonthreat_target","2800","ongrid","p","1","Ontogenetic","true","practice"
"","null","html-keyboard-response","19","216014","0.0-9.0-2.2","yoTFPQqraq","62d3384b50d764bc57cc6c60","6617fad957f7c6a12ea16e26","6622baa1b44fba477ed57ca5","
    <div id=""grid-container"">
        <!-- Grid items will be dynamically added here -->
    </div>    ","null","","","","","","","","","","","",""
"","null","html-keyboard-response","20","217217","0.0-9.0-3.2","yoTFPQqraq","62d3384b50d764bc57cc6c60","6617fad957f7c6a12ea16e26","6622baa1b44fba477ed57ca5","feedback screen","null","","","","","","","","","","","",""
"","null","html-keyboard-response","21","217721","0.0-9.0-0.3","yoTFPQqraq","62d3384b50d764bc57cc6c60","6617fad957f7c6a12ea16e26","6622baa1b44fba477ed57ca5","fixation cross","null","","","","","","","","","","","",""
"","730","html-keyboard-response","22","218451","0.0-9.0-1.3","yoTFPQqraq","62d3384b50d764bc57cc6c60","6617fad957f7c6a12ea16e26","6622baa1b44fba477ed57ca5","image grid","p","","","","","Ontogenetic_Distractor_Nonthreat_target","2700","ongrid","p","6","Ontogenetic","true","practice"
"","null","html-keyboard-response","23","218604","0.0-9.0-2.3","yoTFPQqraq","62d3384b50d764bc57cc6c60","6617fad957f7c6a12ea16e26","6622baa1b44fba477ed57ca5","
    <div id=""grid-container"">
        <!-- Grid items will be dynamically added here -->
    </div>    ","null","","","","","","","","","","","",""
"","null","html-keyboard-response","24","219809","0.0-9.0-3.3","yoTFPQqraq","62d3384b50d764bc57cc6c60","6617fad957f7c6a12ea16e26","6622baa1b44fba477ed57ca5","feedback screen","null","","","","","","","","","","","",""
"","null","html-keyboard-response","25","220314","0.0-9.0-0.4","yoTFPQqraq","62d3384b50d764bc57cc6c60","6617fad957f7c6a12ea16e26","6622baa1b44fba477ed57ca5","fixation cross","null","","","","","","","","","","","",""
"","2142","html-keyboard-response","26","222456","0.0-9.0-1.4","yoTFPQqraq","62d3384b50d764bc57cc6c60","6617fad957f7c6a12ea16e26","6622baa1b44fba477ed57ca5","image grid"," ","","","","","Phylogenetic_Distractor_Nonthreat_target","2600","ongrid","p","7","Ontogenetic","false","practice"
"","null","html-keyboard-response","27","222609","0.0-9.0-2.4","yoTFPQqraq","62d3384b50d764bc57cc6c60","6617fad957f7c6a12ea16e26","6622baa1b44fba477ed57ca5","
    <div id=""grid-container"">
        <!-- Grid items will be dynamically added here -->
    </div>    ","null","","","","","","","","","","","",""
"","null","html-keyboard-response","28","223818","0.0-9.0-3.4","yoTFPQqraq","62d3384b50d764bc57cc6c60","6617fad957f7c6a12ea16e26","6622baa1b44fba477ed57ca5","feedback screen","null","","","","","","","","","","","",""
"","null","html-keyboard-response","29","224322","0.0-9.0-0.5","yoTFPQqraq","62d3384b50d764bc57cc6c60","6617fad957f7c6a12ea16e26","6622baa1b44fba477ed57ca5","fixation cross","null","","","","","","","","","","","",""
"","2348","html-keyboard-response","30","226670","0.0-9.0-1.5","yoTFPQqraq","62d3384b50d764bc57cc6c60","6617fad957f7c6a12ea16e26","6622baa1b44fba477ed57ca5","image grid"," ","","","","","Phylogenetic_Distractor_notarget","2500","ongrid"," ","4","Ontogenetic","true","practice"
"","null","html-keyboard-response","31","226821","0.0-9.0-2.5","yoTFPQqraq","62d3384b50d764bc57cc6c60","6617fad957f7c6a12ea16e26","6622baa1b44fba477ed57ca5","
    <div id=""grid-container"">
        <!-- Grid items will be dynamically added here -->
    </div>    ","null","","","","","","","","","","","",""
"","null","html-keyboard-response","32","228030","0.0-9.0-3.5","yoTFPQqraq","62d3384b50d764bc57cc6c60","6617fad957f7c6a12ea16e26","6622baa1b44fba477ed57ca5","feedback screen","null","","","","","","","","","","","",""
"","null","html-keyboard-response","33","228532","0.0-9.0-0.6","yoTFPQqraq","62d3384b50d764bc57cc6c60","6617fad957f7c6a12ea16e26","6622baa1b44fba477ed57ca5","fixation cross","null","","","","","","","","","","","",""
"","2120","html-keyboard-response","34","230652","0.0-9.0-1.6","yoTFPQqraq","62d3384b50d764bc57cc6c60","6617fad957f7c6a12ea16e26","6622baa1b44fba477ed57ca5","image grid","q","","","","","Phylogenetic_Distractor_Threat_target","2400","ongrid","q","9","Ontogenetic","true","practice"
"","null","html-keyboard-response","35","230805","0.0-9.0-2.6","yoTFPQqraq","62d3384b50d764bc57cc6c60","6617fad957f7c6a12ea16e26","6622baa1b44fba477ed57ca5","
    <div id=""grid-container"">
        <!-- Grid items will be dynamically added here -->
    </div>    ","null","","","","","","","","","","","",""
"","null","html-keyboard-response","36","232009","0.0-9.0-3.6","yoTFPQqraq","62d3384b50d764bc57cc6c60","6617fad957f7c6a12ea16e26","6622baa1b44fba477ed57ca5","feedback screen","null","","","","","","","","","","","",""
"","null","html-keyboard-response","37","232512","0.0-9.0-0.7","yoTFPQqraq","62d3384b50d764bc57cc6c60","6617fad957f7c6a12ea16e26","6622baa1b44fba477ed57ca5","fixation cross","null","","","","","","","","","","","",""
"","1612","html-keyboard-response","38","234125","0.0-9.0-1.7","yoTFPQqraq","62d3384b50d764bc57cc6c60","6617fad957f7c6a12ea16e26","6622baa1b44fba477ed57ca5","image grid","q","","","","","Phylogenetic_Distractor_Threat_target","2300","ongrid","q","5","Ontogenetic","true","practice"
"","null","html-keyboard-response","39","234276","0.0-9.0-2.7","yoTFPQqraq","62d3384b50d764bc57cc6c60","6617fad957f7c6a12ea16e26","6622baa1b44fba477ed57ca5","
    <div id=""grid-container"">
        <!-- Grid items will be dynamically added here -->
    </div>    ","null","","","","","","","","","","","",""
"","null","html-keyboard-response","40","235481","0.0-9.0-3.7","yoTFPQqraq","62d3384b50d764bc57cc6c60","6617fad957f7c6a12ea16e26","6622baa1b44fba477ed57ca5","feedback screen","null","","","","","","","","","","","",""
"","null","html-keyboard-response","41","235986","0.0-9.0-0.8","yoTFPQqraq","62d3384b50d764bc57cc6c60","6617fad957f7c6a12ea16e26","6622baa1b44fba477ed57ca5","fixation cross","null","","","","","","","","","","","",""
"","1508","html-keyboard-response","42","237495","0.0-9.0-1.8","yoTFPQqraq","62d3384b50d764bc57cc6c60","6617fad957f7c6a12ea16e26","6622baa1b44fba477ed57ca5","image grid","q","","","","","Ontogenetic_Distractor_Threat_target","2200","ongrid","q","2","Ontogenetic","true","practice"
"","null","html-keyboard-response","43","237650","0.0-9.0-2.8","yoTFPQqraq","62d3384b50d764bc57cc6c60","6617fad957f7c6a12ea16e26","6622baa1b44fba477ed57ca5","
    <div id=""grid-container"">
        <!-- Grid items will be dynamically added here -->
    </div>    ","null","","","","","","","","","","","",""
"","null","html-keyboard-response","44","238857","0.0-9.0-3.8","yoTFPQqraq","62d3384b50d764bc57cc6c60","6617fad957f7c6a12ea16e26","6622baa1b44fba477ed57ca5","feedback screen","null","","","","","","","","","","","",""
"","null","html-keyboard-response","45","239360","0.0-9.0-0.9","yoTFPQqraq","62d3384b50d764bc57cc6c60","6617fad957f7c6a12ea16e26","6622baa1b44fba477ed57ca5","fixation cross","null","","","","","","","","","","","",""
"","1471","html-keyboard-response","46","240832","0.0-9.0-1.9","yoTFPQqraq","62d3384b50d764bc57cc6c60","6617fad957f7c6a12ea16e26","6622baa1b44fba477ed57ca5","image grid","p","","","","","Ontogenetic_Distractor_Nonthreat_target","2100","ongrid","p","3","Ontogenetic","true","practice"
"","null","html-keyboard-response","47","240986","0.0-9.0-2.9","yoTFPQqraq","62d3384b50d764bc57cc6c60","6617fad957f7c6a12ea16e26","6622baa1b44fba477ed57ca5","
    <div id=""grid-container"">
        <!-- Grid items will be dynamically added here -->
    </div>    ","null","","","","","","","","","","","",""
"","null","html-keyboard-response","48","242190","0.0-9.0-3.9","yoTFPQqraq","62d3384b50d764bc57cc6c60","6617fad957f7c6a12ea16e26","6622baa1b44fba477ed57ca5","feedback screen","null","","","","","","","","","","","",""
"","null","html-keyboard-response","49","242694","0.0-9.0-0.10","yoTFPQqraq","62d3384b50d764bc57cc6c60","6617fad957f7c6a12ea16e26","6622baa1b44fba477ed57ca5","fixation cross","null","","","","","","","","","","","",""
"","1554","html-keyboard-response","50","244248","0.0-9.0-1.10","yoTFPQqraq","62d3384b50d764bc57cc6c60","6617fad957f7c6a12ea16e26","6622baa1b44fba477ed57ca5","image grid","q","","","","","Ontogenetic_Distractor_Threat_target","2000","ongrid","q","6","Ontogenetic","true","practice"
"","null","html-keyboard-response","51","244401","0.0-9.0-2.10","yoTFPQqraq","62d3384b50d764bc57cc6c60","6617fad957f7c6a12ea16e26","6622baa1b44fba477ed57ca5","
    <div id=""grid-container"">
        <!-- Grid items will be dynamically added here -->
    </div>    ","null","","","","","","","","","","","",""
"","null","html-keyboard-response","52","245609","0.0-9.0-3.10","yoTFPQqraq","62d3384b50d764bc57cc6c60","6617fad957f7c6a12ea16e26","6622baa1b44fba477ed57ca5","feedback screen","null","","","","","","","","","","","",""
"","null","html-keyboard-response","53","246112","0.0-9.0-0.11","yoTFPQqraq","62d3384b50d764bc57cc6c60","6617fad957f7c6a12ea16e26","6622baa1b44fba477ed57ca5","fixation cross","null","","","","","","","","","","","",""
"","1179","html-keyboard-response","54","247291","0.0-9.0-1.11","yoTFPQqraq","62d3384b50d764bc57cc6c60","6617fad957f7c6a12ea16e26","6622baa1b44fba477ed57ca5","image grid","q","","","","","Ontogenetic_Distractor_Threat_target","1900","ongrid","q","7","Ontogenetic","true","practice"
"","null","html-keyboard-response","55","247446","0.0-9.0-2.11","yoTFPQqraq","62d3384b50d764bc57cc6c60","6617fad957f7c6a12ea16e26","6622baa1b44fba477ed57ca5","
    <div id=""grid-container"">
        <!-- Grid items will be dynamically added here -->
    </div>    ","null","","","","","","","","","","","",""
"","null","html-keyboard-response","56","248653","0.0-9.0-3.11","yoTFPQqraq","62d3384b50d764bc57cc6c60","6617fad957f7c6a12ea16e26","6622baa1b44fba477ed57ca5","feedback screen","null","","","","","","","","","","","",""
"","null","html-keyboard-response","57","249156","0.0-9.0-0.12","yoTFPQqraq","62d3384b50d764bc57cc6c60","6617fad957f7c6a12ea16e26","6622baa1b44fba477ed57ca5","fixation cross","null","","","","","","","","","","","",""
"","null","html-keyboard-response","58","250958","0.0-9.0-1.12","yoTFPQqraq","62d3384b50d764bc57cc6c60","6617fad957f7c6a12ea16e26","6622baa1b44fba477ed57ca5","
        <div id=""grid-container"">
        <!-- Grid items will be dynamically added here -->
    </div>    ","null","","","","","","","","","","","",""
"","5042","html-keyboard-response","59","254200","0.0-9.0-2.12","yoTFPQqraq","62d3384b50d764bc57cc6c60","6617fad957f7c6a12ea16e26","6622baa1b44fba477ed57ca5","mask grid","q","","","","","Ontogenetic_Distractor_notarget","1800","onmask"," ","7","Ontogenetic","false","practice"
"","null","html-keyboard-response","60","255409","0.0-9.0-3.12","yoTFPQqraq","62d3384b50d764bc57cc6c60","6617fad957f7c6a12ea16e26","6622baa1b44fba477ed57ca5","feedback screen","null","","","","","","","","","","","",""
"","null","html-keyboard-response","61","255913","0.0-9.0-0.13","yoTFPQqraq","62d3384b50d764bc57cc6c60","6617fad957f7c6a12ea16e26","6622baa1b44fba477ed57ca5","fixation cross","null","","","","","","","","","","","",""
"","null","html-keyboard-response","62","257617","0.0-9.0-1.13","yoTFPQqraq","62d3384b50d764bc57cc6c60","6617fad957f7c6a12ea16e26","6622baa1b44fba477ed57ca5","
        <div id=""grid-container"">
        <!-- Grid items will be dynamically added here -->
    </div>    ","null","","","","","","","","","","","",""
"","2230","html-keyboard-response","63","258148","0.0-9.0-2.13","yoTFPQqraq","62d3384b50d764bc57cc6c60","6617fad957f7c6a12ea16e26","6622baa1b44fba477ed57ca5","mask grid"," ","","","","","Ontogenetic_Distractor_notarget","1700","onmask"," ","7","Ontogenetic","true","practice"
"","null","html-keyboard-response","64","259352","0.0-9.0-3.13","yoTFPQqraq","62d3384b50d764bc57cc6c60","6617fad957f7c6a12ea16e26","6622baa1b44fba477ed57ca5","feedback screen","null","","","","","","","","","","","",""
"","null","html-keyboard-response","65","259857","0.0-9.0-0.14","yoTFPQqraq","62d3384b50d764bc57cc6c60","6617fad957f7c6a12ea16e26","6622baa1b44fba477ed57ca5","fixation cross","null","","","","","","","","","","","",""
"","1224","html-keyboard-response","66","261082","0.0-9.0-1.14","yoTFPQqraq","62d3384b50d764bc57cc6c60","6617fad957f7c6a12ea16e26","6622baa1b44fba477ed57ca5","image grid","q","","","","","Ontogenetic_Distractor_Threat_target","1600","ongrid","q","7","Ontogenetic","true","practice"
"","null","html-keyboard-response","67","261232","0.0-9.0-2.14","yoTFPQqraq","62d3384b50d764bc57cc6c60","6617fad957f7c6a12ea16e26","6622baa1b44fba477ed57ca5","
    <div id=""grid-container"">
        <!-- Grid items will be dynamically added here -->
    </div>    ","null","","","","","","","","","","","",""
"","null","html-keyboard-response","68","262438","0.0-9.0-3.14","yoTFPQqraq","62d3384b50d764bc57cc6c60","6617fad957f7c6a12ea16e26","6622baa1b44fba477ed57ca5","feedback screen","null","","","","","","","","","","","",""
"","null","html-keyboard-response","69","262942","0.0-9.0-0.15","yoTFPQqraq","62d3384b50d764bc57cc6c60","6617fad957f7c6a12ea16e26","6622baa1b44fba477ed57ca5","fixation cross","null","","","","","","","","","","","",""
"","null","html-keyboard-response","70","264445","0.0-9.0-1.15","yoTFPQqraq","62d3384b50d764bc57cc6c60","6617fad957f7c6a12ea16e26","6622baa1b44fba477ed57ca5","
        <div id=""grid-container"">
        <!-- Grid items will be dynamically added here -->
    </div>    ","null","","","","","","","","","","","",""
"","2081","html-keyboard-response","71","265027","0.0-9.0-2.15","yoTFPQqraq","62d3384b50d764bc57cc6c60","6617fad957f7c6a12ea16e26","6622baa1b44fba477ed57ca5","mask grid","p","","","","","Phylogenetic_Distractor_Nonthreat_target","1500","onmask","p","6","Ontogenetic","true","practice"
"","null","html-keyboard-response","72","266233","0.0-9.0-3.15","yoTFPQqraq","62d3384b50d764bc57cc6c60","6617fad957f7c6a12ea16e26","6622baa1b44fba477ed57ca5","feedback screen","null","","","","","","","","","","","",""
"","null","html-keyboard-response","73","266737","0.0-9.0-0.16","yoTFPQqraq","62d3384b50d764bc57cc6c60","6617fad957f7c6a12ea16e26","6622baa1b44fba477ed57ca5","fixation cross","null","","","","","","","","","","","",""
"","null","html-keyboard-response","74","268138","0.0-9.0-1.16","yoTFPQqraq","62d3384b50d764bc57cc6c60","6617fad957f7c6a12ea16e26","6622baa1b44fba477ed57ca5","
        <div id=""grid-container"">
        <!-- Grid items will be dynamically added here -->
    </div>    ","null","","","","","","","","","","","",""
"","2485","html-keyboard-response","75","269223","0.0-9.0-2.16","yoTFPQqraq","62d3384b50d764bc57cc6c60","6617fad957f7c6a12ea16e26","6622baa1b44fba477ed57ca5","mask grid","p","","","","","Phylogenetic_Distractor_Nonthreat_target","1400","onmask","p","6","Ontogenetic","true","practice"
"","null","html-keyboard-response","76","270426","0.0-9.0-3.16","yoTFPQqraq","62d3384b50d764bc57cc6c60","6617fad957f7c6a12ea16e26","6622baa1b44fba477ed57ca5","feedback screen","null","","","","","","","","","","","",""
"","null","html-keyboard-response","77","270929","0.0-9.0-0.17","yoTFPQqraq","62d3384b50d764bc57cc6c60","6617fad957f7c6a12ea16e26","6622baa1b44fba477ed57ca5","fixation cross","null","","","","","","","","","","","",""
"","null","html-keyboard-response","78","272234","0.0-9.0-1.17","yoTFPQqraq","62d3384b50d764bc57cc6c60","6617fad957f7c6a12ea16e26","6622baa1b44fba477ed57ca5","
        <div id=""grid-container"">
        <!-- Grid items will be dynamically added here -->
    </div>    ","null","","","","","","","","","","","",""
"","1487","html-keyboard-response","79","272421","0.0-9.0-2.17","yoTFPQqraq","62d3384b50d764bc57cc6c60","6617fad957f7c6a12ea16e26","6622baa1b44fba477ed57ca5","mask grid","p","","","","","Phylogenetic_Distractor_Nonthreat_target","1300","onmask","p","5","Ontogenetic","true","practice"
"","null","html-keyboard-response","80","273626","0.0-9.0-3.17","yoTFPQqraq","62d3384b50d764bc57cc6c60","6617fad957f7c6a12ea16e26","6622baa1b44fba477ed57ca5","feedback screen","null","","","","","","","","","","","",""
"","null","html-keyboard-response","81","274129","0.0-9.0-0.18","yoTFPQqraq","62d3384b50d764bc57cc6c60","6617fad957f7c6a12ea16e26","6622baa1b44fba477ed57ca5","fixation cross","null","","","","","","","","","","","",""
"","null","html-keyboard-response","82","275334","0.0-9.0-1.18","yoTFPQqraq","62d3384b50d764bc57cc6c60","6617fad957f7c6a12ea16e26","6622baa1b44fba477ed57ca5","
        <div id=""grid-container"">
        <!-- Grid items will be dynamically added here -->
    </div>    ","null","","","","","","","","","","","",""
"","1547","html-keyboard-response","83","275682","0.0-9.0-2.18","yoTFPQqraq","62d3384b50d764bc57cc6c60","6617fad957f7c6a12ea16e26","6622baa1b44fba477ed57ca5","mask grid","q","","","","","Phylogenetic_Distractor_Threat_target","1200","onmask","q","2","Ontogenetic","true","practice"
"","null","html-keyboard-response","84","276889","0.0-9.0-3.18","yoTFPQqraq","62d3384b50d764bc57cc6c60","6617fad957f7c6a12ea16e26","6622baa1b44fba477ed57ca5","feedback screen","null","","","","","","","","","","","",""
"","null","html-keyboard-response","85","277394","0.0-9.0-0.19","yoTFPQqraq","62d3384b50d764bc57cc6c60","6617fad957f7c6a12ea16e26","6622baa1b44fba477ed57ca5","fixation cross","null","","","","","","","","","","","",""
"","null","html-keyboard-response","86","278497","0.0-9.0-1.19","yoTFPQqraq","62d3384b50d764bc57cc6c60","6617fad957f7c6a12ea16e26","6622baa1b44fba477ed57ca5","
        <div id=""grid-container"">
        <!-- Grid items will be dynamically added here -->
    </div>    ","null","","","","","","","","","","","",""
"","1641","html-keyboard-response","87","279038","0.0-9.0-2.19","yoTFPQqraq","62d3384b50d764bc57cc6c60","6617fad957f7c6a12ea16e26","6622baa1b44fba477ed57ca5","mask grid"," ","","","","","Phylogenetic_Distractor_notarget","1100","onmask"," ","3","Ontogenetic","true","practice"
"","null","html-keyboard-response","88","280246","0.0-9.0-3.19","yoTFPQqraq","62d3384b50d764bc57cc6c60","6617fad957f7c6a12ea16e26","6622baa1b44fba477ed57ca5","feedback screen","null","","","","","","","","","","","",""
"","14022","html-keyboard-response","89","294285","0.0-10.0","yoTFPQqraq","62d3384b50d764bc57cc6c60","6617fad957f7c6a12ea16e26","6622baa1b44fba477ed57ca5","pre-experimental_briefing"," ","","","","","","","","","","","",""
"","null","html-keyboard-response","90","296830","0.0-11.0-0.0","yoTFPQqraq","62d3384b50d764bc57cc6c60","6617fad957f7c6a12ea16e26","6622baa1b44fba477ed57ca5","fixation cross","null","","","","","","","","","","","",""
"","2403","html-keyboard-response","91","299233","0.0-11.0-1.0","yoTFPQqraq","62d3384b50d764bc57cc6c60","6617fad957f7c6a12ea16e26","6622baa1b44fba477ed57ca5","image grid","p","","","","","Ontogenetic_Distractor_Nonthreat_target","2500","ongrid","p","1","Ontogenetic","true","experimental"
"","null","html-keyboard-response","92","299386","0.0-11.0-2.0","yoTFPQqraq","62d3384b50d764bc57cc6c60","6617fad957f7c6a12ea16e26","6622baa1b44fba477ed57ca5","
    <div id=""grid-container"">
        <!-- Grid items will be dynamically added here -->
    </div>    ","null","","","","","","","","","","","",""
"","null","html-keyboard-response","93","300094","0.0-11.0-0.1","yoTFPQqraq","62d3384b50d764bc57cc6c60","6617fad957f7c6a12ea16e26","6622baa1b44fba477ed57ca5","fixation cross","null","","","","","","","","","","","",""
"","null","html-keyboard-response","94","302597","0.0-11.0-1.1","yoTFPQqraq","62d3384b50d764bc57cc6c60","6617fad957f7c6a12ea16e26","6622baa1b44fba477ed57ca5","
        <div id=""grid-container"">
        <!-- Grid items will be dynamically added here -->
    </div>    ","null","","","","","","","","","","","",""
"","2937","html-keyboard-response","95","303034","0.0-11.0-2.1","yoTFPQqraq","62d3384b50d764bc57cc6c60","6617fad957f7c6a12ea16e26","6622baa1b44fba477ed57ca5","mask grid"," ","","","","","Ontogenetic_Distractor_notarget","2500","onmask"," ","5","Ontogenetic","true","experimental"
"","null","html-keyboard-response","96","303742","0.0-11.0-0.2","yoTFPQqraq","62d3384b50d764bc57cc6c60","6617fad957f7c6a12ea16e26","6622baa1b44fba477ed57ca5","fixation cross","null","","","","","","","","","","","",""
"","null","html-keyboard-response","97","306246","0.0-11.0-1.2","yoTFPQqraq","62d3384b50d764bc57cc6c60","6617fad957f7c6a12ea16e26","6622baa1b44fba477ed57ca5","
        <div id=""grid-container"">
        <!-- Grid items will be dynamically added here -->
    </div>    ","null","","","","","","","","","","","",""
"","3181","html-keyboard-response","98","306928","0.0-11.0-2.2","yoTFPQqraq","62d3384b50d764bc57cc6c60","6617fad957f7c6a12ea16e26","6622baa1b44fba477ed57ca5","mask grid","p","","","","","Ontogenetic_Distractor_Nonthreat_target","2500","onmask","p","4","Ontogenetic","true","experimental"
"","null","html-keyboard-response","99","307630","0.0-11.0-0.3","yoTFPQqraq","62d3384b50d764bc57cc6c60","6617fad957f7c6a12ea16e26","6622baa1b44fba477ed57ca5","fixation cross","null","","","","","","","","","","","",""
"","1547","html-keyboard-response","100","309177","0.0-11.0-1.3","yoTFPQqraq","62d3384b50d764bc57cc6c60","6617fad957f7c6a12ea16e26","6622baa1b44fba477ed57ca5","image grid","q","","","","","Ontogenetic_Distractor_Threat_target","2500","ongrid","q","8","Ontogenetic","true","experimental"
"","null","html-keyboard-response","101","309329","0.0-11.0-2.3","yoTFPQqraq","62d3384b50d764bc57cc6c60","6617fad957f7c6a12ea16e26","6622baa1b44fba477ed57ca5","
    <div id=""grid-container"">
        <!-- Grid items will be dynamically added here -->
    </div>    ","null","","","","","","","","","","","",""
"","null","html-keyboard-response","102","310037","0.0-11.0-0.4","yoTFPQqraq","62d3384b50d764bc57cc6c60","6617fad957f7c6a12ea16e26","6622baa1b44fba477ed57ca5","fixation cross","null","","","","","","","","","","","",""
"","2202","html-keyboard-response","103","312239","0.0-11.0-1.4","yoTFPQqraq","62d3384b50d764bc57cc6c60","6617fad957f7c6a12ea16e26","6622baa1b44fba477ed57ca5","image grid"," ","","","","","Ontogenetic_Distractor_notarget","2500","ongrid"," ","7","Ontogenetic","true","experimental"
"","null","html-keyboard-response","104","312390","0.0-11.0-2.4","yoTFPQqraq","62d3384b50d764bc57cc6c60","6617fad957f7c6a12ea16e26","6622baa1b44fba477ed57ca5","
    <div id=""grid-container"">
        <!-- Grid items will be dynamically added here -->
    </div>    ","null","","","","","","","","","","","",""
"","null","html-keyboard-response","105","313098","0.0-11.0-0.5","yoTFPQqraq","62d3384b50d764bc57cc6c60","6617fad957f7c6a12ea16e26","6622baa1b44fba477ed57ca5","fixation cross","null","","","","","","","","","","","",""
"","1741","html-keyboard-response","106","314839","0.0-11.0-1.5","yoTFPQqraq","62d3384b50d764bc57cc6c60","6617fad957f7c6a12ea16e26","6622baa1b44fba477ed57ca5","image grid","p","","","","","Ontogenetic_Distractor_Nonthreat_target","2500","ongrid","p","4","Ontogenetic","true","experimental"
"","null","html-keyboard-response","107","314990","0.0-11.0-2.5","yoTFPQqraq","62d3384b50d764bc57cc6c60","6617fad957f7c6a12ea16e26","6622baa1b44fba477ed57ca5","
    <div id=""grid-container"">
        <!-- Grid items will be dynamically added here -->
    </div>    ","null","","","","","","","","","","","",""
"","null","html-keyboard-response","108","315697","0.0-11.0-0.6","yoTFPQqraq","62d3384b50d764bc57cc6c60","6617fad957f7c6a12ea16e26","6622baa1b44fba477ed57ca5","fixation cross","null","","","","","","","","","","","",""
"","1313","html-keyboard-response","109","317010","0.0-11.0-1.6","yoTFPQqraq","62d3384b50d764bc57cc6c60","6617fad957f7c6a12ea16e26","6622baa1b44fba477ed57ca5","image grid","q","","","","","Ontogenetic_Distractor_Threat_target","2500","ongrid","q","6","Ontogenetic","true","experimental"
"","null","html-keyboard-response","110","317162","0.0-11.0-2.6","yoTFPQqraq","62d3384b50d764bc57cc6c60","6617fad957f7c6a12ea16e26","6622baa1b44fba477ed57ca5","
    <div id=""grid-container"">
        <!-- Grid items will be dynamically added here -->
    </div>    ","null","","","","","","","","","","","",""
"","null","html-keyboard-response","111","317866","0.0-11.0-0.7","yoTFPQqraq","62d3384b50d764bc57cc6c60","6617fad957f7c6a12ea16e26","6622baa1b44fba477ed57ca5","fixation cross","null","","","","","","","","","","","",""
"","1248","html-keyboard-response","112","319114","0.0-11.0-1.7","yoTFPQqraq","62d3384b50d764bc57cc6c60","6617fad957f7c6a12ea16e26","6622baa1b44fba477ed57ca5","image grid","p","","","","","Ontogenetic_Distractor_Nonthreat_target","2500","ongrid","p","2","Ontogenetic","true","experimental"
"","null","html-keyboard-response","113","319265","0.0-11.0-2.7","yoTFPQqraq","62d3384b50d764bc57cc6c60","6617fad957f7c6a12ea16e26","6622baa1b44fba477ed57ca5","
    <div id=""grid-container"">
        <!-- Grid items will be dynamically added here -->
    </div>    ","null","","","","","","","","","","","",""
"","null","html-keyboard-response","114","319974","0.0-11.0-0.8","yoTFPQqraq","62d3384b50d764bc57cc6c60","6617fad957f7c6a12ea16e26","6622baa1b44fba477ed57ca5","fixation cross","null","","","","","","","","","","","",""
"","2224","html-keyboard-response","115","322198","0.0-11.0-1.8","yoTFPQqraq","62d3384b50d764bc57cc6c60","6617fad957f7c6a12ea16e26","6622baa1b44fba477ed57ca5","image grid","q","","","","","Ontogenetic_Distractor_Threat_target","2500","ongrid","q","9","Ontogenetic","true","experimental"
"","null","html-keyboard-response","116","322350","0.0-11.0-2.8","yoTFPQqraq","62d3384b50d764bc57cc6c60","6617fad957f7c6a12ea16e26","6622baa1b44fba477ed57ca5","
    <div id=""grid-container"">
        <!-- Grid items will be dynamically added here -->
    </div>    ","null","","","","","","","","","","","",""
"","null","html-keyboard-response","117","323053","0.0-11.0-0.9","yoTFPQqraq","62d3384b50d764bc57cc6c60","6617fad957f7c6a12ea16e26","6622baa1b44fba477ed57ca5","fixation cross","null","","","","","","","","","","","",""
"","1068","html-keyboard-response","118","324122","0.0-11.0-1.9","yoTFPQqraq","62d3384b50d764bc57cc6c60","6617fad957f7c6a12ea16e26","6622baa1b44fba477ed57ca5","image grid","q","","","","","Ontogenetic_Distractor_Threat_target","2500","ongrid","q","4","Ontogenetic","true","experimental"
"","null","html-keyboard-response","119","324273","0.0-11.0-2.9","yoTFPQqraq","62d3384b50d764bc57cc6c60","6617fad957f7c6a12ea16e26","6622baa1b44fba477ed57ca5","
    <div id=""grid-container"">
        <!-- Grid items will be dynamically added here -->
    </div>    ","null","","","","","","","","","","","",""
"","null","html-keyboard-response","120","324982","0.0-11.0-0.10","yoTFPQqraq","62d3384b50d764bc57cc6c60","6617fad957f7c6a12ea16e26","6622baa1b44fba477ed57ca5","fixation cross","null","","","","","","","","","","","",""
"","1458","html-keyboard-response","121","326440","0.0-11.0-1.10","yoTFPQqraq","62d3384b50d764bc57cc6c60","6617fad957f7c6a12ea16e26","6622baa1b44fba477ed57ca5","image grid","p","","","","","Ontogenetic_Distractor_Nonthreat_target","2500","ongrid","p","2","Ontogenetic","true","experimental"
"","null","html-keyboard-response","122","326593","0.0-11.0-2.10","yoTFPQqraq","62d3384b50d764bc57cc6c60","6617fad957f7c6a12ea16e26","6622baa1b44fba477ed57ca5","
    <div id=""grid-container"">
        <!-- Grid items will be dynamically added here -->
    </div>    ","null","","","","","","","","","","","",""
"","null","html-keyboard-response","123","327296","0.0-11.0-0.11","yoTFPQqraq","62d3384b50d764bc57cc6c60","6617fad957f7c6a12ea16e26","6622baa1b44fba477ed57ca5","fixation cross","null","","","","","","","","","","","",""
"","1720","html-keyboard-response","124","329016","0.0-11.0-1.11","yoTFPQqraq","62d3384b50d764bc57cc6c60","6617fad957f7c6a12ea16e26","6622baa1b44fba477ed57ca5","image grid","p","","","","","Ontogenetic_Distractor_Nonthreat_target","2500","ongrid","p","3","Ontogenetic","true","experimental"
"","null","html-keyboard-response","125","329170","0.0-11.0-2.11","yoTFPQqraq","62d3384b50d764bc57cc6c60","6617fad957f7c6a12ea16e26","6622baa1b44fba477ed57ca5","
    <div id=""grid-container"">
        <!-- Grid items will be dynamically added here -->
    </div>    ","null","","","","","","","","","","","",""
"","null","html-keyboard-response","126","329876","0.0-11.0-0.12","yoTFPQqraq","62d3384b50d764bc57cc6c60","6617fad957f7c6a12ea16e26","6622baa1b44fba477ed57ca5","fixation cross","null","","","","","","","","","","","",""
"","897","html-keyboard-response","127","330774","0.0-11.0-1.12","yoTFPQqraq","62d3384b50d764bc57cc6c60","6617fad957f7c6a12ea16e26","6622baa1b44fba477ed57ca5","image grid","q","","","","","Ontogenetic_Distractor_Threat_target","2500","ongrid","q","3","Ontogenetic","true","experimental"
"","null","html-keyboard-response","128","330925","0.0-11.0-2.12","yoTFPQqraq","62d3384b50d764bc57cc6c60","6617fad957f7c6a12ea16e26","6622baa1b44fba477ed57ca5","
    <div id=""grid-container"">
        <!-- Grid items will be dynamically added here -->
    </div>    ","null","","","","","","","","","","","",""
"","null","html-keyboard-response","129","331629","0.0-11.0-0.13","yoTFPQqraq","62d3384b50d764bc57cc6c60","6617fad957f7c6a12ea16e26","6622baa1b44fba477ed57ca5","fixation cross","null","","","","","","","","","","","",""
"","1337","html-keyboard-response","130","332967","0.0-11.0-1.13","yoTFPQqraq","62d3384b50d764bc57cc6c60","6617fad957f7c6a12ea16e26","6622baa1b44fba477ed57ca5","image grid","q","","","","","Ontogenetic_Distractor_Threat_target","2500","ongrid","q","9","Ontogenetic","true","experimental"
"","null","html-keyboard-response","131","333121","0.0-11.0-2.13","yoTFPQqraq","62d3384b50d764bc57cc6c60","6617fad957f7c6a12ea16e26","6622baa1b44fba477ed57ca5","
    <div id=""grid-container"">
        <!-- Grid items will be dynamically added here -->
    </div>    ","null","","","","","","","","","","","",""
"","null","html-keyboard-response","132","333826","0.0-11.0-0.14","yoTFPQqraq","62d3384b50d764bc57cc6c60","6617fad957f7c6a12ea16e26","6622baa1b44fba477ed57ca5","fixation cross","null","","","","","","","","","","","",""
"","1197","html-keyboard-response","133","335023","0.0-11.0-1.14","yoTFPQqraq","62d3384b50d764bc57cc6c60","6617fad957f7c6a12ea16e26","6622baa1b44fba477ed57ca5","image grid","p","","","","","Ontogenetic_Distractor_Nonthreat_target","2500","ongrid","p","5","Ontogenetic","true","experimental"
"","null","html-keyboard-response","134","335174","0.0-11.0-2.14","yoTFPQqraq","62d3384b50d764bc57cc6c60","6617fad957f7c6a12ea16e26","6622baa1b44fba477ed57ca5","
    <div id=""grid-container"">
        <!-- Grid items will be dynamically added here -->
    </div>    ","null","","","","","","","","","","","",""
"","null","html-keyboard-response","135","335877","0.0-11.0-0.15","yoTFPQqraq","62d3384b50d764bc57cc6c60","6617fad957f7c6a12ea16e26","6622baa1b44fba477ed57ca5","fixation cross","null","","","","","","","","","","","",""
"","1514","html-keyboard-response","136","337392","0.0-11.0-1.15","yoTFPQqraq","62d3384b50d764bc57cc6c60","6617fad957f7c6a12ea16e26","6622baa1b44fba477ed57ca5","image grid","q","","","","","Ontogenetic_Distractor_Threat_target","2500","ongrid","q","2","Ontogenetic","true","experimental"
"","null","html-keyboard-response","137","337545","0.0-11.0-2.15","yoTFPQqraq","62d3384b50d764bc57cc6c60","6617fad957f7c6a12ea16e26","6622baa1b44fba477ed57ca5","
    <div id=""grid-container"">
        <!-- Grid items will be dynamically added here -->
    </div>    ","null","","","","","","","","","","","",""
"","null","html-keyboard-response","138","338250","0.0-11.0-0.16","yoTFPQqraq","62d3384b50d764bc57cc6c60","6617fad957f7c6a12ea16e26","6622baa1b44fba477ed57ca5","fixation cross","null","","","","","","","","","","","",""
"","897","html-keyboard-response","139","339147","0.0-11.0-1.16","yoTFPQqraq","62d3384b50d764bc57cc6c60","6617fad957f7c6a12ea16e26","6622baa1b44fba477ed57ca5","image grid","p","","","","","Ontogenetic_Distractor_Nonthreat_target","2500","ongrid","p","1","Ontogenetic","true","experimental"
"","null","html-keyboard-response","140","339298","0.0-11.0-2.16","yoTFPQqraq","62d3384b50d764bc57cc6c60","6617fad957f7c6a12ea16e26","6622baa1b44fba477ed57ca5","
    <div id=""grid-container"">
        <!-- Grid items will be dynamically added here -->
    </div>    ","null","","","","","","","","","","","",""
"","null","html-keyboard-response","141","340001","0.0-11.0-0.17","yoTFPQqraq","62d3384b50d764bc57cc6c60","6617fad957f7c6a12ea16e26","6622baa1b44fba477ed57ca5","fixation cross","null","","","","","","","","","","","",""
"","1601","html-keyboard-response","142","341603","0.0-11.0-1.17","yoTFPQqraq","62d3384b50d764bc57cc6c60","6617fad957f7c6a12ea16e26","6622baa1b44fba477ed57ca5","image grid"," ","","","","","Ontogenetic_Distractor_Nonthreat_target","2500","ongrid","p","6","Ontogenetic","false","experimental"
"","null","html-keyboard-response","143","341758","0.0-11.0-2.17","yoTFPQqraq","62d3384b50d764bc57cc6c60","6617fad957f7c6a12ea16e26","6622baa1b44fba477ed57ca5","
    <div id=""grid-container"">
        <!-- Grid items will be dynamically added here -->
    </div>    ","null","","","","","","","","","","","",""
"","null","html-keyboard-response","144","342466","0.0-11.0-0.18","yoTFPQqraq","62d3384b50d764bc57cc6c60","6617fad957f7c6a12ea16e26","6622baa1b44fba477ed57ca5","fixation cross","null","","","","","","","","","","","",""
"","1458","html-keyboard-response","145","343924","0.0-11.0-1.18","yoTFPQqraq","62d3384b50d764bc57cc6c60","6617fad957f7c6a12ea16e26","6622baa1b44fba477ed57ca5","image grid","q","","","","","Ontogenetic_Distractor_Threat_target","2500","ongrid","q","3","Ontogenetic","true","experimental"
"","null","html-keyboard-response","146","344077","0.0-11.0-2.18","yoTFPQqraq","62d3384b50d764bc57cc6c60","6617fad957f7c6a12ea16e26","6622baa1b44fba477ed57ca5","
    <div id=""grid-container"">
        <!-- Grid items will be dynamically added here -->
    </div>    ","null","","","","","","","","","","","",""
"","null","html-keyboard-response","147","344785","0.0-11.0-0.19","yoTFPQqraq","62d3384b50d764bc57cc6c60","6617fad957f7c6a12ea16e26","6622baa1b44fba477ed57ca5","fixation cross","null","","","","","","","","","","","",""
"","1332","html-keyboard-response","148","346118","0.0-11.0-1.19","yoTFPQqraq","62d3384b50d764bc57cc6c60","6617fad957f7c6a12ea16e26","6622baa1b44fba477ed57ca5","image grid","q","","","","","Ontogenetic_Distractor_Threat_target","2500","ongrid","q","7","Ontogenetic","true","experimental"
"","null","html-keyboard-response","149","346269","0.0-11.0-2.19","yoTFPQqraq","62d3384b50d764bc57cc6c60","6617fad957f7c6a12ea16e26","6622baa1b44fba477ed57ca5","
    <div id=""grid-container"">
        <!-- Grid items will be dynamically added here -->
    </div>    ","null","","","","","","","","","","","",""
"","null","html-keyboard-response","150","346974","0.0-11.0-0.20","yoTFPQqraq","62d3384b50d764bc57cc6c60","6617fad957f7c6a12ea16e26","6622baa1b44fba477ed57ca5","fixation cross","null","","","","","","","","","","","",""
"","1158","html-keyboard-response","151","348132","0.0-11.0-1.20","yoTFPQqraq","62d3384b50d764bc57cc6c60","6617fad957f7c6a12ea16e26","6622baa1b44fba477ed57ca5","image grid","p","","","","","Ontogenetic_Distractor_Nonthreat_target","2500","ongrid","p","6","Ontogenetic","true","experimental"
"","null","html-keyboard-response","152","348286","0.0-11.0-2.20","yoTFPQqraq","62d3384b50d764bc57cc6c60","6617fad957f7c6a12ea16e26","6622baa1b44fba477ed57ca5","
    <div id=""grid-container"">
        <!-- Grid items will be dynamically added here -->
    </div>    ","null","","","","","","","","","","","",""
"","null","html-keyboard-response","153","348989","0.0-11.0-0.21","yoTFPQqraq","62d3384b50d764bc57cc6c60","6617fad957f7c6a12ea16e26","6622baa1b44fba477ed57ca5","fixation cross","null","","","","","","","","","","","",""
"","1623","html-keyboard-response","154","350612","0.0-11.0-1.21","yoTFPQqraq","62d3384b50d764bc57cc6c60","6617fad957f7c6a12ea16e26","6622baa1b44fba477ed57ca5","image grid","q","","","","","Ontogenetic_Distractor_Nonthreat_target","2500","ongrid","p","5","Ontogenetic","false","experimental"
"","null","html-keyboard-response","155","350765","0.0-11.0-2.21","yoTFPQqraq","62d3384b50d764bc57cc6c60","6617fad957f7c6a12ea16e26","6622baa1b44fba477ed57ca5","
    <div id=""grid-container"">
        <!-- Grid items will be dynamically added here -->
    </div>    ","null","","","","","","","","","","","",""
"","null","html-keyboard-response","156","351473","0.0-11.0-0.22","yoTFPQqraq","62d3384b50d764bc57cc6c60","6617fad957f7c6a12ea16e26","6622baa1b44fba477ed57ca5","fixation cross","null","","","","","","","","","","","",""
"","null","html-keyboard-response","157","353974","0.0-11.0-1.22","yoTFPQqraq","62d3384b50d764bc57cc6c60","6617fad957f7c6a12ea16e26","6622baa1b44fba477ed57ca5","
        <div id=""grid-container"">
        <!-- Grid items will be dynamically added here -->
    </div>    ","null","","","","","","","","","","","",""
"","2696","html-keyboard-response","158","354171","0.0-11.0-2.22","yoTFPQqraq","62d3384b50d764bc57cc6c60","6617fad957f7c6a12ea16e26","6622baa1b44fba477ed57ca5","mask grid"," ","","","","","Ontogenetic_Distractor_notarget","2500","onmask"," ","2","Ontogenetic","true","experimental"
"","null","html-keyboard-response","159","354873","0.0-11.0-0.23","yoTFPQqraq","62d3384b50d764bc57cc6c60","6617fad957f7c6a12ea16e26","6622baa1b44fba477ed57ca5","fixation cross","null","","","","","","","","","","","",""
"","1435","html-keyboard-response","160","356309","0.0-11.0-1.23","yoTFPQqraq","62d3384b50d764bc57cc6c60","6617fad957f7c6a12ea16e26","6622baa1b44fba477ed57ca5","image grid","q","","","","","Ontogenetic_Distractor_Threat_target","2500","ongrid","q","9","Ontogenetic","true","experimental"
"","null","html-keyboard-response","161","356462","0.0-11.0-2.23","yoTFPQqraq","62d3384b50d764bc57cc6c60","6617fad957f7c6a12ea16e26","6622baa1b44fba477ed57ca5","
    <div id=""grid-container"">
        <!-- Grid items will be dynamically added here -->
    </div>    ","null","","","","","","","","","","","",""
"","null","html-keyboard-response","162","357170","0.0-11.0-0.24","yoTFPQqraq","62d3384b50d764bc57cc6c60","6617fad957f7c6a12ea16e26","6622baa1b44fba477ed57ca5","fixation cross","null","","","","","","","","","","","",""
"","783","html-keyboard-response","163","357952","0.0-11.0-1.24","yoTFPQqraq","62d3384b50d764bc57cc6c60","6617fad957f7c6a12ea16e26","6622baa1b44fba477ed57ca5","image grid","p","","","","","Ontogenetic_Distractor_Nonthreat_target","2500","ongrid","p","3","Ontogenetic","true","experimental"
"","null","html-keyboard-response","164","358105","0.0-11.0-2.24","yoTFPQqraq","62d3384b50d764bc57cc6c60","6617fad957f7c6a12ea16e26","6622baa1b44fba477ed57ca5","
    <div id=""grid-container"">
        <!-- Grid items will be dynamically added here -->
    </div>    ","null","","","","","","","","","","","",""
"","null","html-keyboard-response","165","358809","0.0-11.0-0.25","yoTFPQqraq","62d3384b50d764bc57cc6c60","6617fad957f7c6a12ea16e26","6622baa1b44fba477ed57ca5","fixation cross","null","","","","","","","","","","","",""
"","960","html-keyboard-response","166","359768","0.0-11.0-1.25","yoTFPQqraq","62d3384b50d764bc57cc6c60","6617fad957f7c6a12ea16e26","6622baa1b44fba477ed57ca5","image grid","q","","","","","Ontogenetic_Distractor_Threat_target","2500","ongrid","q","9","Ontogenetic","true","experimental"
"","null","html-keyboard-response","167","359921","0.0-11.0-2.25","yoTFPQqraq","62d3384b50d764bc57cc6c60","6617fad957f7c6a12ea16e26","6622baa1b44fba477ed57ca5","
    <div id=""grid-container"">
        <!-- Grid items will be dynamically added here -->
    </div>    ","null","","","","","","","","","","","",""
"","null","html-keyboard-response","168","360629","0.0-11.0-0.26","yoTFPQqraq","62d3384b50d764bc57cc6c60","6617fad957f7c6a12ea16e26","6622baa1b44fba477ed57ca5","fixation cross","null","","","","","","","","","","","",""
"","1180","html-keyboard-response","169","361810","0.0-11.0-1.26","yoTFPQqraq","62d3384b50d764bc57cc6c60","6617fad957f7c6a12ea16e26","6622baa1b44fba477ed57ca5","image grid","p","","","","","Ontogenetic_Distractor_Nonthreat_target","2500","ongrid","p","9","Ontogenetic","true","experimental"
"","null","html-keyboard-response","170","361962","0.0-11.0-2.26","yoTFPQqraq","62d3384b50d764bc57cc6c60","6617fad957f7c6a12ea16e26","6622baa1b44fba477ed57ca5","
    <div id=""grid-container"">
        <!-- Grid items will be dynamically added here -->
    </div>    ","null","","","","","","","","","","","",""
"","null","html-keyboard-response","171","362669","0.0-11.0-0.27","yoTFPQqraq","62d3384b50d764bc57cc6c60","6617fad957f7c6a12ea16e26","6622baa1b44fba477ed57ca5","fixation cross","null","","","","","","","","","","","",""
"","1922","html-keyboard-response","172","364592","0.0-11.0-1.27","yoTFPQqraq","62d3384b50d764bc57cc6c60","6617fad957f7c6a12ea16e26","6622baa1b44fba477ed57ca5","image grid"," ","","","","","Ontogenetic_Distractor_notarget","2500","ongrid"," ","9","Ontogenetic","true","experimental"
"","null","html-keyboard-response","173","364745","0.0-11.0-2.27","yoTFPQqraq","62d3384b50d764bc57cc6c60","6617fad957f7c6a12ea16e26","6622baa1b44fba477ed57ca5","
    <div id=""grid-container"">
        <!-- Grid items will be dynamically added here -->
    </div>    ","null","","","","","","","","","","","",""
"","null","html-keyboard-response","174","365450","0.0-11.0-0.28","yoTFPQqraq","62d3384b50d764bc57cc6c60","6617fad957f7c6a12ea16e26","6622baa1b44fba477ed57ca5","fixation cross","null","","","","","","","","","","","",""
"","1598","html-keyboard-response","175","367047","0.0-11.0-1.28","yoTFPQqraq","62d3384b50d764bc57cc6c60","6617fad957f7c6a12ea16e26","6622baa1b44fba477ed57ca5","image grid","p","","","","","Ontogenetic_Distractor_Nonthreat_target","2500","ongrid","p","4","Ontogenetic","true","experimental"
"","null","html-keyboard-response","176","367200","0.0-11.0-2.28","yoTFPQqraq","62d3384b50d764bc57cc6c60","6617fad957f7c6a12ea16e26","6622baa1b44fba477ed57ca5","
    <div id=""grid-container"">
        <!-- Grid items will be dynamically added here -->
    </div>    ","null","","","","","","","","","","","",""
"","null","html-keyboard-response","177","367906","0.0-11.0-0.29","yoTFPQqraq","62d3384b50d764bc57cc6c60","6617fad957f7c6a12ea16e26","6622baa1b44fba477ed57ca5","fixation cross","null","","","","","","","","","","","",""
"","1687","html-keyboard-response","178","369593","0.0-11.0-1.29","yoTFPQqraq","62d3384b50d764bc57cc6c60","6617fad957f7c6a12ea16e26","6622baa1b44fba477ed57ca5","image grid","p","","","","","Ontogenetic_Distractor_Nonthreat_target","2500","ongrid","p","2","Ontogenetic","true","experimental"
"","null","html-keyboard-response","179","369746","0.0-11.0-2.29","yoTFPQqraq","62d3384b50d764bc57cc6c60","6617fad957f7c6a12ea16e26","6622baa1b44fba477ed57ca5","
    <div id=""grid-container"">
        <!-- Grid items will be dynamically added here -->
    </div>    ","null","","","","","","","","","","","",""
"","null","html-keyboard-response","180","370453","0.0-11.0-0.30","yoTFPQqraq","62d3384b50d764bc57cc6c60","6617fad957f7c6a12ea16e26","6622baa1b44fba477ed57ca5","fixation cross","null","","","","","","","","","","","",""
"","887","html-keyboard-response","181","371340","0.0-11.0-1.30","yoTFPQqraq","62d3384b50d764bc57cc6c60","6617fad957f7c6a12ea16e26","6622baa1b44fba477ed57ca5","image grid","q","","","","","Ontogenetic_Distractor_Threat_target","2500","ongrid","q","9","Ontogenetic","true","experimental"
"","null","html-keyboard-response","182","371492","0.0-11.0-2.30","yoTFPQqraq","62d3384b50d764bc57cc6c60","6617fad957f7c6a12ea16e26","6622baa1b44fba477ed57ca5","
    <div id=""grid-container"">
        <!-- Grid items will be dynamically added here -->
    </div>    ","null","","","","","","","","","","","",""
"","null","html-keyboard-response","183","372196","0.0-11.0-0.31","yoTFPQqraq","62d3384b50d764bc57cc6c60","6617fad957f7c6a12ea16e26","6622baa1b44fba477ed57ca5","fixation cross","null","","","","","","","","","","","",""
"","1626","html-keyboard-response","184","373823","0.0-11.0-1.31","yoTFPQqraq","62d3384b50d764bc57cc6c60","6617fad957f7c6a12ea16e26","6622baa1b44fba477ed57ca5","image grid","q","","","","","Ontogenetic_Distractor_Threat_target","2500","ongrid","q","7","Ontogenetic","true","experimental"
"","null","html-keyboard-response","185","373973","0.0-11.0-2.31","yoTFPQqraq","62d3384b50d764bc57cc6c60","6617fad957f7c6a12ea16e26","6622baa1b44fba477ed57ca5","
    <div id=""grid-container"">
        <!-- Grid items will be dynamically added here -->
    </div>    ","null","","","","","","","","","","","",""
"","null","html-keyboard-response","186","374678","0.0-11.0-0.32","yoTFPQqraq","62d3384b50d764bc57cc6c60","6617fad957f7c6a12ea16e26","6622baa1b44fba477ed57ca5","fixation cross","null","","","","","","","","","","","",""
"","1099","html-keyboard-response","187","375776","0.0-11.0-1.32","yoTFPQqraq","62d3384b50d764bc57cc6c60","6617fad957f7c6a12ea16e26","6622baa1b44fba477ed57ca5","image grid","q","","","","","Ontogenetic_Distractor_Threat_target","2500","ongrid","q","4","Ontogenetic","true","experimental"
"","null","html-keyboard-response","188","375930","0.0-11.0-2.32","yoTFPQqraq","62d3384b50d764bc57cc6c60","6617fad957f7c6a12ea16e26","6622baa1b44fba477ed57ca5","
    <div id=""grid-container"">
        <!-- Grid items will be dynamically added here -->
    </div>    ","null","","","","","","","","","","","",""
"","null","html-keyboard-response","189","376638","0.0-11.0-0.33","yoTFPQqraq","62d3384b50d764bc57cc6c60","6617fad957f7c6a12ea16e26","6622baa1b44fba477ed57ca5","fixation cross","null","","","","","","","","","","","",""
"","855","html-keyboard-response","190","377493","0.0-11.0-1.33","yoTFPQqraq","62d3384b50d764bc57cc6c60","6617fad957f7c6a12ea16e26","6622baa1b44fba477ed57ca5","image grid","p","","","","","Ontogenetic_Distractor_Nonthreat_target","2500","ongrid","p","1","Ontogenetic","true","experimental"
"","null","html-keyboard-response","191","377646","0.0-11.0-2.33","yoTFPQqraq","62d3384b50d764bc57cc6c60","6617fad957f7c6a12ea16e26","6622baa1b44fba477ed57ca5","
    <div id=""grid-container"">
        <!-- Grid items will be dynamically added here -->
    </div>    ","null","","","","","","","","","","","",""
"","null","html-keyboard-response","192","378353","0.0-11.0-0.34","yoTFPQqraq","62d3384b50d764bc57cc6c60","6617fad957f7c6a12ea16e26","6622baa1b44fba477ed57ca5","fixation cross","null","","","","","","","","","","","",""
"","924","html-keyboard-response","193","379277","0.0-11.0-1.34","yoTFPQqraq","62d3384b50d764bc57cc6c60","6617fad957f7c6a12ea16e26","6622baa1b44fba477ed57ca5","image grid","p","","","","","Ontogenetic_Distractor_Nonthreat_target","2500","ongrid","p","9","Ontogenetic","true","experimental"
"","null","html-keyboard-response","194","379433","0.0-11.0-2.34","yoTFPQqraq","62d3384b50d764bc57cc6c60","6617fad957f7c6a12ea16e26","6622baa1b44fba477ed57ca5","
    <div id=""grid-container"">
        <!-- Grid items will be dynamically added here -->
    </div>    ","null","","","","","","","","","","","",""
"","null","html-keyboard-response","195","380138","0.0-11.0-0.35","yoTFPQqraq","62d3384b50d764bc57cc6c60","6617fad957f7c6a12ea16e26","6622baa1b44fba477ed57ca5","fixation cross","null","","","","","","","","","","","",""
"","2007","html-keyboard-response","196","382145","0.0-11.0-1.35","yoTFPQqraq","62d3384b50d764bc57cc6c60","6617fad957f7c6a12ea16e26","6622baa1b44fba477ed57ca5","image grid","q","","","","","Ontogenetic_Distractor_Threat_target","2500","ongrid","q","8","Ontogenetic","true","experimental"
"","null","html-keyboard-response","197","382297","0.0-11.0-2.35","yoTFPQqraq","62d3384b50d764bc57cc6c60","6617fad957f7c6a12ea16e26","6622baa1b44fba477ed57ca5","
    <div id=""grid-container"">
        <!-- Grid items will be dynamically added here -->
    </div>    ","null","","","","","","","","","","","",""
"","null","html-keyboard-response","198","383001","0.0-11.0-0.36","yoTFPQqraq","62d3384b50d764bc57cc6c60","6617fad957f7c6a12ea16e26","6622baa1b44fba477ed57ca5","fixation cross","null","","","","","","","","","","","",""
"","890","html-keyboard-response","199","383892","0.0-11.0-1.36","yoTFPQqraq","62d3384b50d764bc57cc6c60","6617fad957f7c6a12ea16e26","6622baa1b44fba477ed57ca5","image grid","q","","","","","Ontogenetic_Distractor_Threat_target","2500","ongrid","q","4","Ontogenetic","true","experimental"
"","null","html-keyboard-response","200","384046","0.0-11.0-2.36","yoTFPQqraq","62d3384b50d764bc57cc6c60","6617fad957f7c6a12ea16e26","6622baa1b44fba477ed57ca5","
    <div id=""grid-container"">
        <!-- Grid items will be dynamically added here -->
    </div>    ","null","","","","","","","","","","","",""
"","null","html-keyboard-response","201","384750","0.0-11.0-0.37","yoTFPQqraq","62d3384b50d764bc57cc6c60","6617fad957f7c6a12ea16e26","6622baa1b44fba477ed57ca5","fixation cross","null","","","","","","","","","","","",""
"","1450","html-keyboard-response","202","386200","0.0-11.0-1.37","yoTFPQqraq","62d3384b50d764bc57cc6c60","6617fad957f7c6a12ea16e26","6622baa1b44fba477ed57ca5","image grid","p","","","","","Ontogenetic_Distractor_Nonthreat_target","2500","ongrid","p","9","Ontogenetic","true","experimental"
"","null","html-keyboard-response","203","386353","0.0-11.0-2.37","yoTFPQqraq","62d3384b50d764bc57cc6c60","6617fad957f7c6a12ea16e26","6622baa1b44fba477ed57ca5","
    <div id=""grid-container"">
        <!-- Grid items will be dynamically added here -->
    </div>    ","null","","","","","","","","","","","",""
"","null","html-keyboard-response","204","387058","0.0-11.0-0.38","yoTFPQqraq","62d3384b50d764bc57cc6c60","6617fad957f7c6a12ea16e26","6622baa1b44fba477ed57ca5","fixation cross","null","","","","","","","","","","","",""
"","1049","html-keyboard-response","205","388107","0.0-11.0-1.38","yoTFPQqraq","62d3384b50d764bc57cc6c60","6617fad957f7c6a12ea16e26","6622baa1b44fba477ed57ca5","image grid","q","","","","","Ontogenetic_Distractor_Threat_target","2500","ongrid","q","3","Ontogenetic","true","experimental"
"","null","html-keyboard-response","206","388258","0.0-11.0-2.38","yoTFPQqraq","62d3384b50d764bc57cc6c60","6617fad957f7c6a12ea16e26","6622baa1b44fba477ed57ca5","
    <div id=""grid-container"">
        <!-- Grid items will be dynamically added here -->
    </div>    ","null","","","","","","","","","","","",""
"","null","html-keyboard-response","207","388965","0.0-11.0-0.39","yoTFPQqraq","62d3384b50d764bc57cc6c60","6617fad957f7c6a12ea16e26","6622baa1b44fba477ed57ca5","fixation cross","null","","","","","","","","","","","",""
"","689","html-keyboard-response","208","389655","0.0-11.0-1.39","yoTFPQqraq","62d3384b50d764bc57cc6c60","6617fad957f7c6a12ea16e26","6622baa1b44fba477ed57ca5","image grid","q","","","","","Ontogenetic_Distractor_Threat_target","2500","ongrid","q","1","Ontogenetic","true","experimental"
"","null","html-keyboard-response","209","389806","0.0-11.0-2.39","yoTFPQqraq","62d3384b50d764bc57cc6c60","6617fad957f7c6a12ea16e26","6622baa1b44fba477ed57ca5","
    <div id=""grid-container"">
        <!-- Grid items will be dynamically added here -->
    </div>    ","null","","","","","","","","","","","",""
"","4082","html-keyboard-response","210","394108","0.0-12.0","yoTFPQqraq","62d3384b50d764bc57cc6c60","6617fad957f7c6a12ea16e26","6622baa1b44fba477ed57ca5","break screen"," ","","","","","","","","","","","",""
"","null","html-keyboard-response","211","396630","0.0-13.0-0.0","yoTFPQqraq","62d3384b50d764bc57cc6c60","6617fad957f7c6a12ea16e26","6622baa1b44fba477ed57ca5","fixation cross","null","","","","","","","","","","","",""
"","null","html-keyboard-response","212","399132","0.0-13.0-1.0","yoTFPQqraq","62d3384b50d764bc57cc6c60","6617fad957f7c6a12ea16e26","6622baa1b44fba477ed57ca5","
        <div id=""grid-container"">
        <!-- Grid items will be dynamically added here -->
    </div>    ","null","","","","","","","","","","","",""
"","2558","html-keyboard-response","213","399191","0.0-13.0-2.0","yoTFPQqraq","62d3384b50d764bc57cc6c60","6617fad957f7c6a12ea16e26","6622baa1b44fba477ed57ca5","mask grid","q","","","","","Phylogenetic_Distractor_Threat_target","2500","onmask","q","9","Phylogenetic","true","experimental"
"","null","html-keyboard-response","214","399898","0.0-13.0-0.1","yoTFPQqraq","62d3384b50d764bc57cc6c60","6617fad957f7c6a12ea16e26","6622baa1b44fba477ed57ca5","fixation cross","null","","","","","","","","","","","",""
"","1129","html-keyboard-response","215","401027","0.0-13.0-1.1","yoTFPQqraq","62d3384b50d764bc57cc6c60","6617fad957f7c6a12ea16e26","6622baa1b44fba477ed57ca5","image grid","q","","","","","Phylogenetic_Distractor_Threat_target","2500","ongrid","q","6","Phylogenetic","true","experimental"
"","null","html-keyboard-response","216","401182","0.0-13.0-2.1","yoTFPQqraq","62d3384b50d764bc57cc6c60","6617fad957f7c6a12ea16e26","6622baa1b44fba477ed57ca5","
    <div id=""grid-container"">
        <!-- Grid items will be dynamically added here -->
    </div>    ","null","","","","","","","","","","","",""
"","null","html-keyboard-response","217","401889","0.0-13.0-0.2","yoTFPQqraq","62d3384b50d764bc57cc6c60","6617fad957f7c6a12ea16e26","6622baa1b44fba477ed57ca5","fixation cross","null","","","","","","","","","","","",""
"","976","html-keyboard-response","218","402865","0.0-13.0-1.2","yoTFPQqraq","62d3384b50d764bc57cc6c60","6617fad957f7c6a12ea16e26","6622baa1b44fba477ed57ca5","image grid","q","","","","","Phylogenetic_Distractor_Threat_target","2500","ongrid","q","2","Phylogenetic","true","experimental"
"","null","html-keyboard-response","219","403018","0.0-13.0-2.2","yoTFPQqraq","62d3384b50d764bc57cc6c60","6617fad957f7c6a12ea16e26","6622baa1b44fba477ed57ca5","
    <div id=""grid-container"">
        <!-- Grid items will be dynamically added here -->
    </div>    ","null","","","","","","","","","","","",""
"","null","html-keyboard-response","220","403726","0.0-13.0-0.3","yoTFPQqraq","62d3384b50d764bc57cc6c60","6617fad957f7c6a12ea16e26","6622baa1b44fba477ed57ca5","fixation cross","null","","","","","","","","","","","",""
"","null","html-keyboard-response","221","406229","0.0-13.0-1.3","yoTFPQqraq","62d3384b50d764bc57cc6c60","6617fad957f7c6a12ea16e26","6622baa1b44fba477ed57ca5","
        <div id=""grid-container"">
        <!-- Grid items will be dynamically added here -->
    </div>    ","null","","","","","","","","","","","",""
"","2646","html-keyboard-response","222","406375","0.0-13.0-2.3","yoTFPQqraq","62d3384b50d764bc57cc6c60","6617fad957f7c6a12ea16e26","6622baa1b44fba477ed57ca5","mask grid","p","","","","","Phylogenetic_Distractor_Nonthreat_target","2500","onmask","p","3","Phylogenetic","true","experimental"
"","null","html-keyboard-response","223","407081","0.0-13.0-0.4","yoTFPQqraq","62d3384b50d764bc57cc6c60","6617fad957f7c6a12ea16e26","6622baa1b44fba477ed57ca5","fixation cross","null","","","","","","","","","","","",""
"","1391","html-keyboard-response","224","408472","0.0-13.0-1.4","yoTFPQqraq","62d3384b50d764bc57cc6c60","6617fad957f7c6a12ea16e26","6622baa1b44fba477ed57ca5","image grid","q","","","","","Phylogenetic_Distractor_Threat_target","2500","ongrid","q","9","Phylogenetic","true","experimental"
"","null","html-keyboard-response","225","408626","0.0-13.0-2.4","yoTFPQqraq","62d3384b50d764bc57cc6c60","6617fad957f7c6a12ea16e26","6622baa1b44fba477ed57ca5","
    <div id=""grid-container"">
        <!-- Grid items will be dynamically added here -->
    </div>    ","null","","","","","","","","","","","",""
"","null","html-keyboard-response","226","409329","0.0-13.0-0.5","yoTFPQqraq","62d3384b50d764bc57cc6c60","6617fad957f7c6a12ea16e26","6622baa1b44fba477ed57ca5","fixation cross","null","","","","","","","","","","","",""
"","1322","html-keyboard-response","227","410652","0.0-13.0-1.5","yoTFPQqraq","62d3384b50d764bc57cc6c60","6617fad957f7c6a12ea16e26","6622baa1b44fba477ed57ca5","image grid","p","","","","","Phylogenetic_Distractor_Nonthreat_target","2500","ongrid","p","5","Phylogenetic","true","experimental"
"","null","html-keyboard-response","228","410805","0.0-13.0-2.5","yoTFPQqraq","62d3384b50d764bc57cc6c60","6617fad957f7c6a12ea16e26","6622baa1b44fba477ed57ca5","
    <div id=""grid-container"">
        <!-- Grid items will be dynamically added here -->
    </div>    ","null","","","","","","","","","","","",""
"","null","html-keyboard-response","229","411514","0.0-13.0-0.6","yoTFPQqraq","62d3384b50d764bc57cc6c60","6617fad957f7c6a12ea16e26","6622baa1b44fba477ed57ca5","fixation cross","null","","","","","","","","","","","",""
"","1110","html-keyboard-response","230","412624","0.0-13.0-1.6","yoTFPQqraq","62d3384b50d764bc57cc6c60","6617fad957f7c6a12ea16e26","6622baa1b44fba477ed57ca5","image grid","p","","","","","Phylogenetic_Distractor_Nonthreat_target","2500","ongrid","p","6","Phylogenetic","true","experimental"
"","null","html-keyboard-response","231","412777","0.0-13.0-2.6","yoTFPQqraq","62d3384b50d764bc57cc6c60","6617fad957f7c6a12ea16e26","6622baa1b44fba477ed57ca5","
    <div id=""grid-container"">
        <!-- Grid items will be dynamically added here -->
    </div>    ","null","","","","","","","","","","","",""
"","null","html-keyboard-response","232","413481","0.0-13.0-0.7","yoTFPQqraq","62d3384b50d764bc57cc6c60","6617fad957f7c6a12ea16e26","6622baa1b44fba477ed57ca5","fixation cross","null","","","","","","","","","","","",""
"","1217","html-keyboard-response","233","414698","0.0-13.0-1.7","yoTFPQqraq","62d3384b50d764bc57cc6c60","6617fad957f7c6a12ea16e26","6622baa1b44fba477ed57ca5","image grid","q","","","","","Phylogenetic_Distractor_Threat_target","2500","ongrid","q","7","Phylogenetic","true","experimental"
"","null","html-keyboard-response","234","414850","0.0-13.0-2.7","yoTFPQqraq","62d3384b50d764bc57cc6c60","6617fad957f7c6a12ea16e26","6622baa1b44fba477ed57ca5","
    <div id=""grid-container"">
        <!-- Grid items will be dynamically added here -->
    </div>    ","null","","","","","","","","","","","",""
"","null","html-keyboard-response","235","415554","0.0-13.0-0.8","yoTFPQqraq","62d3384b50d764bc57cc6c60","6617fad957f7c6a12ea16e26","6622baa1b44fba477ed57ca5","fixation cross","null","","","","","","","","","","","",""
"","748","html-keyboard-response","236","416302","0.0-13.0-1.8","yoTFPQqraq","62d3384b50d764bc57cc6c60","6617fad957f7c6a12ea16e26","6622baa1b44fba477ed57ca5","image grid","q","","","","","Phylogenetic_Distractor_Threat_target","2500","ongrid","q","2","Phylogenetic","true","experimental"
"","null","html-keyboard-response","237","416453","0.0-13.0-2.8","yoTFPQqraq","62d3384b50d764bc57cc6c60","6617fad957f7c6a12ea16e26","6622baa1b44fba477ed57ca5","
    <div id=""grid-container"">
        <!-- Grid items will be dynamically added here -->
    </div>    ","null","","","","","","","","","","","",""
"","null","html-keyboard-response","238","417157","0.0-13.0-0.9","yoTFPQqraq","62d3384b50d764bc57cc6c60","6617fad957f7c6a12ea16e26","6622baa1b44fba477ed57ca5","fixation cross","null","","","","","","","","","","","",""
"","1346","html-keyboard-response","239","418503","0.0-13.0-1.9","yoTFPQqraq","62d3384b50d764bc57cc6c60","6617fad957f7c6a12ea16e26","6622baa1b44fba477ed57ca5","image grid","p","","","","","Phylogenetic_Distractor_Nonthreat_target","2500","ongrid","p","5","Phylogenetic","true","experimental"
"","null","html-keyboard-response","240","418658","0.0-13.0-2.9","yoTFPQqraq","62d3384b50d764bc57cc6c60","6617fad957f7c6a12ea16e26","6622baa1b44fba477ed57ca5","
    <div id=""grid-container"">
        <!-- Grid items will be dynamically added here -->
    </div>    ","null","","","","","","","","","","","",""
"","null","html-keyboard-response","241","419366","0.0-13.0-0.10","yoTFPQqraq","62d3384b50d764bc57cc6c60","6617fad957f7c6a12ea16e26","6622baa1b44fba477ed57ca5","fixation cross","null","","","","","","","","","","","",""
"","1731","html-keyboard-response","242","421097","0.0-13.0-1.10","yoTFPQqraq","62d3384b50d764bc57cc6c60","6617fad957f7c6a12ea16e26","6622baa1b44fba477ed57ca5","image grid"," ","","","","","Phylogenetic_Distractor_Nonthreat_target","2500","ongrid","p","9","Phylogenetic","false","experimental"
"","null","html-keyboard-response","243","421250","0.0-13.0-2.10","yoTFPQqraq","62d3384b50d764bc57cc6c60","6617fad957f7c6a12ea16e26","6622baa1b44fba477ed57ca5","
    <div id=""grid-container"">
        <!-- Grid items will be dynamically added here -->
    </div>    ","null","","","","","","","","","","","",""
"","null","html-keyboard-response","244","421957","0.0-13.0-0.11","yoTFPQqraq","62d3384b50d764bc57cc6c60","6617fad957f7c6a12ea16e26","6622baa1b44fba477ed57ca5","fixation cross","null","","","","","","","","","","","",""
"","1218","html-keyboard-response","245","423176","0.0-13.0-1.11","yoTFPQqraq","62d3384b50d764bc57cc6c60","6617fad957f7c6a12ea16e26","6622baa1b44fba477ed57ca5","image grid","q","","","","","Phylogenetic_Distractor_Threat_target","2500","ongrid","q","5","Phylogenetic","true","experimental"
"","null","html-keyboard-response","246","423330","0.0-13.0-2.11","yoTFPQqraq","62d3384b50d764bc57cc6c60","6617fad957f7c6a12ea16e26","6622baa1b44fba477ed57ca5","
    <div id=""grid-container"">
        <!-- Grid items will be dynamically added here -->
    </div>    ","null","","","","","","","","","","","",""
"","null","html-keyboard-response","247","424034","0.0-13.0-0.12","yoTFPQqraq","62d3384b50d764bc57cc6c60","6617fad957f7c6a12ea16e26","6622baa1b44fba477ed57ca5","fixation cross","null","","","","","","","","","","","",""
"","2370","html-keyboard-response","248","426405","0.0-13.0-1.12","yoTFPQqraq","62d3384b50d764bc57cc6c60","6617fad957f7c6a12ea16e26","6622baa1b44fba477ed57ca5","image grid","q","","","","","Phylogenetic_Distractor_Threat_target","2500","ongrid","q","8","Phylogenetic","true","experimental"
"","null","html-keyboard-response","249","426557","0.0-13.0-2.12","yoTFPQqraq","62d3384b50d764bc57cc6c60","6617fad957f7c6a12ea16e26","6622baa1b44fba477ed57ca5","
    <div id=""grid-container"">
        <!-- Grid items will be dynamically added here -->
    </div>    ","null","","","","","","","","","","","",""
"","null","html-keyboard-response","250","427261","0.0-13.0-0.13","yoTFPQqraq","62d3384b50d764bc57cc6c60","6617fad957f7c6a12ea16e26","6622baa1b44fba477ed57ca5","fixation cross","null","","","","","","","","","","","",""
"","719","html-keyboard-response","251","427980","0.0-13.0-1.13","yoTFPQqraq","62d3384b50d764bc57cc6c60","6617fad957f7c6a12ea16e26","6622baa1b44fba477ed57ca5","image grid","q","","","","","Phylogenetic_Distractor_Threat_target","2500","ongrid","q","2","Phylogenetic","true","experimental"
"","null","html-keyboard-response","252","428133","0.0-13.0-2.13","yoTFPQqraq","62d3384b50d764bc57cc6c60","6617fad957f7c6a12ea16e26","6622baa1b44fba477ed57ca5","
    <div id=""grid-container"">
        <!-- Grid items will be dynamically added here -->
    </div>    ","null","","","","","","","","","","","",""
"","null","html-keyboard-response","253","428837","0.0-13.0-0.14","yoTFPQqraq","62d3384b50d764bc57cc6c60","6617fad957f7c6a12ea16e26","6622baa1b44fba477ed57ca5","fixation cross","null","","","","","","","","","","","",""
"","2275","html-keyboard-response","254","431112","0.0-13.0-1.14","yoTFPQqraq","62d3384b50d764bc57cc6c60","6617fad957f7c6a12ea16e26","6622baa1b44fba477ed57ca5","image grid","p","","","","","Phylogenetic_Distractor_Nonthreat_target","2500","ongrid","p","8","Phylogenetic","true","experimental"
"","null","html-keyboard-response","255","431265","0.0-13.0-2.14","yoTFPQqraq","62d3384b50d764bc57cc6c60","6617fad957f7c6a12ea16e26","6622baa1b44fba477ed57ca5","
    <div id=""grid-container"">
        <!-- Grid items will be dynamically added here -->
    </div>    ","null","","","","","","","","","","","",""
"","null","html-keyboard-response","256","431974","0.0-13.0-0.15","yoTFPQqraq","62d3384b50d764bc57cc6c60","6617fad957f7c6a12ea16e26","6622baa1b44fba477ed57ca5","fixation cross","null","","","","","","","","","","","",""
"","1907","html-keyboard-response","257","433881","0.0-13.0-1.15","yoTFPQqraq","62d3384b50d764bc57cc6c60","6617fad957f7c6a12ea16e26","6622baa1b44fba477ed57ca5","image grid","p","","","","","Phylogenetic_Distractor_Nonthreat_target","2500","ongrid","p","7","Phylogenetic","true","experimental"
"","null","html-keyboard-response","258","434034","0.0-13.0-2.15","yoTFPQqraq","62d3384b50d764bc57cc6c60","6617fad957f7c6a12ea16e26","6622baa1b44fba477ed57ca5","
    <div id=""grid-container"">
        <!-- Grid items will be dynamically added here -->
    </div>    ","null","","","","","","","","","","","",""
"","null","html-keyboard-response","259","434741","0.0-13.0-0.16","yoTFPQqraq","62d3384b50d764bc57cc6c60","6617fad957f7c6a12ea16e26","6622baa1b44fba477ed57ca5","fixation cross","null","","","","","","","","","","","",""
"","1354","html-keyboard-response","260","436095","0.0-13.0-1.16","yoTFPQqraq","62d3384b50d764bc57cc6c60","6617fad957f7c6a12ea16e26","6622baa1b44fba477ed57ca5","image grid","q","","","","","Phylogenetic_Distractor_Threat_target","2500","ongrid","q","8","Phylogenetic","true","experimental"
"","null","html-keyboard-response","261","436250","0.0-13.0-2.16","yoTFPQqraq","62d3384b50d764bc57cc6c60","6617fad957f7c6a12ea16e26","6622baa1b44fba477ed57ca5","
    <div id=""grid-container"">
        <!-- Grid items will be dynamically added here -->
    </div>    ","null","","","","","","","","","","","",""
"","null","html-keyboard-response","262","436958","0.0-13.0-0.17","yoTFPQqraq","62d3384b50d764bc57cc6c60","6617fad957f7c6a12ea16e26","6622baa1b44fba477ed57ca5","fixation cross","null","","","","","","","","","","","",""
"","849","html-keyboard-response","263","437807","0.0-13.0-1.17","yoTFPQqraq","62d3384b50d764bc57cc6c60","6617fad957f7c6a12ea16e26","6622baa1b44fba477ed57ca5","image grid","p","","","","","Phylogenetic_Distractor_Nonthreat_target","2500","ongrid","p","5","Phylogenetic","true","experimental"
"","null","html-keyboard-response","264","437958","0.0-13.0-2.17","yoTFPQqraq","62d3384b50d764bc57cc6c60","6617fad957f7c6a12ea16e26","6622baa1b44fba477ed57ca5","
    <div id=""grid-container"">
        <!-- Grid items will be dynamically added here -->
    </div>    ","null","","","","","","","","","","","",""
"","null","html-keyboard-response","265","438665","0.0-13.0-0.18","yoTFPQqraq","62d3384b50d764bc57cc6c60","6617fad957f7c6a12ea16e26","6622baa1b44fba477ed57ca5","fixation cross","null","","","","","","","","","","","",""
"","1853","html-keyboard-response","266","440519","0.0-13.0-1.18","yoTFPQqraq","62d3384b50d764bc57cc6c60","6617fad957f7c6a12ea16e26","6622baa1b44fba477ed57ca5","image grid"," ","","","","","Phylogenetic_Distractor_Nonthreat_target","2500","ongrid","p","9","Phylogenetic","false","experimental"
"","null","html-keyboard-response","267","440670","0.0-13.0-2.18","yoTFPQqraq","62d3384b50d764bc57cc6c60","6617fad957f7c6a12ea16e26","6622baa1b44fba477ed57ca5","
    <div id=""grid-container"">
        <!-- Grid items will be dynamically added here -->
    </div>    ","null","","","","","","","","","","","",""
"","null","html-keyboard-response","268","441374","0.0-13.0-0.19","yoTFPQqraq","62d3384b50d764bc57cc6c60","6617fad957f7c6a12ea16e26","6622baa1b44fba477ed57ca5","fixation cross","null","","","","","","","","","","","",""
"","1850","html-keyboard-response","269","443224","0.0-13.0-1.19","yoTFPQqraq","62d3384b50d764bc57cc6c60","6617fad957f7c6a12ea16e26","6622baa1b44fba477ed57ca5","image grid","p","","","","","Phylogenetic_Distractor_Nonthreat_target","2500","ongrid","p","4","Phylogenetic","true","experimental"
"","null","html-keyboard-response","270","443378","0.0-13.0-2.19","yoTFPQqraq","62d3384b50d764bc57cc6c60","6617fad957f7c6a12ea16e26","6622baa1b44fba477ed57ca5","
    <div id=""grid-container"">
        <!-- Grid items will be dynamically added here -->
    </div>    ","null","","","","","","","","","","","",""
"","null","html-keyboard-response","271","444086","0.0-13.0-0.20","yoTFPQqraq","62d3384b50d764bc57cc6c60","6617fad957f7c6a12ea16e26","6622baa1b44fba477ed57ca5","fixation cross","null","","","","","","","","","","","",""
"","894","html-keyboard-response","272","444980","0.0-13.0-1.20","yoTFPQqraq","62d3384b50d764bc57cc6c60","6617fad957f7c6a12ea16e26","6622baa1b44fba477ed57ca5","image grid","p","","","","","Phylogenetic_Distractor_Nonthreat_target","2500","ongrid","p","5","Phylogenetic","true","experimental"
"","null","html-keyboard-response","273","445133","0.0-13.0-2.20","yoTFPQqraq","62d3384b50d764bc57cc6c60","6617fad957f7c6a12ea16e26","6622baa1b44fba477ed57ca5","
    <div id=""grid-container"">
        <!-- Grid items will be dynamically added here -->
    </div>    ","null","","","","","","","","","","","",""
"","null","html-keyboard-response","274","445841","0.0-13.0-0.21","yoTFPQqraq","62d3384b50d764bc57cc6c60","6617fad957f7c6a12ea16e26","6622baa1b44fba477ed57ca5","fixation cross","null","","","","","","","","","","","",""
"","969","html-keyboard-response","275","446810","0.0-13.0-1.21","yoTFPQqraq","62d3384b50d764bc57cc6c60","6617fad957f7c6a12ea16e26","6622baa1b44fba477ed57ca5","image grid","q","","","","","Phylogenetic_Distractor_Threat_target","2500","ongrid","q","3","Phylogenetic","true","experimental"
"","null","html-keyboard-response","276","446962","0.0-13.0-2.21","yoTFPQqraq","62d3384b50d764bc57cc6c60","6617fad957f7c6a12ea16e26","6622baa1b44fba477ed57ca5","
    <div id=""grid-container"">
        <!-- Grid items will be dynamically added here -->
    </div>    ","null","","","","","","","","","","","",""
"","null","html-keyboard-response","277","447669","0.0-13.0-0.22","yoTFPQqraq","62d3384b50d764bc57cc6c60","6617fad957f7c6a12ea16e26","6622baa1b44fba477ed57ca5","fixation cross","null","","","","","","","","","","","",""
"","1296","html-keyboard-response","278","448965","0.0-13.0-1.22","yoTFPQqraq","62d3384b50d764bc57cc6c60","6617fad957f7c6a12ea16e26","6622baa1b44fba477ed57ca5","image grid","q","","","","","Phylogenetic_Distractor_Threat_target","2500","ongrid","q","8","Phylogenetic","true","experimental"
"","null","html-keyboard-response","279","449118","0.0-13.0-2.22","yoTFPQqraq","62d3384b50d764bc57cc6c60","6617fad957f7c6a12ea16e26","6622baa1b44fba477ed57ca5","
    <div id=""grid-container"">
        <!-- Grid items will be dynamically added here -->
    </div>    ","null","","","","","","","","","","","",""
"","null","html-keyboard-response","280","449822","0.0-13.0-0.23","yoTFPQqraq","62d3384b50d764bc57cc6c60","6617fad957f7c6a12ea16e26","6622baa1b44fba477ed57ca5","fixation cross","null","","","","","","","","","","","",""
"","1120","html-keyboard-response","281","450941","0.0-13.0-1.23","yoTFPQqraq","62d3384b50d764bc57cc6c60","6617fad957f7c6a12ea16e26","6622baa1b44fba477ed57ca5","image grid","p","","","","","Phylogenetic_Distractor_Nonthreat_target","2500","ongrid","p","8","Phylogenetic","true","experimental"
"","null","html-keyboard-response","282","451093","0.0-13.0-2.23","yoTFPQqraq","62d3384b50d764bc57cc6c60","6617fad957f7c6a12ea16e26","6622baa1b44fba477ed57ca5","
    <div id=""grid-container"">
        <!-- Grid items will be dynamically added here -->
    </div>    ","null","","","","","","","","","","","",""
"","null","html-keyboard-response","283","451801","0.0-13.0-0.24","yoTFPQqraq","62d3384b50d764bc57cc6c60","6617fad957f7c6a12ea16e26","6622baa1b44fba477ed57ca5","fixation cross","null","","","","","","","","","","","",""
"","1829","html-keyboard-response","284","453630","0.0-13.0-1.24","yoTFPQqraq","62d3384b50d764bc57cc6c60","6617fad957f7c6a12ea16e26","6622baa1b44fba477ed57ca5","image grid","p","","","","","Phylogenetic_Distractor_notarget","2500","ongrid"," ","6","Phylogenetic","false","experimental"
"","null","html-keyboard-response","285","453786","0.0-13.0-2.24","yoTFPQqraq","62d3384b50d764bc57cc6c60","6617fad957f7c6a12ea16e26","6622baa1b44fba477ed57ca5","
    <div id=""grid-container"">
        <!-- Grid items will be dynamically added here -->
    </div>    ","null","","","","","","","","","","","",""
"","null","html-keyboard-response","286","454494","0.0-13.0-0.25","yoTFPQqraq","62d3384b50d764bc57cc6c60","6617fad957f7c6a12ea16e26","6622baa1b44fba477ed57ca5","fixation cross","null","","","","","","","","","","","",""
"","1010","html-keyboard-response","287","455504","0.0-13.0-1.25","yoTFPQqraq","62d3384b50d764bc57cc6c60","6617fad957f7c6a12ea16e26","6622baa1b44fba477ed57ca5","image grid","p","","","","","Phylogenetic_Distractor_Nonthreat_target","2500","ongrid","p","9","Phylogenetic","true","experimental"
"","null","html-keyboard-response","288","455658","0.0-13.0-2.25","yoTFPQqraq","62d3384b50d764bc57cc6c60","6617fad957f7c6a12ea16e26","6622baa1b44fba477ed57ca5","
    <div id=""grid-container"">
        <!-- Grid items will be dynamically added here -->
    </div>    ","null","","","","","","","","","","","",""
"","null","html-keyboard-response","289","456365","0.0-13.0-0.26","yoTFPQqraq","62d3384b50d764bc57cc6c60","6617fad957f7c6a12ea16e26","6622baa1b44fba477ed57ca5","fixation cross","null","","","","","","","","","","","",""
"","1305","html-keyboard-response","290","457670","0.0-13.0-1.26","yoTFPQqraq","62d3384b50d764bc57cc6c60","6617fad957f7c6a12ea16e26","6622baa1b44fba477ed57ca5","image grid","p","","","","","Phylogenetic_Distractor_Nonthreat_target","2500","ongrid","p","7","Phylogenetic","true","experimental"
"","null","html-keyboard-response","291","457825","0.0-13.0-2.26","yoTFPQqraq","62d3384b50d764bc57cc6c60","6617fad957f7c6a12ea16e26","6622baa1b44fba477ed57ca5","
    <div id=""grid-container"">
        <!-- Grid items will be dynamically added here -->
    </div>    ","null","","","","","","","","","","","",""
"","null","html-keyboard-response","292","458533","0.0-13.0-0.27","yoTFPQqraq","62d3384b50d764bc57cc6c60","6617fad957f7c6a12ea16e26","6622baa1b44fba477ed57ca5","fixation cross","null","","","","","","","","","","","",""
"","1163","html-keyboard-response","293","459696","0.0-13.0-1.27","yoTFPQqraq","62d3384b50d764bc57cc6c60","6617fad957f7c6a12ea16e26","6622baa1b44fba477ed57ca5","image grid","p","","","","","Phylogenetic_Distractor_notarget","2500","ongrid"," ","4","Phylogenetic","false","experimental"
"","null","html-keyboard-response","294","459848","0.0-13.0-2.27","yoTFPQqraq","62d3384b50d764bc57cc6c60","6617fad957f7c6a12ea16e26","6622baa1b44fba477ed57ca5","
    <div id=""grid-container"">
        <!-- Grid items will be dynamically added here -->
    </div>    ","null","","","","","","","","","","","",""
"","null","html-keyboard-response","295","460552","0.0-13.0-0.28","yoTFPQqraq","62d3384b50d764bc57cc6c60","6617fad957f7c6a12ea16e26","6622baa1b44fba477ed57ca5","fixation cross","null","","","","","","","","","","","",""
"","2246","html-keyboard-response","296","462798","0.0-13.0-1.28","yoTFPQqraq","62d3384b50d764bc57cc6c60","6617fad957f7c6a12ea16e26","6622baa1b44fba477ed57ca5","image grid"," ","","","","","Phylogenetic_Distractor_notarget","2500","ongrid"," ","1","Phylogenetic","true","experimental"
"","null","html-keyboard-response","297","462954","0.0-13.0-2.28","yoTFPQqraq","62d3384b50d764bc57cc6c60","6617fad957f7c6a12ea16e26","6622baa1b44fba477ed57ca5","
    <div id=""grid-container"">
        <!-- Grid items will be dynamically added here -->
    </div>    ","null","","","","","","","","","","","",""
"","null","html-keyboard-response","298","463660","0.0-13.0-0.29","yoTFPQqraq","62d3384b50d764bc57cc6c60","6617fad957f7c6a12ea16e26","6622baa1b44fba477ed57ca5","fixation cross","null","","","","","","","","","","","",""
"","1100","html-keyboard-response","299","464761","0.0-13.0-1.29","yoTFPQqraq","62d3384b50d764bc57cc6c60","6617fad957f7c6a12ea16e26","6622baa1b44fba477ed57ca5","image grid","q","","","","","Phylogenetic_Distractor_Threat_target","2500","ongrid","q","3","Phylogenetic","true","experimental"
"","null","html-keyboard-response","300","464914","0.0-13.0-2.29","yoTFPQqraq","62d3384b50d764bc57cc6c60","6617fad957f7c6a12ea16e26","6622baa1b44fba477ed57ca5","
    <div id=""grid-container"">
        <!-- Grid items will be dynamically added here -->
    </div>    ","null","","","","","","","","","","","",""
"","null","html-keyboard-response","301","465622","0.0-13.0-0.30","yoTFPQqraq","62d3384b50d764bc57cc6c60","6617fad957f7c6a12ea16e26","6622baa1b44fba477ed57ca5","fixation cross","null","","","","","","","","","","","",""
"","791","html-keyboard-response","302","466413","0.0-13.0-1.30","yoTFPQqraq","62d3384b50d764bc57cc6c60","6617fad957f7c6a12ea16e26","6622baa1b44fba477ed57ca5","image grid","p","","","","","Phylogenetic_Distractor_Nonthreat_target","2500","ongrid","p","6","Phylogenetic","true","experimental"
"","null","html-keyboard-response","303","466565","0.0-13.0-2.30","yoTFPQqraq","62d3384b50d764bc57cc6c60","6617fad957f7c6a12ea16e26","6622baa1b44fba477ed57ca5","
    <div id=""grid-container"">
        <!-- Grid items will be dynamically added here -->
    </div>    ","null","","","","","","","","","","","",""
"","null","html-keyboard-response","304","467272","0.0-13.0-0.31","yoTFPQqraq","62d3384b50d764bc57cc6c60","6617fad957f7c6a12ea16e26","6622baa1b44fba477ed57ca5","fixation cross","null","","","","","","","","","","","",""
"","907","html-keyboard-response","305","468179","0.0-13.0-1.31","yoTFPQqraq","62d3384b50d764bc57cc6c60","6617fad957f7c6a12ea16e26","6622baa1b44fba477ed57ca5","image grid","p","","","","","Phylogenetic_Distractor_Nonthreat_target","2500","ongrid","p","3","Phylogenetic","true","experimental"
"","null","html-keyboard-response","306","468334","0.0-13.0-2.31","yoTFPQqraq","62d3384b50d764bc57cc6c60","6617fad957f7c6a12ea16e26","6622baa1b44fba477ed57ca5","
    <div id=""grid-container"">
        <!-- Grid items will be dynamically added here -->
    </div>    ","null","","","","","","","","","","","",""
"","null","html-keyboard-response","307","469037","0.0-13.0-0.32","yoTFPQqraq","62d3384b50d764bc57cc6c60","6617fad957f7c6a12ea16e26","6622baa1b44fba477ed57ca5","fixation cross","null","","","","","","","","","","","",""
"","992","html-keyboard-response","308","470029","0.0-13.0-1.32","yoTFPQqraq","62d3384b50d764bc57cc6c60","6617fad957f7c6a12ea16e26","6622baa1b44fba477ed57ca5","image grid","q","","","","","Phylogenetic_Distractor_Threat_target","2500","ongrid","q","8","Phylogenetic","true","experimental"
"","null","html-keyboard-response","309","470182","0.0-13.0-2.32","yoTFPQqraq","62d3384b50d764bc57cc6c60","6617fad957f7c6a12ea16e26","6622baa1b44fba477ed57ca5","
    <div id=""grid-container"">
        <!-- Grid items will be dynamically added here -->
    </div>    ","null","","","","","","","","","","","",""
"","null","html-keyboard-response","310","470890","0.0-13.0-0.33","yoTFPQqraq","62d3384b50d764bc57cc6c60","6617fad957f7c6a12ea16e26","6622baa1b44fba477ed57ca5","fixation cross","null","","","","","","","","","","","",""
"","1551","html-keyboard-response","311","472441","0.0-13.0-1.33","yoTFPQqraq","62d3384b50d764bc57cc6c60","6617fad957f7c6a12ea16e26","6622baa1b44fba477ed57ca5","image grid","p","","","","","Phylogenetic_Distractor_Nonthreat_target","2500","ongrid","p","5","Phylogenetic","true","experimental"
"","null","html-keyboard-response","312","472597","0.0-13.0-2.33","yoTFPQqraq","62d3384b50d764bc57cc6c60","6617fad957f7c6a12ea16e26","6622baa1b44fba477ed57ca5","
    <div id=""grid-container"">
        <!-- Grid items will be dynamically added here -->
    </div>    ","null","","","","","","","","","","","",""
"","null","html-keyboard-response","313","473305","0.0-13.0-0.34","yoTFPQqraq","62d3384b50d764bc57cc6c60","6617fad957f7c6a12ea16e26","6622baa1b44fba477ed57ca5","fixation cross","null","","","","","","","","","","","",""
"","1308","html-keyboard-response","314","474613","0.0-13.0-1.34","yoTFPQqraq","62d3384b50d764bc57cc6c60","6617fad957f7c6a12ea16e26","6622baa1b44fba477ed57ca5","image grid","p","","","","","Phylogenetic_Distractor_Nonthreat_target","2500","ongrid","p","3","Phylogenetic","true","experimental"
"","null","html-keyboard-response","315","474766","0.0-13.0-2.34","yoTFPQqraq","62d3384b50d764bc57cc6c60","6617fad957f7c6a12ea16e26","6622baa1b44fba477ed57ca5","
    <div id=""grid-container"">
        <!-- Grid items will be dynamically added here -->
    </div>    ","null","","","","","","","","","","","",""
"","null","html-keyboard-response","316","475472","0.0-13.0-0.35","yoTFPQqraq","62d3384b50d764bc57cc6c60","6617fad957f7c6a12ea16e26","6622baa1b44fba477ed57ca5","fixation cross","null","","","","","","","","","","","",""
"","1524","html-keyboard-response","317","476996","0.0-13.0-1.35","yoTFPQqraq","62d3384b50d764bc57cc6c60","6617fad957f7c6a12ea16e26","6622baa1b44fba477ed57ca5","image grid","q","","","","","Phylogenetic_Distractor_Threat_target","2500","ongrid","q","3","Phylogenetic","true","experimental"
"","null","html-keyboard-response","318","477148","0.0-13.0-2.35","yoTFPQqraq","62d3384b50d764bc57cc6c60","6617fad957f7c6a12ea16e26","6622baa1b44fba477ed57ca5","
    <div id=""grid-container"">
        <!-- Grid items will be dynamically added here -->
    </div>    ","null","","","","","","","","","","","",""
"","null","html-keyboard-response","319","477853","0.0-13.0-0.36","yoTFPQqraq","62d3384b50d764bc57cc6c60","6617fad957f7c6a12ea16e26","6622baa1b44fba477ed57ca5","fixation cross","null","","","","","","","","","","","",""
"","925","html-keyboard-response","320","478778","0.0-13.0-1.36","yoTFPQqraq","62d3384b50d764bc57cc6c60","6617fad957f7c6a12ea16e26","6622baa1b44fba477ed57ca5","image grid","q","","","","","Phylogenetic_Distractor_Threat_target","2500","ongrid","q","2","Phylogenetic","true","experimental"
"","null","html-keyboard-response","321","478933","0.0-13.0-2.36","yoTFPQqraq","62d3384b50d764bc57cc6c60","6617fad957f7c6a12ea16e26","6622baa1b44fba477ed57ca5","
    <div id=""grid-container"">
        <!-- Grid items will be dynamically added here -->
    </div>    ","null","","","","","","","","","","","",""
"","null","html-keyboard-response","322","479640","0.0-13.0-0.37","yoTFPQqraq","62d3384b50d764bc57cc6c60","6617fad957f7c6a12ea16e26","6622baa1b44fba477ed57ca5","fixation cross","null","","","","","","","","","","","",""
"","913","html-keyboard-response","323","480554","0.0-13.0-1.37","yoTFPQqraq","62d3384b50d764bc57cc6c60","6617fad957f7c6a12ea16e26","6622baa1b44fba477ed57ca5","image grid","q","","","","","Phylogenetic_Distractor_Threat_target","2500","ongrid","q","3","Phylogenetic","true","experimental"
"","null","html-keyboard-response","324","480708","0.0-13.0-2.37","yoTFPQqraq","62d3384b50d764bc57cc6c60","6617fad957f7c6a12ea16e26","6622baa1b44fba477ed57ca5","
    <div id=""grid-container"">
        <!-- Grid items will be dynamically added here -->
    </div>    ","null","","","","","","","","","","","",""
"","null","html-keyboard-response","325","481413","0.0-13.0-0.38","yoTFPQqraq","62d3384b50d764bc57cc6c60","6617fad957f7c6a12ea16e26","6622baa1b44fba477ed57ca5","fixation cross","null","","","","","","","","","","","",""
"","null","html-keyboard-response","326","483918","0.0-13.0-1.38","yoTFPQqraq","62d3384b50d764bc57cc6c60","6617fad957f7c6a12ea16e26","6622baa1b44fba477ed57ca5","
        <div id=""grid-container"">
        <!-- Grid items will be dynamically added here -->
    </div>    ","null","","","","","","","","","","","",""
"","3055","html-keyboard-response","327","484473","0.0-13.0-2.38","yoTFPQqraq","62d3384b50d764bc57cc6c60","6617fad957f7c6a12ea16e26","6622baa1b44fba477ed57ca5","mask grid"," ","","","","","Phylogenetic_Distractor_notarget","2500","onmask"," ","4","Phylogenetic","true","experimental"
"","null","html-keyboard-response","328","485180","0.0-13.0-0.39","yoTFPQqraq","62d3384b50d764bc57cc6c60","6617fad957f7c6a12ea16e26","6622baa1b44fba477ed57ca5","fixation cross","null","","","","","","","","","","","",""
"","1209","html-keyboard-response","329","486389","0.0-13.0-1.39","yoTFPQqraq","62d3384b50d764bc57cc6c60","6617fad957f7c6a12ea16e26","6622baa1b44fba477ed57ca5","image grid","q","","","","","Phylogenetic_Distractor_Threat_target","2500","ongrid","q","9","Phylogenetic","true","experimental"
"","null","html-keyboard-response","330","486541","0.0-13.0-2.39","yoTFPQqraq","62d3384b50d764bc57cc6c60","6617fad957f7c6a12ea16e26","6622baa1b44fba477ed57ca5","
    <div id=""grid-container"">
        <!-- Grid items will be dynamically added here -->
    </div>    ","null","","","","","","","","","","","",""
"","1556","html-keyboard-response","331","488297","0.0-14.0","yoTFPQqraq","62d3384b50d764bc57cc6c60","6617fad957f7c6a12ea16e26","6622baa1b44fba477ed57ca5","break screen"," ","","","","","","","","","","","",""
"","null","html-keyboard-response","332","490805","0.0-15.0-0.0","yoTFPQqraq","62d3384b50d764bc57cc6c60","6617fad957f7c6a12ea16e26","6622baa1b44fba477ed57ca5","fixation cross","null","","","","","","","","","","","",""
"","null","html-keyboard-response","333","491610","0.0-15.0-1.0","yoTFPQqraq","62d3384b50d764bc57cc6c60","6617fad957f7c6a12ea16e26","6622baa1b44fba477ed57ca5","
        <div id=""grid-container"">
        <!-- Grid items will be dynamically added here -->
    </div>    ","null","","","","","","","","","","","",""
"","2803","html-keyboard-response","334","493613","0.0-15.0-2.0","yoTFPQqraq","62d3384b50d764bc57cc6c60","6617fad957f7c6a12ea16e26","6622baa1b44fba477ed57ca5","mask grid","q","","","","","Ontogenetic_Distractor_Nonthreat_target","800","onmask","p","7","Ontogenetic","false","experimental"
"","null","html-keyboard-response","335","494322","0.0-15.0-0.1","yoTFPQqraq","62d3384b50d764bc57cc6c60","6617fad957f7c6a12ea16e26","6622baa1b44fba477ed57ca5","fixation cross","null","","","","","","","","","","","",""
"","null","html-keyboard-response","336","495126","0.0-15.0-1.1","yoTFPQqraq","62d3384b50d764bc57cc6c60","6617fad957f7c6a12ea16e26","6622baa1b44fba477ed57ca5","
        <div id=""grid-container"">
        <!-- Grid items will be dynamically added here -->
    </div>    ","null","","","","","","","","","","","",""
"","1230","html-keyboard-response","337","495557","0.0-15.0-2.1","yoTFPQqraq","62d3384b50d764bc57cc6c60","6617fad957f7c6a12ea16e26","6622baa1b44fba477ed57ca5","mask grid","p","","","","","Ontogenetic_Distractor_Nonthreat_target","800","onmask","p","9","Ontogenetic","true","experimental"
"","null","html-keyboard-response","338","496261","0.0-15.0-0.2","yoTFPQqraq","62d3384b50d764bc57cc6c60","6617fad957f7c6a12ea16e26","6622baa1b44fba477ed57ca5","fixation cross","null","","","","","","","","","","","",""
"","null","html-keyboard-response","339","497065","0.0-15.0-1.2","yoTFPQqraq","62d3384b50d764bc57cc6c60","6617fad957f7c6a12ea16e26","6622baa1b44fba477ed57ca5","
        <div id=""grid-container"">
        <!-- Grid items will be dynamically added here -->
    </div>    ","null","","","","","","","","","","","",""
"","877","html-keyboard-response","340","497142","0.0-15.0-2.2","yoTFPQqraq","62d3384b50d764bc57cc6c60","6617fad957f7c6a12ea16e26","6622baa1b44fba477ed57ca5","mask grid","q","","","","","Ontogenetic_Distractor_Threat_target","800","onmask","q","7","Ontogenetic","true","experimental"
"","null","html-keyboard-response","341","497849","0.0-15.0-0.3","yoTFPQqraq","62d3384b50d764bc57cc6c60","6617fad957f7c6a12ea16e26","6622baa1b44fba477ed57ca5","fixation cross","null","","","","","","","","","","","",""
"","null","html-keyboard-response","342","498653","0.0-15.0-1.3","yoTFPQqraq","62d3384b50d764bc57cc6c60","6617fad957f7c6a12ea16e26","6622baa1b44fba477ed57ca5","
        <div id=""grid-container"">
        <!-- Grid items will be dynamically added here -->
    </div>    ","null","","","","","","","","","","","",""
"","1039","html-keyboard-response","343","498892","0.0-15.0-2.3","yoTFPQqraq","62d3384b50d764bc57cc6c60","6617fad957f7c6a12ea16e26","6622baa1b44fba477ed57ca5","mask grid","p","","","","","Ontogenetic_Distractor_Nonthreat_target","800","onmask","p","6","Ontogenetic","true","experimental"
"","null","html-keyboard-response","344","499601","0.0-15.0-0.4","yoTFPQqraq","62d3384b50d764bc57cc6c60","6617fad957f7c6a12ea16e26","6622baa1b44fba477ed57ca5","fixation cross","null","","","","","","","","","","","",""
"","null","html-keyboard-response","345","500404","0.0-15.0-1.4","yoTFPQqraq","62d3384b50d764bc57cc6c60","6617fad957f7c6a12ea16e26","6622baa1b44fba477ed57ca5","
        <div id=""grid-container"">
        <!-- Grid items will be dynamically added here -->
    </div>    ","null","","","","","","","","","","","",""
"","1014","html-keyboard-response","346","500618","0.0-15.0-2.4","yoTFPQqraq","62d3384b50d764bc57cc6c60","6617fad957f7c6a12ea16e26","6622baa1b44fba477ed57ca5","mask grid","q","","","","","Ontogenetic_Distractor_Threat_target","800","onmask","q","7","Ontogenetic","true","experimental"
"","null","html-keyboard-response","347","501325","0.0-15.0-0.5","yoTFPQqraq","62d3384b50d764bc57cc6c60","6617fad957f7c6a12ea16e26","6622baa1b44fba477ed57ca5","fixation cross","null","","","","","","","","","","","",""
"","752","html-keyboard-response","348","502078","0.0-15.0-1.5","yoTFPQqraq","62d3384b50d764bc57cc6c60","6617fad957f7c6a12ea16e26","6622baa1b44fba477ed57ca5","image grid","p","","","","","Ontogenetic_Distractor_Nonthreat_target","800","ongrid","p","9","Ontogenetic","true","experimental"
"","null","html-keyboard-response","349","502230","0.0-15.0-2.5","yoTFPQqraq","62d3384b50d764bc57cc6c60","6617fad957f7c6a12ea16e26","6622baa1b44fba477ed57ca5","
    <div id=""grid-container"">
        <!-- Grid items will be dynamically added here -->
    </div>    ","null","","","","","","","","","","","",""
"","null","html-keyboard-response","350","502936","0.0-15.0-0.6","yoTFPQqraq","62d3384b50d764bc57cc6c60","6617fad957f7c6a12ea16e26","6622baa1b44fba477ed57ca5","fixation cross","null","","","","","","","","","","","",""
"","null","html-keyboard-response","351","503741","0.0-15.0-1.6","yoTFPQqraq","62d3384b50d764bc57cc6c60","6617fad957f7c6a12ea16e26","6622baa1b44fba477ed57ca5","
        <div id=""grid-container"">
        <!-- Grid items will be dynamically added here -->
    </div>    ","null","","","","","","","","","","","",""
"","839","html-keyboard-response","352","503780","0.0-15.0-2.6","yoTFPQqraq","62d3384b50d764bc57cc6c60","6617fad957f7c6a12ea16e26","6622baa1b44fba477ed57ca5","mask grid","p","","","","","Ontogenetic_Distractor_Nonthreat_target","800","onmask","p","2","Ontogenetic","true","experimental"
"","null","html-keyboard-response","353","504485","0.0-15.0-0.7","yoTFPQqraq","62d3384b50d764bc57cc6c60","6617fad957f7c6a12ea16e26","6622baa1b44fba477ed57ca5","fixation cross","null","","","","","","","","","","","",""
"","null","html-keyboard-response","354","505289","0.0-15.0-1.7","yoTFPQqraq","62d3384b50d764bc57cc6c60","6617fad957f7c6a12ea16e26","6622baa1b44fba477ed57ca5","
        <div id=""grid-container"">
        <!-- Grid items will be dynamically added here -->
    </div>    ","null","","","","","","","","","","","",""
"","1275","html-keyboard-response","355","505764","0.0-15.0-2.7","yoTFPQqraq","62d3384b50d764bc57cc6c60","6617fad957f7c6a12ea16e26","6622baa1b44fba477ed57ca5","mask grid"," ","","","","","Ontogenetic_Distractor_notarget","800","onmask"," ","1","Ontogenetic","true","experimental"
"","null","html-keyboard-response","356","506473","0.0-15.0-0.8","yoTFPQqraq","62d3384b50d764bc57cc6c60","6617fad957f7c6a12ea16e26","6622baa1b44fba477ed57ca5","fixation cross","null","","","","","","","","","","","",""
"","null","html-keyboard-response","357","507278","0.0-15.0-1.8","yoTFPQqraq","62d3384b50d764bc57cc6c60","6617fad957f7c6a12ea16e26","6622baa1b44fba477ed57ca5","
        <div id=""grid-container"">
        <!-- Grid items will be dynamically added here -->
    </div>    ","null","","","","","","","","","","","",""
"","848","html-keyboard-response","358","507327","0.0-15.0-2.8","yoTFPQqraq","62d3384b50d764bc57cc6c60","6617fad957f7c6a12ea16e26","6622baa1b44fba477ed57ca5","mask grid","q","","","","","Ontogenetic_Distractor_Threat_target","800","onmask","q","2","Ontogenetic","true","experimental"
"","null","html-keyboard-response","359","508034","0.0-15.0-0.9","yoTFPQqraq","62d3384b50d764bc57cc6c60","6617fad957f7c6a12ea16e26","6622baa1b44fba477ed57ca5","fixation cross","null","","","","","","","","","","","",""
"","665","html-keyboard-response","360","508699","0.0-15.0-1.9","yoTFPQqraq","62d3384b50d764bc57cc6c60","6617fad957f7c6a12ea16e26","6622baa1b44fba477ed57ca5","image grid","p","","","","","Ontogenetic_Distractor_Nonthreat_target","800","ongrid","p","5","Ontogenetic","true","experimental"
"","null","html-keyboard-response","361","508854","0.0-15.0-2.9","yoTFPQqraq","62d3384b50d764bc57cc6c60","6617fad957f7c6a12ea16e26","6622baa1b44fba477ed57ca5","
    <div id=""grid-container"">
        <!-- Grid items will be dynamically added here -->
    </div>    ","null","","","","","","","","","","","",""
"","null","html-keyboard-response","362","509562","0.0-15.0-0.10","yoTFPQqraq","62d3384b50d764bc57cc6c60","6617fad957f7c6a12ea16e26","6622baa1b44fba477ed57ca5","fixation cross","null","","","","","","","","","","","",""
"","null","html-keyboard-response","363","510365","0.0-15.0-1.10","yoTFPQqraq","62d3384b50d764bc57cc6c60","6617fad957f7c6a12ea16e26","6622baa1b44fba477ed57ca5","
        <div id=""grid-container"">
        <!-- Grid items will be dynamically added here -->
    </div>    ","null","","","","","","","","","","","",""
"","1289","html-keyboard-response","364","510855","0.0-15.0-2.10","yoTFPQqraq","62d3384b50d764bc57cc6c60","6617fad957f7c6a12ea16e26","6622baa1b44fba477ed57ca5","mask grid"," ","","","","","Ontogenetic_Distractor_notarget","800","onmask"," ","7","Ontogenetic","true","experimental"
"","null","html-keyboard-response","365","511558","0.0-15.0-0.11","yoTFPQqraq","62d3384b50d764bc57cc6c60","6617fad957f7c6a12ea16e26","6622baa1b44fba477ed57ca5","fixation cross","null","","","","","","","","","","","",""
"","null","html-keyboard-response","366","512362","0.0-15.0-1.11","yoTFPQqraq","62d3384b50d764bc57cc6c60","6617fad957f7c6a12ea16e26","6622baa1b44fba477ed57ca5","
        <div id=""grid-container"">
        <!-- Grid items will be dynamically added here -->
    </div>    ","null","","","","","","","","","","","",""
"","828","html-keyboard-response","367","512390","0.0-15.0-2.11","yoTFPQqraq","62d3384b50d764bc57cc6c60","6617fad957f7c6a12ea16e26","6622baa1b44fba477ed57ca5","mask grid","q","","","","","Ontogenetic_Distractor_Threat_target","800","onmask","q","3","Ontogenetic","true","experimental"
"","null","html-keyboard-response","368","513098","0.0-15.0-0.12","yoTFPQqraq","62d3384b50d764bc57cc6c60","6617fad957f7c6a12ea16e26","6622baa1b44fba477ed57ca5","fixation cross","null","","","","","","","","","","","",""
"","null","html-keyboard-response","369","513901","0.0-15.0-1.12","yoTFPQqraq","62d3384b50d764bc57cc6c60","6617fad957f7c6a12ea16e26","6622baa1b44fba477ed57ca5","
        <div id=""grid-container"">
        <!-- Grid items will be dynamically added here -->
    </div>    ","null","","","","","","","","","","","",""
