"success","rt","trial_type","trial_index","time_elapsed","internal_node_id","unique_identifier","subject_id","study_id","session_id","stimulus","response","timeout","failed_images","failed_audio","failed_video","task","respondedwhen","time_manipulation","correctresponse","targetimagelocation","blocktype","correct","roundtype"
"true","1995","fullscreen","0","3005","0.0-0.0","cTbgEnL1fJ","61632b52ab37a7fde834300f","6617fad957f7c6a12ea16e26","6622cb9b500b1ee2fa2ccf00","","","","","","","","","","","","","",""
"","16106","html-keyboard-response","1","19115","0.0-1.0","cTbgEnL1fJ","61632b52ab37a7fde834300f","6617fad957f7c6a12ea16e26","6622cb9b500b1ee2fa2ccf00","instruction screen 0"," ","","","","","","","","","","","",""
"true","","preload","2","34064","0.0-2.0","cTbgEnL1fJ","61632b52ab37a7fde834300f","6617fad957f7c6a12ea16e26","6622cb9b500b1ee2fa2ccf00","","","false","[]","[]","[]","","","","","","","",""
"","32057","html-keyboard-response","3","66121","0.0-3.0","cTbgEnL1fJ","61632b52ab37a7fde834300f","6617fad957f7c6a12ea16e26","6622cb9b500b1ee2fa2ccf00","instruction screen 1"," ","","","","","","","","","","","",""
"","18934","html-keyboard-response","4","85109","0.0-4.0","cTbgEnL1fJ","61632b52ab37a7fde834300f","6617fad957f7c6a12ea16e26","6622cb9b500b1ee2fa2ccf00","instruction screen 2","q","","","","","","","","","","","",""
"","10396","html-keyboard-response","5","95553","0.0-5.0","cTbgEnL1fJ","61632b52ab37a7fde834300f","6617fad957f7c6a12ea16e26","6622cb9b500b1ee2fa2ccf00","instruction screen 3","p","","","","","","","","","","","",""
"","13368","html-keyboard-response","6","108966","0.0-6.0","cTbgEnL1fJ","61632b52ab37a7fde834300f","6617fad957f7c6a12ea16e26","6622cb9b500b1ee2fa2ccf00","instruction screen 4"," ","","","","","","","","","","","",""
"","111030","html-keyboard-response","7","220048","0.0-7.0","cTbgEnL1fJ","61632b52ab37a7fde834300f","6617fad957f7c6a12ea16e26","6622cb9b500b1ee2fa2ccf00","instruction screen 5"," ","","","","","","","","","","","",""
"","null","html-keyboard-response","8","220606","0.0-8.0","cTbgEnL1fJ","61632b52ab37a7fde834300f","6617fad957f7c6a12ea16e26","6622cb9b500b1ee2fa2ccf00","fixation cross","null","","","","","","","","","","","",""
"","null","html-keyboard-response","9","221121","0.0-9.0-0.0","cTbgEnL1fJ","61632b52ab37a7fde834300f","6617fad957f7c6a12ea16e26","6622cb9b500b1ee2fa2ccf00","fixation cross","null","","","","","","","","","","","",""
"","null","html-keyboard-response","10","224134","0.0-9.0-1.0","cTbgEnL1fJ","61632b52ab37a7fde834300f","6617fad957f7c6a12ea16e26","6622cb9b500b1ee2fa2ccf00","
        <div id=""grid-container"">
        <!-- Grid items will be dynamically added here -->
    </div>    ","null","","","","","","","","","","","",""
"","5392","html-keyboard-response","11","226576","0.0-9.0-2.0","cTbgEnL1fJ","61632b52ab37a7fde834300f","6617fad957f7c6a12ea16e26","6622cb9b500b1ee2fa2ccf00","mask grid","p","","","","","Phylogenetic_Distractor_Threat_target","onmask","3000","q","9","Phylogenetic","false","practice"
"","null","html-keyboard-response","12","227789","0.0-9.0-3.0","cTbgEnL1fJ","61632b52ab37a7fde834300f","6617fad957f7c6a12ea16e26","6622cb9b500b1ee2fa2ccf00","feedback screen","null","","","","","","","","","","","",""
"","null","html-keyboard-response","13","228301","0.0-9.0-0.1","cTbgEnL1fJ","61632b52ab37a7fde834300f","6617fad957f7c6a12ea16e26","6622cb9b500b1ee2fa2ccf00","fixation cross","null","","","","","","","","","","","",""
"","2341","html-keyboard-response","14","230643","0.0-9.0-1.1","cTbgEnL1fJ","61632b52ab37a7fde834300f","6617fad957f7c6a12ea16e26","6622cb9b500b1ee2fa2ccf00","image grid","p","","","","","Phylogenetic_Distractor_Nonthreat_target","ongrid","2900","p","9","Phylogenetic","true","practice"
"","null","html-keyboard-response","15","230807","0.0-9.0-2.1","cTbgEnL1fJ","61632b52ab37a7fde834300f","6617fad957f7c6a12ea16e26","6622cb9b500b1ee2fa2ccf00","
    <div id=""grid-container"">
        <!-- Grid items will be dynamically added here -->
    </div>    ","null","","","","","","","","","","","",""
"","null","html-keyboard-response","16","232014","0.0-9.0-3.1","cTbgEnL1fJ","61632b52ab37a7fde834300f","6617fad957f7c6a12ea16e26","6622cb9b500b1ee2fa2ccf00","feedback screen","null","","","","","","","","","","","",""
"","null","html-keyboard-response","17","232519","0.0-9.0-0.2","cTbgEnL1fJ","61632b52ab37a7fde834300f","6617fad957f7c6a12ea16e26","6622cb9b500b1ee2fa2ccf00","fixation cross","null","","","","","","","","","","","",""
"","1593","html-keyboard-response","18","234113","0.0-9.0-1.2","cTbgEnL1fJ","61632b52ab37a7fde834300f","6617fad957f7c6a12ea16e26","6622cb9b500b1ee2fa2ccf00","image grid","q","","","","","Phylogenetic_Distractor_Threat_target","ongrid","2800","q","5","Phylogenetic","true","practice"
"","null","html-keyboard-response","19","234277","0.0-9.0-2.2","cTbgEnL1fJ","61632b52ab37a7fde834300f","6617fad957f7c6a12ea16e26","6622cb9b500b1ee2fa2ccf00","
    <div id=""grid-container"">
        <!-- Grid items will be dynamically added here -->
    </div>    ","null","","","","","","","","","","","",""
"","null","html-keyboard-response","20","235492","0.0-9.0-3.2","cTbgEnL1fJ","61632b52ab37a7fde834300f","6617fad957f7c6a12ea16e26","6622cb9b500b1ee2fa2ccf00","feedback screen","null","","","","","","","","","","","",""
"","null","html-keyboard-response","21","236003","0.0-9.0-0.3","cTbgEnL1fJ","61632b52ab37a7fde834300f","6617fad957f7c6a12ea16e26","6622cb9b500b1ee2fa2ccf00","fixation cross","null","","","","","","","","","","","",""
"","2198","html-keyboard-response","22","238202","0.0-9.0-1.3","cTbgEnL1fJ","61632b52ab37a7fde834300f","6617fad957f7c6a12ea16e26","6622cb9b500b1ee2fa2ccf00","image grid","p","","","","","Ontogenetic_Distractor_Nonthreat_target","ongrid","2700","p","5","Phylogenetic","true","practice"
"","null","html-keyboard-response","23","238368","0.0-9.0-2.3","cTbgEnL1fJ","61632b52ab37a7fde834300f","6617fad957f7c6a12ea16e26","6622cb9b500b1ee2fa2ccf00","
    <div id=""grid-container"">
        <!-- Grid items will be dynamically added here -->
    </div>    ","null","","","","","","","","","","","",""
"","null","html-keyboard-response","24","239583","0.0-9.0-3.3","cTbgEnL1fJ","61632b52ab37a7fde834300f","6617fad957f7c6a12ea16e26","6622cb9b500b1ee2fa2ccf00","feedback screen","null","","","","","","","","","","","",""
"","null","html-keyboard-response","25","240091","0.0-9.0-0.4","cTbgEnL1fJ","61632b52ab37a7fde834300f","6617fad957f7c6a12ea16e26","6622cb9b500b1ee2fa2ccf00","fixation cross","null","","","","","","","","","","","",""
"","1299","html-keyboard-response","26","241390","0.0-9.0-1.4","cTbgEnL1fJ","61632b52ab37a7fde834300f","6617fad957f7c6a12ea16e26","6622cb9b500b1ee2fa2ccf00","image grid","p","","","","","Ontogenetic_Distractor_Nonthreat_target","ongrid","2600","p","7","Phylogenetic","true","practice"
"","null","html-keyboard-response","27","241543","0.0-9.0-2.4","cTbgEnL1fJ","61632b52ab37a7fde834300f","6617fad957f7c6a12ea16e26","6622cb9b500b1ee2fa2ccf00","
    <div id=""grid-container"">
        <!-- Grid items will be dynamically added here -->
    </div>    ","null","","","","","","","","","","","",""
"","null","html-keyboard-response","28","242758","0.0-9.0-3.4","cTbgEnL1fJ","61632b52ab37a7fde834300f","6617fad957f7c6a12ea16e26","6622cb9b500b1ee2fa2ccf00","feedback screen","null","","","","","","","","","","","",""
"","null","html-keyboard-response","29","243275","0.0-9.0-0.5","cTbgEnL1fJ","61632b52ab37a7fde834300f","6617fad957f7c6a12ea16e26","6622cb9b500b1ee2fa2ccf00","fixation cross","null","","","","","","","","","","","",""
"","1473","html-keyboard-response","30","244749","0.0-9.0-1.5","cTbgEnL1fJ","61632b52ab37a7fde834300f","6617fad957f7c6a12ea16e26","6622cb9b500b1ee2fa2ccf00","image grid","q","","","","","Ontogenetic_Distractor_Threat_target","ongrid","2500","q","9","Phylogenetic","true","practice"
"","null","html-keyboard-response","31","244914","0.0-9.0-2.5","cTbgEnL1fJ","61632b52ab37a7fde834300f","6617fad957f7c6a12ea16e26","6622cb9b500b1ee2fa2ccf00","
    <div id=""grid-container"">
        <!-- Grid items will be dynamically added here -->
    </div>    ","null","","","","","","","","","","","",""
"","null","html-keyboard-response","32","246124","0.0-9.0-3.5","cTbgEnL1fJ","61632b52ab37a7fde834300f","6617fad957f7c6a12ea16e26","6622cb9b500b1ee2fa2ccf00","feedback screen","null","","","","","","","","","","","",""
"","null","html-keyboard-response","33","246637","0.0-9.0-0.6","cTbgEnL1fJ","61632b52ab37a7fde834300f","6617fad957f7c6a12ea16e26","6622cb9b500b1ee2fa2ccf00","fixation cross","null","","","","","","","","","","","",""
"","1205","html-keyboard-response","34","247843","0.0-9.0-1.6","cTbgEnL1fJ","61632b52ab37a7fde834300f","6617fad957f7c6a12ea16e26","6622cb9b500b1ee2fa2ccf00","image grid","p","","","","","Ontogenetic_Distractor_Nonthreat_target","ongrid","2400","p","6","Phylogenetic","true","practice"
"","null","html-keyboard-response","35","248008","0.0-9.0-2.6","cTbgEnL1fJ","61632b52ab37a7fde834300f","6617fad957f7c6a12ea16e26","6622cb9b500b1ee2fa2ccf00","
    <div id=""grid-container"">
        <!-- Grid items will be dynamically added here -->
    </div>    ","null","","","","","","","","","","","",""
"","null","html-keyboard-response","36","249228","0.0-9.0-3.6","cTbgEnL1fJ","61632b52ab37a7fde834300f","6617fad957f7c6a12ea16e26","6622cb9b500b1ee2fa2ccf00","feedback screen","null","","","","","","","","","","","",""
"","null","html-keyboard-response","37","249744","0.0-9.0-0.7","cTbgEnL1fJ","61632b52ab37a7fde834300f","6617fad957f7c6a12ea16e26","6622cb9b500b1ee2fa2ccf00","fixation cross","null","","","","","","","","","","","",""
"","null","html-keyboard-response","38","252059","0.0-9.0-1.7","cTbgEnL1fJ","61632b52ab37a7fde834300f","6617fad957f7c6a12ea16e26","6622cb9b500b1ee2fa2ccf00","
        <div id=""grid-container"">
        <!-- Grid items will be dynamically added here -->
    </div>    ","null","","","","","","","","","","","",""
"","3829","html-keyboard-response","39","253589","0.0-9.0-2.7","cTbgEnL1fJ","61632b52ab37a7fde834300f","6617fad957f7c6a12ea16e26","6622cb9b500b1ee2fa2ccf00","mask grid"," ","","","","","Ontogenetic_Distractor_notarget","onmask","2300"," ","9","Phylogenetic","true","practice"
"","null","html-keyboard-response","40","254807","0.0-9.0-3.7","cTbgEnL1fJ","61632b52ab37a7fde834300f","6617fad957f7c6a12ea16e26","6622cb9b500b1ee2fa2ccf00","feedback screen","null","","","","","","","","","","","",""
"","null","html-keyboard-response","41","255324","0.0-9.0-0.8","cTbgEnL1fJ","61632b52ab37a7fde834300f","6617fad957f7c6a12ea16e26","6622cb9b500b1ee2fa2ccf00","fixation cross","null","","","","","","","","","","","",""
"","1403","html-keyboard-response","42","256727","0.0-9.0-1.8","cTbgEnL1fJ","61632b52ab37a7fde834300f","6617fad957f7c6a12ea16e26","6622cb9b500b1ee2fa2ccf00","image grid","q","","","","","Ontogenetic_Distractor_Threat_target","ongrid","2200","q","2","Phylogenetic","true","practice"
"","null","html-keyboard-response","43","256885","0.0-9.0-2.8","cTbgEnL1fJ","61632b52ab37a7fde834300f","6617fad957f7c6a12ea16e26","6622cb9b500b1ee2fa2ccf00","
    <div id=""grid-container"">
        <!-- Grid items will be dynamically added here -->
    </div>    ","null","","","","","","","","","","","",""
"","null","html-keyboard-response","44","258104","0.0-9.0-3.8","cTbgEnL1fJ","61632b52ab37a7fde834300f","6617fad957f7c6a12ea16e26","6622cb9b500b1ee2fa2ccf00","feedback screen","null","","","","","","","","","","","",""
"","null","html-keyboard-response","45","258614","0.0-9.0-0.9","cTbgEnL1fJ","61632b52ab37a7fde834300f","6617fad957f7c6a12ea16e26","6622cb9b500b1ee2fa2ccf00","fixation cross","null","","","","","","","","","","","",""
"","1202","html-keyboard-response","46","259817","0.0-9.0-1.9","cTbgEnL1fJ","61632b52ab37a7fde834300f","6617fad957f7c6a12ea16e26","6622cb9b500b1ee2fa2ccf00","image grid","q","","","","","Ontogenetic_Distractor_Threat_target","ongrid","2100","q","8","Phylogenetic","true","practice"
"","null","html-keyboard-response","47","259978","0.0-9.0-2.9","cTbgEnL1fJ","61632b52ab37a7fde834300f","6617fad957f7c6a12ea16e26","6622cb9b500b1ee2fa2ccf00","
    <div id=""grid-container"">
        <!-- Grid items will be dynamically added here -->
    </div>    ","null","","","","","","","","","","","",""
"","null","html-keyboard-response","48","261183","0.0-9.0-3.9","cTbgEnL1fJ","61632b52ab37a7fde834300f","6617fad957f7c6a12ea16e26","6622cb9b500b1ee2fa2ccf00","feedback screen","null","","","","","","","","","","","",""
"","null","html-keyboard-response","49","261697","0.0-9.0-0.10","cTbgEnL1fJ","61632b52ab37a7fde834300f","6617fad957f7c6a12ea16e26","6622cb9b500b1ee2fa2ccf00","fixation cross","null","","","","","","","","","","","",""
"","1541","html-keyboard-response","50","263239","0.0-9.0-1.10","cTbgEnL1fJ","61632b52ab37a7fde834300f","6617fad957f7c6a12ea16e26","6622cb9b500b1ee2fa2ccf00","image grid","q","","","","","Ontogenetic_Distractor_Threat_target","ongrid","2000","q","1","Phylogenetic","true","practice"
"","null","html-keyboard-response","51","263403","0.0-9.0-2.10","cTbgEnL1fJ","61632b52ab37a7fde834300f","6617fad957f7c6a12ea16e26","6622cb9b500b1ee2fa2ccf00","
    <div id=""grid-container"">
        <!-- Grid items will be dynamically added here -->
    </div>    ","null","","","","","","","","","","","",""
"","null","html-keyboard-response","52","264622","0.0-9.0-3.10","cTbgEnL1fJ","61632b52ab37a7fde834300f","6617fad957f7c6a12ea16e26","6622cb9b500b1ee2fa2ccf00","feedback screen","null","","","","","","","","","","","",""
"","null","html-keyboard-response","53","265139","0.0-9.0-0.11","cTbgEnL1fJ","61632b52ab37a7fde834300f","6617fad957f7c6a12ea16e26","6622cb9b500b1ee2fa2ccf00","fixation cross","null","","","","","","","","","","","",""
"","null","html-keyboard-response","54","267044","0.0-9.0-1.11","cTbgEnL1fJ","61632b52ab37a7fde834300f","6617fad957f7c6a12ea16e26","6622cb9b500b1ee2fa2ccf00","
        <div id=""grid-container"">
        <!-- Grid items will be dynamically added here -->
    </div>    ","null","","","","","","","","","","","",""
"","2439","html-keyboard-response","55","267584","0.0-9.0-2.11","cTbgEnL1fJ","61632b52ab37a7fde834300f","6617fad957f7c6a12ea16e26","6622cb9b500b1ee2fa2ccf00","mask grid","p","","","","","Phylogenetic_Distractor_Nonthreat_target","onmask","1900","p","2","Phylogenetic","true","practice"
"","null","html-keyboard-response","56","268791","0.0-9.0-3.11","cTbgEnL1fJ","61632b52ab37a7fde834300f","6617fad957f7c6a12ea16e26","6622cb9b500b1ee2fa2ccf00","feedback screen","null","","","","","","","","","","","",""
"","null","html-keyboard-response","57","269307","0.0-9.0-0.12","cTbgEnL1fJ","61632b52ab37a7fde834300f","6617fad957f7c6a12ea16e26","6622cb9b500b1ee2fa2ccf00","fixation cross","null","","","","","","","","","","","",""
"","null","html-keyboard-response","58","271117","0.0-9.0-1.12","cTbgEnL1fJ","61632b52ab37a7fde834300f","6617fad957f7c6a12ea16e26","6622cb9b500b1ee2fa2ccf00","
        <div id=""grid-container"">
        <!-- Grid items will be dynamically added here -->
    </div>    ","null","","","","","","","","","","","",""
"","3232","html-keyboard-response","59","272550","0.0-9.0-2.12","cTbgEnL1fJ","61632b52ab37a7fde834300f","6617fad957f7c6a12ea16e26","6622cb9b500b1ee2fa2ccf00","mask grid","p","","","","","Phylogenetic_Distractor_Nonthreat_target","onmask","1800","p","8","Phylogenetic","true","practice"
"","null","html-keyboard-response","60","273759","0.0-9.0-3.12","cTbgEnL1fJ","61632b52ab37a7fde834300f","6617fad957f7c6a12ea16e26","6622cb9b500b1ee2fa2ccf00","feedback screen","null","","","","","","","","","","","",""
"","null","html-keyboard-response","61","274275","0.0-9.0-0.13","cTbgEnL1fJ","61632b52ab37a7fde834300f","6617fad957f7c6a12ea16e26","6622cb9b500b1ee2fa2ccf00","fixation cross","null","","","","","","","","","","","",""
"","null","html-keyboard-response","62","275978","0.0-9.0-1.13","cTbgEnL1fJ","61632b52ab37a7fde834300f","6617fad957f7c6a12ea16e26","6622cb9b500b1ee2fa2ccf00","
        <div id=""grid-container"">
        <!-- Grid items will be dynamically added here -->
    </div>    ","null","","","","","","","","","","","",""
"","1810","html-keyboard-response","63","276089","0.0-9.0-2.13","cTbgEnL1fJ","61632b52ab37a7fde834300f","6617fad957f7c6a12ea16e26","6622cb9b500b1ee2fa2ccf00","mask grid","p","","","","","Phylogenetic_Distractor_Nonthreat_target","onmask","1700","p","4","Phylogenetic","true","practice"
"","null","html-keyboard-response","64","277296","0.0-9.0-3.13","cTbgEnL1fJ","61632b52ab37a7fde834300f","6617fad957f7c6a12ea16e26","6622cb9b500b1ee2fa2ccf00","feedback screen","null","","","","","","","","","","","",""
"","null","html-keyboard-response","65","277809","0.0-9.0-0.14","cTbgEnL1fJ","61632b52ab37a7fde834300f","6617fad957f7c6a12ea16e26","6622cb9b500b1ee2fa2ccf00","fixation cross","null","","","","","","","","","","","",""
"","null","html-keyboard-response","66","279414","0.0-9.0-1.14","cTbgEnL1fJ","61632b52ab37a7fde834300f","6617fad957f7c6a12ea16e26","6622cb9b500b1ee2fa2ccf00","
        <div id=""grid-container"">
        <!-- Grid items will be dynamically added here -->
    </div>    ","null","","","","","","","","","","","",""
"","3000","html-keyboard-response","67","280815","0.0-9.0-2.14","cTbgEnL1fJ","61632b52ab37a7fde834300f","6617fad957f7c6a12ea16e26","6622cb9b500b1ee2fa2ccf00","mask grid","p","","","","","Phylogenetic_Distractor_notarget","onmask","1600"," ","7","Phylogenetic","false","practice"
"","null","html-keyboard-response","68","282039","0.0-9.0-3.14","cTbgEnL1fJ","61632b52ab37a7fde834300f","6617fad957f7c6a12ea16e26","6622cb9b500b1ee2fa2ccf00","feedback screen","null","","","","","","","","","","","",""
"","null","html-keyboard-response","69","282556","0.0-9.0-0.15","cTbgEnL1fJ","61632b52ab37a7fde834300f","6617fad957f7c6a12ea16e26","6622cb9b500b1ee2fa2ccf00","fixation cross","null","","","","","","","","","","","",""
"","107","html-keyboard-response","70","282664","0.0-9.0-1.15","cTbgEnL1fJ","61632b52ab37a7fde834300f","6617fad957f7c6a12ea16e26","6622cb9b500b1ee2fa2ccf00","image grid"," ","","","","","Phylogenetic_Distractor_notarget","ongrid","1500"," ","6","Phylogenetic","true","practice"
"","null","html-keyboard-response","71","282826","0.0-9.0-2.15","cTbgEnL1fJ","61632b52ab37a7fde834300f","6617fad957f7c6a12ea16e26","6622cb9b500b1ee2fa2ccf00","
    <div id=""grid-container"">
        <!-- Grid items will be dynamically added here -->
    </div>    ","null","","","","","","","","","","","",""
"","null","html-keyboard-response","72","284039","0.0-9.0-3.15","cTbgEnL1fJ","61632b52ab37a7fde834300f","6617fad957f7c6a12ea16e26","6622cb9b500b1ee2fa2ccf00","feedback screen","null","","","","","","","","","","","",""
"","null","html-keyboard-response","73","284549","0.0-9.0-0.16","cTbgEnL1fJ","61632b52ab37a7fde834300f","6617fad957f7c6a12ea16e26","6622cb9b500b1ee2fa2ccf00","fixation cross","null","","","","","","","","","","","",""
"","null","html-keyboard-response","74","285961","0.0-9.0-1.16","cTbgEnL1fJ","61632b52ab37a7fde834300f","6617fad957f7c6a12ea16e26","6622cb9b500b1ee2fa2ccf00","
        <div id=""grid-container"">
        <!-- Grid items will be dynamically added here -->
    </div>    ","null","","","","","","","","","","","",""
"","2184","html-keyboard-response","75","286746","0.0-9.0-2.16","cTbgEnL1fJ","61632b52ab37a7fde834300f","6617fad957f7c6a12ea16e26","6622cb9b500b1ee2fa2ccf00","mask grid"," ","","","","","Ontogenetic_Distractor_notarget","onmask","1400"," ","4","Phylogenetic","true","practice"
"","null","html-keyboard-response","76","287969","0.0-9.0-3.16","cTbgEnL1fJ","61632b52ab37a7fde834300f","6617fad957f7c6a12ea16e26","6622cb9b500b1ee2fa2ccf00","feedback screen","null","","","","","","","","","","","",""
"","null","html-keyboard-response","77","288480","0.0-9.0-0.17","cTbgEnL1fJ","61632b52ab37a7fde834300f","6617fad957f7c6a12ea16e26","6622cb9b500b1ee2fa2ccf00","fixation cross","null","","","","","","","","","","","",""
"","1252","html-keyboard-response","78","289732","0.0-9.0-1.17","cTbgEnL1fJ","61632b52ab37a7fde834300f","6617fad957f7c6a12ea16e26","6622cb9b500b1ee2fa2ccf00","image grid","p","","","","","Ontogenetic_Distractor_Nonthreat_target","ongrid","1300","p","7","Phylogenetic","true","practice"
"","null","html-keyboard-response","79","289884","0.0-9.0-2.17","cTbgEnL1fJ","61632b52ab37a7fde834300f","6617fad957f7c6a12ea16e26","6622cb9b500b1ee2fa2ccf00","
    <div id=""grid-container"">
        <!-- Grid items will be dynamically added here -->
    </div>    ","null","","","","","","","","","","","",""
"","null","html-keyboard-response","80","291094","0.0-9.0-3.17","cTbgEnL1fJ","61632b52ab37a7fde834300f","6617fad957f7c6a12ea16e26","6622cb9b500b1ee2fa2ccf00","feedback screen","null","","","","","","","","","","","",""
"","null","html-keyboard-response","81","291603","0.0-9.0-0.18","cTbgEnL1fJ","61632b52ab37a7fde834300f","6617fad957f7c6a12ea16e26","6622cb9b500b1ee2fa2ccf00","fixation cross","null","","","","","","","","","","","",""
"","null","html-keyboard-response","82","292806","0.0-9.0-1.18","cTbgEnL1fJ","61632b52ab37a7fde834300f","6617fad957f7c6a12ea16e26","6622cb9b500b1ee2fa2ccf00","
        <div id=""grid-container"">
        <!-- Grid items will be dynamically added here -->
    </div>    ","null","","","","","","","","","","","",""
"","2576","html-keyboard-response","83","294183","0.0-9.0-2.18","cTbgEnL1fJ","61632b52ab37a7fde834300f","6617fad957f7c6a12ea16e26","6622cb9b500b1ee2fa2ccf00","mask grid"," ","","","","","Phylogenetic_Distractor_Threat_target","onmask","1200","q","7","Phylogenetic","false","practice"
"","null","html-keyboard-response","84","295404","0.0-9.0-3.18","cTbgEnL1fJ","61632b52ab37a7fde834300f","6617fad957f7c6a12ea16e26","6622cb9b500b1ee2fa2ccf00","feedback screen","null","","","","","","","","","","","",""
"","423","html-keyboard-response","85","295918","0.0-9.0-0.19","cTbgEnL1fJ","61632b52ab37a7fde834300f","6617fad957f7c6a12ea16e26","6622cb9b500b1ee2fa2ccf00","fixation cross","p","","","","","","","","","","","",""
"","null","html-keyboard-response","86","297027","0.0-9.0-1.19","cTbgEnL1fJ","61632b52ab37a7fde834300f","6617fad957f7c6a12ea16e26","6622cb9b500b1ee2fa2ccf00","
        <div id=""grid-container"">
        <!-- Grid items will be dynamically added here -->
    </div>    ","null","","","","","","","","","","","",""
"","2707","html-keyboard-response","87","298635","0.0-9.0-2.19","cTbgEnL1fJ","61632b52ab37a7fde834300f","6617fad957f7c6a12ea16e26","6622cb9b500b1ee2fa2ccf00","mask grid","p","","","","","Phylogenetic_Distractor_Threat_target","onmask","1100","q","9","Phylogenetic","false","practice"
"","null","html-keyboard-response","88","299853","0.0-9.0-3.19","cTbgEnL1fJ","61632b52ab37a7fde834300f","6617fad957f7c6a12ea16e26","6622cb9b500b1ee2fa2ccf00","feedback screen","null","","","","","","","","","","","",""
"","16891","html-keyboard-response","89","316797","0.0-10.0","cTbgEnL1fJ","61632b52ab37a7fde834300f","6617fad957f7c6a12ea16e26","6622cb9b500b1ee2fa2ccf00","pre-experimental_briefing"," ","","","","","","","","","","","",""
"","null","html-keyboard-response","90","319370","0.0-11.0-0.0","cTbgEnL1fJ","61632b52ab37a7fde834300f","6617fad957f7c6a12ea16e26","6622cb9b500b1ee2fa2ccf00","fixation cross","null","","","","","","","","","","","",""
"","null","html-keyboard-response","91","321883","0.0-11.0-1.0","cTbgEnL1fJ","61632b52ab37a7fde834300f","6617fad957f7c6a12ea16e26","6622cb9b500b1ee2fa2ccf00","
        <div id=""grid-container"">
        <!-- Grid items will be dynamically added here -->
    </div>    ","null","","","","","","","","","","","",""
"","3587","html-keyboard-response","92","322970","0.0-11.0-2.0","cTbgEnL1fJ","61632b52ab37a7fde834300f","6617fad957f7c6a12ea16e26","6622cb9b500b1ee2fa2ccf00","mask grid","q","","","","","Phylogenetic_Distractor_Threat_target","onmask","2500","q","8","Phylogenetic","true","experimental"
"","null","html-keyboard-response","93","323692","0.0-11.0-0.1","cTbgEnL1fJ","61632b52ab37a7fde834300f","6617fad957f7c6a12ea16e26","6622cb9b500b1ee2fa2ccf00","fixation cross","null","","","","","","","","","","","",""
"","2349","html-keyboard-response","94","326041","0.0-11.0-1.1","cTbgEnL1fJ","61632b52ab37a7fde834300f","6617fad957f7c6a12ea16e26","6622cb9b500b1ee2fa2ccf00","image grid","q","","","","","Phylogenetic_Distractor_Threat_target","ongrid","2500","q","9","Phylogenetic","true","experimental"
"","null","html-keyboard-response","95","326193","0.0-11.0-2.1","cTbgEnL1fJ","61632b52ab37a7fde834300f","6617fad957f7c6a12ea16e26","6622cb9b500b1ee2fa2ccf00","
    <div id=""grid-container"">
        <!-- Grid items will be dynamically added here -->
    </div>    ","null","","","","","","","","","","","",""
"","null","html-keyboard-response","96","326901","0.0-11.0-0.2","cTbgEnL1fJ","61632b52ab37a7fde834300f","6617fad957f7c6a12ea16e26","6622cb9b500b1ee2fa2ccf00","fixation cross","null","","","","","","","","","","","",""
"","null","html-keyboard-response","97","329416","0.0-11.0-1.2","cTbgEnL1fJ","61632b52ab37a7fde834300f","6617fad957f7c6a12ea16e26","6622cb9b500b1ee2fa2ccf00","
        <div id=""grid-container"">
        <!-- Grid items will be dynamically added here -->
    </div>    ","null","","","","","","","","","","","",""
"","2977","html-keyboard-response","98","329894","0.0-11.0-2.2","cTbgEnL1fJ","61632b52ab37a7fde834300f","6617fad957f7c6a12ea16e26","6622cb9b500b1ee2fa2ccf00","mask grid","q","","","","","Phylogenetic_Distractor_Threat_target","onmask","2500","q","5","Phylogenetic","true","experimental"
"","null","html-keyboard-response","99","330619","0.0-11.0-0.3","cTbgEnL1fJ","61632b52ab37a7fde834300f","6617fad957f7c6a12ea16e26","6622cb9b500b1ee2fa2ccf00","fixation cross","null","","","","","","","","","","","",""
"","null","html-keyboard-response","100","333122","0.0-11.0-1.3","cTbgEnL1fJ","61632b52ab37a7fde834300f","6617fad957f7c6a12ea16e26","6622cb9b500b1ee2fa2ccf00","
        <div id=""grid-container"">
        <!-- Grid items will be dynamically added here -->
    </div>    ","null","","","","","","","","","","","",""
"","2513","html-keyboard-response","101","333136","0.0-11.0-2.3","cTbgEnL1fJ","61632b52ab37a7fde834300f","6617fad957f7c6a12ea16e26","6622cb9b500b1ee2fa2ccf00","mask grid"," ","","","","","Phylogenetic_Distractor_Nonthreat_target","onmask","2500","p","1","Phylogenetic","false","experimental"
"","null","html-keyboard-response","102","333857","0.0-11.0-0.4","cTbgEnL1fJ","61632b52ab37a7fde834300f","6617fad957f7c6a12ea16e26","6622cb9b500b1ee2fa2ccf00","fixation cross","null","","","","","","","","","","","",""
"","null","html-keyboard-response","103","336370","0.0-11.0-1.4","cTbgEnL1fJ","61632b52ab37a7fde834300f","6617fad957f7c6a12ea16e26","6622cb9b500b1ee2fa2ccf00","
        <div id=""grid-container"">
        <!-- Grid items will be dynamically added here -->
    </div>    ","null","","","","","","","","","","","",""
"","3894","html-keyboard-response","104","337765","0.0-11.0-2.4","cTbgEnL1fJ","61632b52ab37a7fde834300f","6617fad957f7c6a12ea16e26","6622cb9b500b1ee2fa2ccf00","mask grid"," ","","","","","Phylogenetic_Distractor_notarget","onmask","2500"," ","9","Phylogenetic","true","experimental"
"","null","html-keyboard-response","105","338494","0.0-11.0-0.5","cTbgEnL1fJ","61632b52ab37a7fde834300f","6617fad957f7c6a12ea16e26","6622cb9b500b1ee2fa2ccf00","fixation cross","null","","","","","","","","","","","",""
"","1203","html-keyboard-response","106","339697","0.0-11.0-1.5","cTbgEnL1fJ","61632b52ab37a7fde834300f","6617fad957f7c6a12ea16e26","6622cb9b500b1ee2fa2ccf00","image grid","q","","","","","Phylogenetic_Distractor_Threat_target","ongrid","2500","q","5","Phylogenetic","true","experimental"
"","null","html-keyboard-response","107","339859","0.0-11.0-2.5","cTbgEnL1fJ","61632b52ab37a7fde834300f","6617fad957f7c6a12ea16e26","6622cb9b500b1ee2fa2ccf00","
    <div id=""grid-container"">
        <!-- Grid items will be dynamically added here -->
    </div>    ","null","","","","","","","","","","","",""
"","null","html-keyboard-response","108","340588","0.0-11.0-0.6","cTbgEnL1fJ","61632b52ab37a7fde834300f","6617fad957f7c6a12ea16e26","6622cb9b500b1ee2fa2ccf00","fixation cross","null","","","","","","","","","","","",""
"","2156","html-keyboard-response","109","342745","0.0-11.0-1.6","cTbgEnL1fJ","61632b52ab37a7fde834300f","6617fad957f7c6a12ea16e26","6622cb9b500b1ee2fa2ccf00","image grid","q","","","","","Phylogenetic_Distractor_Threat_target","ongrid","2500","q","9","Phylogenetic","true","experimental"
"","null","html-keyboard-response","110","342907","0.0-11.0-2.6","cTbgEnL1fJ","61632b52ab37a7fde834300f","6617fad957f7c6a12ea16e26","6622cb9b500b1ee2fa2ccf00","
    <div id=""grid-container"">
        <!-- Grid items will be dynamically added here -->
    </div>    ","null","","","","","","","","","","","",""
"","null","html-keyboard-response","111","343614","0.0-11.0-0.7","cTbgEnL1fJ","61632b52ab37a7fde834300f","6617fad957f7c6a12ea16e26","6622cb9b500b1ee2fa2ccf00","fixation cross","null","","","","","","","","","","","",""
"","2430","html-keyboard-response","112","346045","0.0-11.0-1.7","cTbgEnL1fJ","61632b52ab37a7fde834300f","6617fad957f7c6a12ea16e26","6622cb9b500b1ee2fa2ccf00","image grid","p","","","","","Phylogenetic_Distractor_Nonthreat_target","ongrid","2500","p","4","Phylogenetic","true","experimental"
"","null","html-keyboard-response","113","346203","0.0-11.0-2.7","cTbgEnL1fJ","61632b52ab37a7fde834300f","6617fad957f7c6a12ea16e26","6622cb9b500b1ee2fa2ccf00","
    <div id=""grid-container"">
        <!-- Grid items will be dynamically added here -->
    </div>    ","null","","","","","","","","","","","",""
"","null","html-keyboard-response","114","346917","0.0-11.0-0.8","cTbgEnL1fJ","61632b52ab37a7fde834300f","6617fad957f7c6a12ea16e26","6622cb9b500b1ee2fa2ccf00","fixation cross","null","","","","","","","","","","","",""
"","null","html-keyboard-response","115","349422","0.0-11.0-1.8","cTbgEnL1fJ","61632b52ab37a7fde834300f","6617fad957f7c6a12ea16e26","6622cb9b500b1ee2fa2ccf00","
        <div id=""grid-container"">
        <!-- Grid items will be dynamically added here -->
    </div>    ","null","","","","","","","","","","","",""
"","2722","html-keyboard-response","116","349644","0.0-11.0-2.8","cTbgEnL1fJ","61632b52ab37a7fde834300f","6617fad957f7c6a12ea16e26","6622cb9b500b1ee2fa2ccf00","mask grid"," ","","","","","Phylogenetic_Distractor_notarget","onmask","2500"," ","2","Phylogenetic","true","experimental"
"","null","html-keyboard-response","117","350374","0.0-11.0-0.9","cTbgEnL1fJ","61632b52ab37a7fde834300f","6617fad957f7c6a12ea16e26","6622cb9b500b1ee2fa2ccf00","fixation cross","null","","","","","","","","","","","",""
"","1403","html-keyboard-response","118","351777","0.0-11.0-1.9","cTbgEnL1fJ","61632b52ab37a7fde834300f","6617fad957f7c6a12ea16e26","6622cb9b500b1ee2fa2ccf00","image grid","q","","","","","Phylogenetic_Distractor_Threat_target","ongrid","2500","q","1","Phylogenetic","true","experimental"
"","null","html-keyboard-response","119","351931","0.0-11.0-2.9","cTbgEnL1fJ","61632b52ab37a7fde834300f","6617fad957f7c6a12ea16e26","6622cb9b500b1ee2fa2ccf00","
    <div id=""grid-container"">
        <!-- Grid items will be dynamically added here -->
    </div>    ","null","","","","","","","","","","","",""
"","null","html-keyboard-response","120","352647","0.0-11.0-0.10","cTbgEnL1fJ","61632b52ab37a7fde834300f","6617fad957f7c6a12ea16e26","6622cb9b500b1ee2fa2ccf00","fixation cross","null","","","","","","","","","","","",""
"","1569","html-keyboard-response","121","354216","0.0-11.0-1.10","cTbgEnL1fJ","61632b52ab37a7fde834300f","6617fad957f7c6a12ea16e26","6622cb9b500b1ee2fa2ccf00","image grid","p","","","","","Phylogenetic_Distractor_Nonthreat_target","ongrid","2500","p","4","Phylogenetic","true","experimental"
"","null","html-keyboard-response","122","354373","0.0-11.0-2.10","cTbgEnL1fJ","61632b52ab37a7fde834300f","6617fad957f7c6a12ea16e26","6622cb9b500b1ee2fa2ccf00","
    <div id=""grid-container"">
        <!-- Grid items will be dynamically added here -->
    </div>    ","null","","","","","","","","","","","",""
"","null","html-keyboard-response","123","355087","0.0-11.0-0.11","cTbgEnL1fJ","61632b52ab37a7fde834300f","6617fad957f7c6a12ea16e26","6622cb9b500b1ee2fa2ccf00","fixation cross","null","","","","","","","","","","","",""
"","1140","html-keyboard-response","124","356227","0.0-11.0-1.11","cTbgEnL1fJ","61632b52ab37a7fde834300f","6617fad957f7c6a12ea16e26","6622cb9b500b1ee2fa2ccf00","image grid","p","","","","","Phylogenetic_Distractor_Nonthreat_target","ongrid","2500","p","5","Phylogenetic","true","experimental"
"","null","html-keyboard-response","125","356388","0.0-11.0-2.11","cTbgEnL1fJ","61632b52ab37a7fde834300f","6617fad957f7c6a12ea16e26","6622cb9b500b1ee2fa2ccf00","
    <div id=""grid-container"">
        <!-- Grid items will be dynamically added here -->
    </div>    ","null","","","","","","","","","","","",""
"","null","html-keyboard-response","126","357104","0.0-11.0-0.12","cTbgEnL1fJ","61632b52ab37a7fde834300f","6617fad957f7c6a12ea16e26","6622cb9b500b1ee2fa2ccf00","fixation cross","null","","","","","","","","","","","",""
"","2454","html-keyboard-response","127","359558","0.0-11.0-1.12","cTbgEnL1fJ","61632b52ab37a7fde834300f","6617fad957f7c6a12ea16e26","6622cb9b500b1ee2fa2ccf00","image grid","p","","","","","Phylogenetic_Distractor_Nonthreat_target","ongrid","2500","p","1","Phylogenetic","true","experimental"
"","null","html-keyboard-response","128","359711","0.0-11.0-2.12","cTbgEnL1fJ","61632b52ab37a7fde834300f","6617fad957f7c6a12ea16e26","6622cb9b500b1ee2fa2ccf00","
    <div id=""grid-container"">
        <!-- Grid items will be dynamically added here -->
    </div>    ","null","","","","","","","","","","","",""
"","null","html-keyboard-response","129","360430","0.0-11.0-0.13","cTbgEnL1fJ","61632b52ab37a7fde834300f","6617fad957f7c6a12ea16e26","6622cb9b500b1ee2fa2ccf00","fixation cross","null","","","","","","","","","","","",""
"","1235","html-keyboard-response","130","361666","0.0-11.0-1.13","cTbgEnL1fJ","61632b52ab37a7fde834300f","6617fad957f7c6a12ea16e26","6622cb9b500b1ee2fa2ccf00","image grid","p","","","","","Phylogenetic_Distractor_Nonthreat_target","ongrid","2500","p","1","Phylogenetic","true","experimental"
"","null","html-keyboard-response","131","361824","0.0-11.0-2.13","cTbgEnL1fJ","61632b52ab37a7fde834300f","6617fad957f7c6a12ea16e26","6622cb9b500b1ee2fa2ccf00","
    <div id=""grid-container"">
        <!-- Grid items will be dynamically added here -->
    </div>    ","null","","","","","","","","","","","",""
"","null","html-keyboard-response","132","362550","0.0-11.0-0.14","cTbgEnL1fJ","61632b52ab37a7fde834300f","6617fad957f7c6a12ea16e26","6622cb9b500b1ee2fa2ccf00","fixation cross","null","","","","","","","","","","","",""
"","2120","html-keyboard-response","133","364671","0.0-11.0-1.14","cTbgEnL1fJ","61632b52ab37a7fde834300f","6617fad957f7c6a12ea16e26","6622cb9b500b1ee2fa2ccf00","image grid","q","","","","","Phylogenetic_Distractor_Threat_target","ongrid","2500","q","8","Phylogenetic","true","experimental"
"","null","html-keyboard-response","134","364827","0.0-11.0-2.14","cTbgEnL1fJ","61632b52ab37a7fde834300f","6617fad957f7c6a12ea16e26","6622cb9b500b1ee2fa2ccf00","
    <div id=""grid-container"">
        <!-- Grid items will be dynamically added here -->
    </div>    ","null","","","","","","","","","","","",""
"","null","html-keyboard-response","135","365544","0.0-11.0-0.15","cTbgEnL1fJ","61632b52ab37a7fde834300f","6617fad957f7c6a12ea16e26","6622cb9b500b1ee2fa2ccf00","fixation cross","null","","","","","","","","","","","",""
"","1698","html-keyboard-response","136","367243","0.0-11.0-1.15","cTbgEnL1fJ","61632b52ab37a7fde834300f","6617fad957f7c6a12ea16e26","6622cb9b500b1ee2fa2ccf00","image grid","p","","","","","Phylogenetic_Distractor_Nonthreat_target","ongrid","2500","p","5","Phylogenetic","true","experimental"
"","null","html-keyboard-response","137","367402","0.0-11.0-2.15","cTbgEnL1fJ","61632b52ab37a7fde834300f","6617fad957f7c6a12ea16e26","6622cb9b500b1ee2fa2ccf00","
    <div id=""grid-container"">
        <!-- Grid items will be dynamically added here -->
    </div>    ","null","","","","","","","","","","","",""
"","null","html-keyboard-response","138","368115","0.0-11.0-0.16","cTbgEnL1fJ","61632b52ab37a7fde834300f","6617fad957f7c6a12ea16e26","6622cb9b500b1ee2fa2ccf00","fixation cross","null","","","","","","","","","","","",""
"","1475","html-keyboard-response","139","369591","0.0-11.0-1.16","cTbgEnL1fJ","61632b52ab37a7fde834300f","6617fad957f7c6a12ea16e26","6622cb9b500b1ee2fa2ccf00","image grid","p","","","","","Phylogenetic_Distractor_Nonthreat_target","ongrid","2500","p","4","Phylogenetic","true","experimental"
"","null","html-keyboard-response","140","369746","0.0-11.0-2.16","cTbgEnL1fJ","61632b52ab37a7fde834300f","6617fad957f7c6a12ea16e26","6622cb9b500b1ee2fa2ccf00","
    <div id=""grid-container"">
        <!-- Grid items will be dynamically added here -->
    </div>    ","null","","","","","","","","","","","",""
"","null","html-keyboard-response","141","370449","0.0-11.0-0.17","cTbgEnL1fJ","61632b52ab37a7fde834300f","6617fad957f7c6a12ea16e26","6622cb9b500b1ee2fa2ccf00","fixation cross","null","","","","","","","","","","","",""
"","1460","html-keyboard-response","142","371910","0.0-11.0-1.17","cTbgEnL1fJ","61632b52ab37a7fde834300f","6617fad957f7c6a12ea16e26","6622cb9b500b1ee2fa2ccf00","image grid","q","","","","","Phylogenetic_Distractor_Threat_target","ongrid","2500","q","1","Phylogenetic","true","experimental"
"","null","html-keyboard-response","143","372075","0.0-11.0-2.17","cTbgEnL1fJ","61632b52ab37a7fde834300f","6617fad957f7c6a12ea16e26","6622cb9b500b1ee2fa2ccf00","
    <div id=""grid-container"">
        <!-- Grid items will be dynamically added here -->
    </div>    ","null","","","","","","","","","","","",""
"","null","html-keyboard-response","144","372782","0.0-11.0-0.18","cTbgEnL1fJ","61632b52ab37a7fde834300f","6617fad957f7c6a12ea16e26","6622cb9b500b1ee2fa2ccf00","fixation cross","null","","","","","","","","","","","",""
"","2489","html-keyboard-response","145","375273","0.0-11.0-1.18","cTbgEnL1fJ","61632b52ab37a7fde834300f","6617fad957f7c6a12ea16e26","6622cb9b500b1ee2fa2ccf00","image grid"," ","","","","","Phylogenetic_Distractor_notarget","ongrid","2500"," ","2","Phylogenetic","true","experimental"
"","null","html-keyboard-response","146","375428","0.0-11.0-2.18","cTbgEnL1fJ","61632b52ab37a7fde834300f","6617fad957f7c6a12ea16e26","6622cb9b500b1ee2fa2ccf00","
    <div id=""grid-container"">
        <!-- Grid items will be dynamically added here -->
    </div>    ","null","","","","","","","","","","","",""
"","null","html-keyboard-response","147","376135","0.0-11.0-0.19","cTbgEnL1fJ","61632b52ab37a7fde834300f","6617fad957f7c6a12ea16e26","6622cb9b500b1ee2fa2ccf00","fixation cross","null","","","","","","","","","","","",""
"","2125","html-keyboard-response","148","378260","0.0-11.0-1.19","cTbgEnL1fJ","61632b52ab37a7fde834300f","6617fad957f7c6a12ea16e26","6622cb9b500b1ee2fa2ccf00","image grid","q","","","","","Phylogenetic_Distractor_Threat_target","ongrid","2500","q","9","Phylogenetic","true","experimental"
"","null","html-keyboard-response","149","378414","0.0-11.0-2.19","cTbgEnL1fJ","61632b52ab37a7fde834300f","6617fad957f7c6a12ea16e26","6622cb9b500b1ee2fa2ccf00","
    <div id=""grid-container"">
        <!-- Grid items will be dynamically added here -->
    </div>    ","null","","","","","","","","","","","",""
"","null","html-keyboard-response","150","379132","0.0-11.0-0.20","cTbgEnL1fJ","61632b52ab37a7fde834300f","6617fad957f7c6a12ea16e26","6622cb9b500b1ee2fa2ccf00","fixation cross","null","","","","","","","","","","","",""
"","2471","html-keyboard-response","151","381603","0.0-11.0-1.20","cTbgEnL1fJ","61632b52ab37a7fde834300f","6617fad957f7c6a12ea16e26","6622cb9b500b1ee2fa2ccf00","image grid","p","","","","","Phylogenetic_Distractor_Nonthreat_target","ongrid","2500","p","1","Phylogenetic","true","experimental"
"","null","html-keyboard-response","152","381757","0.0-11.0-2.20","cTbgEnL1fJ","61632b52ab37a7fde834300f","6617fad957f7c6a12ea16e26","6622cb9b500b1ee2fa2ccf00","
    <div id=""grid-container"">
        <!-- Grid items will be dynamically added here -->
    </div>    ","null","","","","","","","","","","","",""
"","null","html-keyboard-response","153","382464","0.0-11.0-0.21","cTbgEnL1fJ","61632b52ab37a7fde834300f","6617fad957f7c6a12ea16e26","6622cb9b500b1ee2fa2ccf00","fixation cross","null","","","","","","","","","","","",""
"","null","html-keyboard-response","154","384978","0.0-11.0-1.21","cTbgEnL1fJ","61632b52ab37a7fde834300f","6617fad957f7c6a12ea16e26","6622cb9b500b1ee2fa2ccf00","
        <div id=""grid-container"">
        <!-- Grid items will be dynamically added here -->
    </div>    ","null","","","","","","","","","","","",""
"","3370","html-keyboard-response","155","385848","0.0-11.0-2.21","cTbgEnL1fJ","61632b52ab37a7fde834300f","6617fad957f7c6a12ea16e26","6622cb9b500b1ee2fa2ccf00","mask grid","q","","","","","Phylogenetic_Distractor_Threat_target","onmask","2500","q","1","Phylogenetic","true","experimental"
"","null","html-keyboard-response","156","386575","0.0-11.0-0.22","cTbgEnL1fJ","61632b52ab37a7fde834300f","6617fad957f7c6a12ea16e26","6622cb9b500b1ee2fa2ccf00","fixation cross","null","","","","","","","","","","","",""
"","1299","html-keyboard-response","157","387874","0.0-11.0-1.22","cTbgEnL1fJ","61632b52ab37a7fde834300f","6617fad957f7c6a12ea16e26","6622cb9b500b1ee2fa2ccf00","image grid","p","","","","","Phylogenetic_Distractor_Nonthreat_target","ongrid","2500","p","1","Phylogenetic","true","experimental"
"","null","html-keyboard-response","158","388035","0.0-11.0-2.22","cTbgEnL1fJ","61632b52ab37a7fde834300f","6617fad957f7c6a12ea16e26","6622cb9b500b1ee2fa2ccf00","
    <div id=""grid-container"">
        <!-- Grid items will be dynamically added here -->
    </div>    ","null","","","","","","","","","","","",""
"","null","html-keyboard-response","159","388744","0.0-11.0-0.23","cTbgEnL1fJ","61632b52ab37a7fde834300f","6617fad957f7c6a12ea16e26","6622cb9b500b1ee2fa2ccf00","fixation cross","null","","","","","","","","","","","",""
"","1548","html-keyboard-response","160","390293","0.0-11.0-1.23","cTbgEnL1fJ","61632b52ab37a7fde834300f","6617fad957f7c6a12ea16e26","6622cb9b500b1ee2fa2ccf00","image grid","p","","","","","Phylogenetic_Distractor_Nonthreat_target","ongrid","2500","p","2","Phylogenetic","true","experimental"
"","null","html-keyboard-response","161","390448","0.0-11.0-2.23","cTbgEnL1fJ","61632b52ab37a7fde834300f","6617fad957f7c6a12ea16e26","6622cb9b500b1ee2fa2ccf00","
    <div id=""grid-container"">
        <!-- Grid items will be dynamically added here -->
    </div>    ","null","","","","","","","","","","","",""
"","null","html-keyboard-response","162","391152","0.0-11.0-0.24","cTbgEnL1fJ","61632b52ab37a7fde834300f","6617fad957f7c6a12ea16e26","6622cb9b500b1ee2fa2ccf00","fixation cross","null","","","","","","","","","","","",""
"","2043","html-keyboard-response","163","393195","0.0-11.0-1.24","cTbgEnL1fJ","61632b52ab37a7fde834300f","6617fad957f7c6a12ea16e26","6622cb9b500b1ee2fa2ccf00","image grid","p","","","","","Phylogenetic_Distractor_Nonthreat_target","ongrid","2500","p","8","Phylogenetic","true","experimental"
"","null","html-keyboard-response","164","393353","0.0-11.0-2.24","cTbgEnL1fJ","61632b52ab37a7fde834300f","6617fad957f7c6a12ea16e26","6622cb9b500b1ee2fa2ccf00","
    <div id=""grid-container"">
        <!-- Grid items will be dynamically added here -->
    </div>    ","null","","","","","","","","","","","",""
"","null","html-keyboard-response","165","394074","0.0-11.0-0.25","cTbgEnL1fJ","61632b52ab37a7fde834300f","6617fad957f7c6a12ea16e26","6622cb9b500b1ee2fa2ccf00","fixation cross","null","","","","","","","","","","","",""
"","2042","html-keyboard-response","166","396117","0.0-11.0-1.25","cTbgEnL1fJ","61632b52ab37a7fde834300f","6617fad957f7c6a12ea16e26","6622cb9b500b1ee2fa2ccf00","image grid","q","","","","","Phylogenetic_Distractor_Threat_target","ongrid","2500","q","9","Phylogenetic","true","experimental"
"","null","html-keyboard-response","167","396277","0.0-11.0-2.25","cTbgEnL1fJ","61632b52ab37a7fde834300f","6617fad957f7c6a12ea16e26","6622cb9b500b1ee2fa2ccf00","
    <div id=""grid-container"">
        <!-- Grid items will be dynamically added here -->
    </div>    ","null","","","","","","","","","","","",""
"","null","html-keyboard-response","168","396991","0.0-11.0-0.26","cTbgEnL1fJ","61632b52ab37a7fde834300f","6617fad957f7c6a12ea16e26","6622cb9b500b1ee2fa2ccf00","fixation cross","null","","","","","","","","","","","",""
"","1699","html-keyboard-response","169","398691","0.0-11.0-1.26","cTbgEnL1fJ","61632b52ab37a7fde834300f","6617fad957f7c6a12ea16e26","6622cb9b500b1ee2fa2ccf00","image grid","p","","","","","Phylogenetic_Distractor_Nonthreat_target","ongrid","2500","p","7","Phylogenetic","true","experimental"
"","null","html-keyboard-response","170","398854","0.0-11.0-2.26","cTbgEnL1fJ","61632b52ab37a7fde834300f","6617fad957f7c6a12ea16e26","6622cb9b500b1ee2fa2ccf00","
    <div id=""grid-container"">
        <!-- Grid items will be dynamically added here -->
    </div>    ","null","","","","","","","","","","","",""
"","null","html-keyboard-response","171","399572","0.0-11.0-0.27","cTbgEnL1fJ","61632b52ab37a7fde834300f","6617fad957f7c6a12ea16e26","6622cb9b500b1ee2fa2ccf00","fixation cross","null","","","","","","","","","","","",""
"","2103","html-keyboard-response","172","401676","0.0-11.0-1.27","cTbgEnL1fJ","61632b52ab37a7fde834300f","6617fad957f7c6a12ea16e26","6622cb9b500b1ee2fa2ccf00","image grid","p","","","","","Phylogenetic_Distractor_Nonthreat_target","ongrid","2500","p","6","Phylogenetic","true","experimental"
"","null","html-keyboard-response","173","401841","0.0-11.0-2.27","cTbgEnL1fJ","61632b52ab37a7fde834300f","6617fad957f7c6a12ea16e26","6622cb9b500b1ee2fa2ccf00","
    <div id=""grid-container"">
        <!-- Grid items will be dynamically added here -->
    </div>    ","null","","","","","","","","","","","",""
"","null","html-keyboard-response","174","402552","0.0-11.0-0.28","cTbgEnL1fJ","61632b52ab37a7fde834300f","6617fad957f7c6a12ea16e26","6622cb9b500b1ee2fa2ccf00","fixation cross","null","","","","","","","","","","","",""
"","1377","html-keyboard-response","175","403929","0.0-11.0-1.28","cTbgEnL1fJ","61632b52ab37a7fde834300f","6617fad957f7c6a12ea16e26","6622cb9b500b1ee2fa2ccf00","image grid","q","","","","","Phylogenetic_Distractor_Threat_target","ongrid","2500","q","7","Phylogenetic","true","experimental"
"","null","html-keyboard-response","176","404097","0.0-11.0-2.28","cTbgEnL1fJ","61632b52ab37a7fde834300f","6617fad957f7c6a12ea16e26","6622cb9b500b1ee2fa2ccf00","
    <div id=""grid-container"">
        <!-- Grid items will be dynamically added here -->
    </div>    ","null","","","","","","","","","","","",""
"","null","html-keyboard-response","177","404807","0.0-11.0-0.29","cTbgEnL1fJ","61632b52ab37a7fde834300f","6617fad957f7c6a12ea16e26","6622cb9b500b1ee2fa2ccf00","fixation cross","null","","","","","","","","","","","",""
"","1531","html-keyboard-response","178","406339","0.0-11.0-1.29","cTbgEnL1fJ","61632b52ab37a7fde834300f","6617fad957f7c6a12ea16e26","6622cb9b500b1ee2fa2ccf00","image grid","p","","","","","Phylogenetic_Distractor_Nonthreat_target","ongrid","2500","p","6","Phylogenetic","true","experimental"
"","null","html-keyboard-response","179","406502","0.0-11.0-2.29","cTbgEnL1fJ","61632b52ab37a7fde834300f","6617fad957f7c6a12ea16e26","6622cb9b500b1ee2fa2ccf00","
    <div id=""grid-container"">
        <!-- Grid items will be dynamically added here -->
    </div>    ","null","","","","","","","","","","","",""
"","null","html-keyboard-response","180","407229","0.0-11.0-0.30","cTbgEnL1fJ","61632b52ab37a7fde834300f","6617fad957f7c6a12ea16e26","6622cb9b500b1ee2fa2ccf00","fixation cross","null","","","","","","","","","","","",""
"","2327","html-keyboard-response","181","409556","0.0-11.0-1.30","cTbgEnL1fJ","61632b52ab37a7fde834300f","6617fad957f7c6a12ea16e26","6622cb9b500b1ee2fa2ccf00","image grid","q","","","","","Phylogenetic_Distractor_Threat_target","ongrid","2500","q","3","Phylogenetic","true","experimental"
"","null","html-keyboard-response","182","409713","0.0-11.0-2.30","cTbgEnL1fJ","61632b52ab37a7fde834300f","6617fad957f7c6a12ea16e26","6622cb9b500b1ee2fa2ccf00","
    <div id=""grid-container"">
        <!-- Grid items will be dynamically added here -->
    </div>    ","null","","","","","","","","","","","",""
"","null","html-keyboard-response","183","410431","0.0-11.0-0.31","cTbgEnL1fJ","61632b52ab37a7fde834300f","6617fad957f7c6a12ea16e26","6622cb9b500b1ee2fa2ccf00","fixation cross","null","","","","","","","","","","","",""
"","1965","html-keyboard-response","184","412396","0.0-11.0-1.31","cTbgEnL1fJ","61632b52ab37a7fde834300f","6617fad957f7c6a12ea16e26","6622cb9b500b1ee2fa2ccf00","image grid","p","","","","","Phylogenetic_Distractor_Nonthreat_target","ongrid","2500","p","6","Phylogenetic","true","experimental"
"","null","html-keyboard-response","185","412549","0.0-11.0-2.31","cTbgEnL1fJ","61632b52ab37a7fde834300f","6617fad957f7c6a12ea16e26","6622cb9b500b1ee2fa2ccf00","
    <div id=""grid-container"">
        <!-- Grid items will be dynamically added here -->
    </div>    ","null","","","","","","","","","","","",""
"","null","html-keyboard-response","186","413266","0.0-11.0-0.32","cTbgEnL1fJ","61632b52ab37a7fde834300f","6617fad957f7c6a12ea16e26","6622cb9b500b1ee2fa2ccf00","fixation cross","null","","","","","","","","","","","",""
"","null","html-keyboard-response","187","415767","0.0-11.0-1.32","cTbgEnL1fJ","61632b52ab37a7fde834300f","6617fad957f7c6a12ea16e26","6622cb9b500b1ee2fa2ccf00","
        <div id=""grid-container"">
        <!-- Grid items will be dynamically added here -->
    </div>    ","null","","","","","","","","","","","",""
"","3013","html-keyboard-response","188","416280","0.0-11.0-2.32","cTbgEnL1fJ","61632b52ab37a7fde834300f","6617fad957f7c6a12ea16e26","6622cb9b500b1ee2fa2ccf00","mask grid"," ","","","","","Phylogenetic_Distractor_notarget","onmask","2500"," ","6","Phylogenetic","true","experimental"
"","null","html-keyboard-response","189","417005","0.0-11.0-0.33","cTbgEnL1fJ","61632b52ab37a7fde834300f","6617fad957f7c6a12ea16e26","6622cb9b500b1ee2fa2ccf00","fixation cross","null","","","","","","","","","","","",""
"","1472","html-keyboard-response","190","418478","0.0-11.0-1.33","cTbgEnL1fJ","61632b52ab37a7fde834300f","6617fad957f7c6a12ea16e26","6622cb9b500b1ee2fa2ccf00","image grid","p","","","","","Phylogenetic_Distractor_Nonthreat_target","ongrid","2500","p","4","Phylogenetic","true","experimental"
"","null","html-keyboard-response","191","418634","0.0-11.0-2.33","cTbgEnL1fJ","61632b52ab37a7fde834300f","6617fad957f7c6a12ea16e26","6622cb9b500b1ee2fa2ccf00","
    <div id=""grid-container"">
        <!-- Grid items will be dynamically added here -->
    </div>    ","null","","","","","","","","","","","",""
"","null","html-keyboard-response","192","419353","0.0-11.0-0.34","cTbgEnL1fJ","61632b52ab37a7fde834300f","6617fad957f7c6a12ea16e26","6622cb9b500b1ee2fa2ccf00","fixation cross","null","","","","","","","","","","","",""
"","1334","html-keyboard-response","193","420687","0.0-11.0-1.34","cTbgEnL1fJ","61632b52ab37a7fde834300f","6617fad957f7c6a12ea16e26","6622cb9b500b1ee2fa2ccf00","image grid","q","","","","","Phylogenetic_Distractor_Threat_target","ongrid","2500","q","4","Phylogenetic","true","experimental"
"","null","html-keyboard-response","194","420851","0.0-11.0-2.34","cTbgEnL1fJ","61632b52ab37a7fde834300f","6617fad957f7c6a12ea16e26","6622cb9b500b1ee2fa2ccf00","
    <div id=""grid-container"">
        <!-- Grid items will be dynamically added here -->
    </div>    ","null","","","","","","","","","","","",""
"","null","html-keyboard-response","195","421566","0.0-11.0-0.35","cTbgEnL1fJ","61632b52ab37a7fde834300f","6617fad957f7c6a12ea16e26","6622cb9b500b1ee2fa2ccf00","fixation cross","null","","","","","","","","","","","",""
"","1527","html-keyboard-response","196","423094","0.0-11.0-1.35","cTbgEnL1fJ","61632b52ab37a7fde834300f","6617fad957f7c6a12ea16e26","6622cb9b500b1ee2fa2ccf00","image grid","q","","","","","Phylogenetic_Distractor_Threat_target","ongrid","2500","q","2","Phylogenetic","true","experimental"
"","null","html-keyboard-response","197","423252","0.0-11.0-2.35","cTbgEnL1fJ","61632b52ab37a7fde834300f","6617fad957f7c6a12ea16e26","6622cb9b500b1ee2fa2ccf00","
    <div id=""grid-container"">
        <!-- Grid items will be dynamically added here -->
    </div>    ","null","","","","","","","","","","","",""
"","null","html-keyboard-response","198","423977","0.0-11.0-0.36","cTbgEnL1fJ","61632b52ab37a7fde834300f","6617fad957f7c6a12ea16e26","6622cb9b500b1ee2fa2ccf00","fixation cross","null","","","","","","","","","","","",""
"","1264","html-keyboard-response","199","425242","0.0-11.0-1.36","cTbgEnL1fJ","61632b52ab37a7fde834300f","6617fad957f7c6a12ea16e26","6622cb9b500b1ee2fa2ccf00","image grid","p","","","","","Phylogenetic_Distractor_Nonthreat_target","ongrid","2500","p","8","Phylogenetic","true","experimental"
"","null","html-keyboard-response","200","425397","0.0-11.0-2.36","cTbgEnL1fJ","61632b52ab37a7fde834300f","6617fad957f7c6a12ea16e26","6622cb9b500b1ee2fa2ccf00","
    <div id=""grid-container"">
        <!-- Grid items will be dynamically added here -->
    </div>    ","null","","","","","","","","","","","",""
"","null","html-keyboard-response","201","426116","0.0-11.0-0.37","cTbgEnL1fJ","61632b52ab37a7fde834300f","6617fad957f7c6a12ea16e26","6622cb9b500b1ee2fa2ccf00","fixation cross","null","","","","","","","","","","","",""
"","1114","html-keyboard-response","202","427231","0.0-11.0-1.37","cTbgEnL1fJ","61632b52ab37a7fde834300f","6617fad957f7c6a12ea16e26","6622cb9b500b1ee2fa2ccf00","image grid","q","","","","","Phylogenetic_Distractor_Threat_target","ongrid","2500","q","8","Phylogenetic","true","experimental"
"","null","html-keyboard-response","203","427383","0.0-11.0-2.37","cTbgEnL1fJ","61632b52ab37a7fde834300f","6617fad957f7c6a12ea16e26","6622cb9b500b1ee2fa2ccf00","
    <div id=""grid-container"">
        <!-- Grid items will be dynamically added here -->
    </div>    ","null","","","","","","","","","","","",""
"","null","html-keyboard-response","204","428090","0.0-11.0-0.38","cTbgEnL1fJ","61632b52ab37a7fde834300f","6617fad957f7c6a12ea16e26","6622cb9b500b1ee2fa2ccf00","fixation cross","null","","","","","","","","","","","",""
"","1469","html-keyboard-response","205","429559","0.0-11.0-1.38","cTbgEnL1fJ","61632b52ab37a7fde834300f","6617fad957f7c6a12ea16e26","6622cb9b500b1ee2fa2ccf00","image grid","q","","","","","Phylogenetic_Distractor_Threat_target","ongrid","2500","q","4","Phylogenetic","true","experimental"
"","null","html-keyboard-response","206","429716","0.0-11.0-2.38","cTbgEnL1fJ","61632b52ab37a7fde834300f","6617fad957f7c6a12ea16e26","6622cb9b500b1ee2fa2ccf00","
    <div id=""grid-container"">
        <!-- Grid items will be dynamically added here -->
    </div>    ","null","","","","","","","","","","","",""
"","null","html-keyboard-response","207","430429","0.0-11.0-0.39","cTbgEnL1fJ","61632b52ab37a7fde834300f","6617fad957f7c6a12ea16e26","6622cb9b500b1ee2fa2ccf00","fixation cross","null","","","","","","","","","","","",""
"","1134","html-keyboard-response","208","431564","0.0-11.0-1.39","cTbgEnL1fJ","61632b52ab37a7fde834300f","6617fad957f7c6a12ea16e26","6622cb9b500b1ee2fa2ccf00","image grid","q","","","","","Phylogenetic_Distractor_Threat_target","ongrid","2500","q","5","Phylogenetic","true","experimental"
"","null","html-keyboard-response","209","431716","0.0-11.0-2.39","cTbgEnL1fJ","61632b52ab37a7fde834300f","6617fad957f7c6a12ea16e26","6622cb9b500b1ee2fa2ccf00","
    <div id=""grid-container"">
        <!-- Grid items will be dynamically added here -->
    </div>    ","null","","","","","","","","","","","",""
"","109393","html-keyboard-response","210","541364","0.0-12.0","cTbgEnL1fJ","61632b52ab37a7fde834300f","6617fad957f7c6a12ea16e26","6622cb9b500b1ee2fa2ccf00","break screen"," ","","","","","","","","","","","",""
"","null","html-keyboard-response","211","543934","0.0-13.0-0.0","cTbgEnL1fJ","61632b52ab37a7fde834300f","6617fad957f7c6a12ea16e26","6622cb9b500b1ee2fa2ccf00","fixation cross","null","","","","","","","","","","","",""
"","null","html-keyboard-response","212","546447","0.0-13.0-1.0","cTbgEnL1fJ","61632b52ab37a7fde834300f","6617fad957f7c6a12ea16e26","6622cb9b500b1ee2fa2ccf00","
        <div id=""grid-container"">
        <!-- Grid items will be dynamically added here -->
    </div>    ","null","","","","","","","","","","","",""
"","3171","html-keyboard-response","213","547119","0.0-13.0-2.0","cTbgEnL1fJ","61632b52ab37a7fde834300f","6617fad957f7c6a12ea16e26","6622cb9b500b1ee2fa2ccf00","mask grid","p","","","","","Ontogenetic_Distractor_Nonthreat_target","onmask","2500","p","6","Ontogenetic","true","experimental"
"","null","html-keyboard-response","214","547841","0.0-13.0-0.1","cTbgEnL1fJ","61632b52ab37a7fde834300f","6617fad957f7c6a12ea16e26","6622cb9b500b1ee2fa2ccf00","fixation cross","null","","","","","","","","","","","",""
"","1748","html-keyboard-response","215","549589","0.0-13.0-1.1","cTbgEnL1fJ","61632b52ab37a7fde834300f","6617fad957f7c6a12ea16e26","6622cb9b500b1ee2fa2ccf00","image grid","q","","","","","Ontogenetic_Distractor_Threat_target","ongrid","2500","q","4","Ontogenetic","true","experimental"
"","null","html-keyboard-response","216","549748","0.0-13.0-2.1","cTbgEnL1fJ","61632b52ab37a7fde834300f","6617fad957f7c6a12ea16e26","6622cb9b500b1ee2fa2ccf00","
    <div id=""grid-container"">
        <!-- Grid items will be dynamically added here -->
    </div>    ","null","","","","","","","","","","","",""
"","null","html-keyboard-response","217","550466","0.0-13.0-0.2","cTbgEnL1fJ","61632b52ab37a7fde834300f","6617fad957f7c6a12ea16e26","6622cb9b500b1ee2fa2ccf00","fixation cross","null","","","","","","","","","","","",""
"","2065","html-keyboard-response","218","552532","0.0-13.0-1.2","cTbgEnL1fJ","61632b52ab37a7fde834300f","6617fad957f7c6a12ea16e26","6622cb9b500b1ee2fa2ccf00","image grid","q","","","","","Ontogenetic_Distractor_Threat_target","ongrid","2500","q","5","Ontogenetic","true","experimental"
"","null","html-keyboard-response","219","552698","0.0-13.0-2.2","cTbgEnL1fJ","61632b52ab37a7fde834300f","6617fad957f7c6a12ea16e26","6622cb9b500b1ee2fa2ccf00","
    <div id=""grid-container"">
        <!-- Grid items will be dynamically added here -->
    </div>    ","null","","","","","","","","","","","",""
"","null","html-keyboard-response","220","553416","0.0-13.0-0.3","cTbgEnL1fJ","61632b52ab37a7fde834300f","6617fad957f7c6a12ea16e26","6622cb9b500b1ee2fa2ccf00","fixation cross","null","","","","","","","","","","","",""
"","null","html-keyboard-response","221","555930","0.0-13.0-1.3","cTbgEnL1fJ","61632b52ab37a7fde834300f","6617fad957f7c6a12ea16e26","6622cb9b500b1ee2fa2ccf00","
        <div id=""grid-container"">
        <!-- Grid items will be dynamically added here -->
    </div>    ","null","","","","","","","","","","","",""
"","3471","html-keyboard-response","222","556901","0.0-13.0-2.3","cTbgEnL1fJ","61632b52ab37a7fde834300f","6617fad957f7c6a12ea16e26","6622cb9b500b1ee2fa2ccf00","mask grid","p","","","","","Ontogenetic_Distractor_Nonthreat_target","onmask","2500","p","5","Ontogenetic","true","experimental"
"","null","html-keyboard-response","223","557627","0.0-13.0-0.4","cTbgEnL1fJ","61632b52ab37a7fde834300f","6617fad957f7c6a12ea16e26","6622cb9b500b1ee2fa2ccf00","fixation cross","null","","","","","","","","","","","",""
"","null","html-keyboard-response","224","560141","0.0-13.0-1.4","cTbgEnL1fJ","61632b52ab37a7fde834300f","6617fad957f7c6a12ea16e26","6622cb9b500b1ee2fa2ccf00","
        <div id=""grid-container"">
        <!-- Grid items will be dynamically added here -->
    </div>    ","null","","","","","","","","","","","",""
"","2681","html-keyboard-response","225","560322","0.0-13.0-2.4","cTbgEnL1fJ","61632b52ab37a7fde834300f","6617fad957f7c6a12ea16e26","6622cb9b500b1ee2fa2ccf00","mask grid"," ","","","","","Ontogenetic_Distractor_Nonthreat_target","onmask","2500","p","8","Ontogenetic","false","experimental"
"","null","html-keyboard-response","226","561032","0.0-13.0-0.5","cTbgEnL1fJ","61632b52ab37a7fde834300f","6617fad957f7c6a12ea16e26","6622cb9b500b1ee2fa2ccf00","fixation cross","null","","","","","","","","","","","",""
"","null","html-keyboard-response","227","563543","0.0-13.0-1.5","cTbgEnL1fJ","61632b52ab37a7fde834300f","6617fad957f7c6a12ea16e26","6622cb9b500b1ee2fa2ccf00","
        <div id=""grid-container"">
        <!-- Grid items will be dynamically added here -->
    </div>    ","null","","","","","","","","","","","",""
"","2534","html-keyboard-response","228","563577","0.0-13.0-2.5","cTbgEnL1fJ","61632b52ab37a7fde834300f","6617fad957f7c6a12ea16e26","6622cb9b500b1ee2fa2ccf00","mask grid","q","","","","","Ontogenetic_Distractor_Threat_target","onmask","2500","q","4","Ontogenetic","true","experimental"
"","null","html-keyboard-response","229","564286","0.0-13.0-0.6","cTbgEnL1fJ","61632b52ab37a7fde834300f","6617fad957f7c6a12ea16e26","6622cb9b500b1ee2fa2ccf00","fixation cross","null","","","","","","","","","","","",""
"","1402","html-keyboard-response","230","565689","0.0-13.0-1.6","cTbgEnL1fJ","61632b52ab37a7fde834300f","6617fad957f7c6a12ea16e26","6622cb9b500b1ee2fa2ccf00","image grid","q","","","","","Ontogenetic_Distractor_Threat_target","ongrid","2500","q","1","Ontogenetic","true","experimental"
"","null","html-keyboard-response","231","565850","0.0-13.0-2.6","cTbgEnL1fJ","61632b52ab37a7fde834300f","6617fad957f7c6a12ea16e26","6622cb9b500b1ee2fa2ccf00","
    <div id=""grid-container"">
        <!-- Grid items will be dynamically added here -->
    </div>    ","null","","","","","","","","","","","",""
"","null","html-keyboard-response","232","566553","0.0-13.0-0.7","cTbgEnL1fJ","61632b52ab37a7fde834300f","6617fad957f7c6a12ea16e26","6622cb9b500b1ee2fa2ccf00","fixation cross","null","","","","","","","","","","","",""
"","1392","html-keyboard-response","233","567946","0.0-13.0-1.7","cTbgEnL1fJ","61632b52ab37a7fde834300f","6617fad957f7c6a12ea16e26","6622cb9b500b1ee2fa2ccf00","image grid","q","","","","","Ontogenetic_Distractor_Threat_target","ongrid","2500","q","8","Ontogenetic","true","experimental"
"","null","html-keyboard-response","234","568106","0.0-13.0-2.7","cTbgEnL1fJ","61632b52ab37a7fde834300f","6617fad957f7c6a12ea16e26","6622cb9b500b1ee2fa2ccf00","
    <div id=""grid-container"">
        <!-- Grid items will be dynamically added here -->
    </div>    ","null","","","","","","","","","","","",""
"","null","html-keyboard-response","235","568822","0.0-13.0-0.8","cTbgEnL1fJ","61632b52ab37a7fde834300f","6617fad957f7c6a12ea16e26","6622cb9b500b1ee2fa2ccf00","fixation cross","null","","","","","","","","","","","",""
"","2249","html-keyboard-response","236","571072","0.0-13.0-1.8","cTbgEnL1fJ","61632b52ab37a7fde834300f","6617fad957f7c6a12ea16e26","6622cb9b500b1ee2fa2ccf00","image grid","p","","","","","Ontogenetic_Distractor_Nonthreat_target","ongrid","2500","p","8","Ontogenetic","true","experimental"
"","null","html-keyboard-response","237","571229","0.0-13.0-2.8","cTbgEnL1fJ","61632b52ab37a7fde834300f","6617fad957f7c6a12ea16e26","6622cb9b500b1ee2fa2ccf00","
    <div id=""grid-container"">
        <!-- Grid items will be dynamically added here -->
    </div>    ","null","","","","","","","","","","","",""
"","null","html-keyboard-response","238","571944","0.0-13.0-0.9","cTbgEnL1fJ","61632b52ab37a7fde834300f","6617fad957f7c6a12ea16e26","6622cb9b500b1ee2fa2ccf00","fixation cross","null","","","","","","","","","","","",""
"","1763","html-keyboard-response","239","573708","0.0-13.0-1.9","cTbgEnL1fJ","61632b52ab37a7fde834300f","6617fad957f7c6a12ea16e26","6622cb9b500b1ee2fa2ccf00","image grid"," ","","","","","Ontogenetic_Distractor_Nonthreat_target","ongrid","2500","p","3","Ontogenetic","false","experimental"
"","null","html-keyboard-response","240","573871","0.0-13.0-2.9","cTbgEnL1fJ","61632b52ab37a7fde834300f","6617fad957f7c6a12ea16e26","6622cb9b500b1ee2fa2ccf00","
    <div id=""grid-container"">
        <!-- Grid items will be dynamically added here -->
    </div>    ","null","","","","","","","","","","","",""
"","null","html-keyboard-response","241","574576","0.0-13.0-0.10","cTbgEnL1fJ","61632b52ab37a7fde834300f","6617fad957f7c6a12ea16e26","6622cb9b500b1ee2fa2ccf00","fixation cross","null","","","","","","","","","","","",""
"","2272","html-keyboard-response","242","576848","0.0-13.0-1.10","cTbgEnL1fJ","61632b52ab37a7fde834300f","6617fad957f7c6a12ea16e26","6622cb9b500b1ee2fa2ccf00","image grid","p","","","","","Ontogenetic_Distractor_Nonthreat_target","ongrid","2500","p","9","Ontogenetic","true","experimental"
"","null","html-keyboard-response","243","577012","0.0-13.0-2.10","cTbgEnL1fJ","61632b52ab37a7fde834300f","6617fad957f7c6a12ea16e26","6622cb9b500b1ee2fa2ccf00","
    <div id=""grid-container"">
        <!-- Grid items will be dynamically added here -->
    </div>    ","null","","","","","","","","","","","",""
"","null","html-keyboard-response","244","577730","0.0-13.0-0.11","cTbgEnL1fJ","61632b52ab37a7fde834300f","6617fad957f7c6a12ea16e26","6622cb9b500b1ee2fa2ccf00","fixation cross","null","","","","","","","","","","","",""
"","2422","html-keyboard-response","245","580153","0.0-13.0-1.11","cTbgEnL1fJ","61632b52ab37a7fde834300f","6617fad957f7c6a12ea16e26","6622cb9b500b1ee2fa2ccf00","image grid"," ","","","","","Ontogenetic_Distractor_Nonthreat_target","ongrid","2500","p","5","Ontogenetic","false","experimental"
"","null","html-keyboard-response","246","580305","0.0-13.0-2.11","cTbgEnL1fJ","61632b52ab37a7fde834300f","6617fad957f7c6a12ea16e26","6622cb9b500b1ee2fa2ccf00","
    <div id=""grid-container"">
        <!-- Grid items will be dynamically added here -->
    </div>    ","null","","","","","","","","","","","",""
"","null","html-keyboard-response","247","581033","0.0-13.0-0.12","cTbgEnL1fJ","61632b52ab37a7fde834300f","6617fad957f7c6a12ea16e26","6622cb9b500b1ee2fa2ccf00","fixation cross","null","","","","","","","","","","","",""
"","1336","html-keyboard-response","248","582369","0.0-13.0-1.12","cTbgEnL1fJ","61632b52ab37a7fde834300f","6617fad957f7c6a12ea16e26","6622cb9b500b1ee2fa2ccf00","image grid","q","","","","","Ontogenetic_Distractor_Threat_target","ongrid","2500","q","4","Ontogenetic","true","experimental"
"","null","html-keyboard-response","249","582523","0.0-13.0-2.12","cTbgEnL1fJ","61632b52ab37a7fde834300f","6617fad957f7c6a12ea16e26","6622cb9b500b1ee2fa2ccf00","
    <div id=""grid-container"">
        <!-- Grid items will be dynamically added here -->
    </div>    ","null","","","","","","","","","","","",""
"","null","html-keyboard-response","250","583242","0.0-13.0-0.13","cTbgEnL1fJ","61632b52ab37a7fde834300f","6617fad957f7c6a12ea16e26","6622cb9b500b1ee2fa2ccf00","fixation cross","null","","","","","","","","","","","",""
"","null","html-keyboard-response","251","585756","0.0-13.0-1.13","cTbgEnL1fJ","61632b52ab37a7fde834300f","6617fad957f7c6a12ea16e26","6622cb9b500b1ee2fa2ccf00","
        <div id=""grid-container"">
        <!-- Grid items will be dynamically added here -->
    </div>    ","null","","","","","","","","","","","",""
"","3238","html-keyboard-response","252","586495","0.0-13.0-2.13","cTbgEnL1fJ","61632b52ab37a7fde834300f","6617fad957f7c6a12ea16e26","6622cb9b500b1ee2fa2ccf00","mask grid"," ","","","","","Ontogenetic_Distractor_notarget","onmask","2500"," ","7","Ontogenetic","true","experimental"
"","null","html-keyboard-response","253","587204","0.0-13.0-0.14","cTbgEnL1fJ","61632b52ab37a7fde834300f","6617fad957f7c6a12ea16e26","6622cb9b500b1ee2fa2ccf00","fixation cross","null","","","","","","","","","","","",""
"","2272","html-keyboard-response","254","589477","0.0-13.0-1.14","cTbgEnL1fJ","61632b52ab37a7fde834300f","6617fad957f7c6a12ea16e26","6622cb9b500b1ee2fa2ccf00","image grid","p","","","","","Ontogenetic_Distractor_Nonthreat_target","ongrid","2500","p","8","Ontogenetic","true","experimental"
"","null","html-keyboard-response","255","589635","0.0-13.0-2.14","cTbgEnL1fJ","61632b52ab37a7fde834300f","6617fad957f7c6a12ea16e26","6622cb9b500b1ee2fa2ccf00","
    <div id=""grid-container"">
        <!-- Grid items will be dynamically added here -->
    </div>    ","null","","","","","","","","","","","",""
"","null","html-keyboard-response","256","590349","0.0-13.0-0.15","cTbgEnL1fJ","61632b52ab37a7fde834300f","6617fad957f7c6a12ea16e26","6622cb9b500b1ee2fa2ccf00","fixation cross","null","","","","","","","","","","","",""
"","null","html-keyboard-response","257","592865","0.0-13.0-1.15","cTbgEnL1fJ","61632b52ab37a7fde834300f","6617fad957f7c6a12ea16e26","6622cb9b500b1ee2fa2ccf00","
        <div id=""grid-container"">
        <!-- Grid items will be dynamically added here -->
    </div>    ","null","","","","","","","","","","","",""
"","3909","html-keyboard-response","258","594274","0.0-13.0-2.15","cTbgEnL1fJ","61632b52ab37a7fde834300f","6617fad957f7c6a12ea16e26","6622cb9b500b1ee2fa2ccf00","mask grid"," ","","","","","Ontogenetic_Distractor_notarget","onmask","2500"," ","7","Ontogenetic","true","experimental"
"","null","html-keyboard-response","259","594995","0.0-13.0-0.16","cTbgEnL1fJ","61632b52ab37a7fde834300f","6617fad957f7c6a12ea16e26","6622cb9b500b1ee2fa2ccf00","fixation cross","null","","","","","","","","","","","",""
"","1293","html-keyboard-response","260","596288","0.0-13.0-1.16","cTbgEnL1fJ","61632b52ab37a7fde834300f","6617fad957f7c6a12ea16e26","6622cb9b500b1ee2fa2ccf00","image grid","q","","","","","Ontogenetic_Distractor_Threat_target","ongrid","2500","q","8","Ontogenetic","true","experimental"
"","null","html-keyboard-response","261","596450","0.0-13.0-2.16","cTbgEnL1fJ","61632b52ab37a7fde834300f","6617fad957f7c6a12ea16e26","6622cb9b500b1ee2fa2ccf00","
    <div id=""grid-container"">
        <!-- Grid items will be dynamically added here -->
    </div>    ","null","","","","","","","","","","","",""
"","null","html-keyboard-response","262","597157","0.0-13.0-0.17","cTbgEnL1fJ","61632b52ab37a7fde834300f","6617fad957f7c6a12ea16e26","6622cb9b500b1ee2fa2ccf00","fixation cross","null","","","","","","","","","","","",""
"","1145","html-keyboard-response","263","598303","0.0-13.0-1.17","cTbgEnL1fJ","61632b52ab37a7fde834300f","6617fad957f7c6a12ea16e26","6622cb9b500b1ee2fa2ccf00","image grid","q","","","","","Ontogenetic_Distractor_Threat_target","ongrid","2500","q","4","Ontogenetic","true","experimental"
"","null","html-keyboard-response","264","598465","0.0-13.0-2.17","cTbgEnL1fJ","61632b52ab37a7fde834300f","6617fad957f7c6a12ea16e26","6622cb9b500b1ee2fa2ccf00","
    <div id=""grid-container"">
        <!-- Grid items will be dynamically added here -->
    </div>    ","null","","","","","","","","","","","",""
"","null","html-keyboard-response","265","599185","0.0-13.0-0.18","cTbgEnL1fJ","61632b52ab37a7fde834300f","6617fad957f7c6a12ea16e26","6622cb9b500b1ee2fa2ccf00","fixation cross","null","","","","","","","","","","","",""
"","1131","html-keyboard-response","266","600317","0.0-13.0-1.18","cTbgEnL1fJ","61632b52ab37a7fde834300f","6617fad957f7c6a12ea16e26","6622cb9b500b1ee2fa2ccf00","image grid","p","","","","","Ontogenetic_Distractor_Nonthreat_target","ongrid","2500","p","4","Ontogenetic","true","experimental"
"","null","html-keyboard-response","267","600480","0.0-13.0-2.18","cTbgEnL1fJ","61632b52ab37a7fde834300f","6617fad957f7c6a12ea16e26","6622cb9b500b1ee2fa2ccf00","
    <div id=""grid-container"">
        <!-- Grid items will be dynamically added here -->
    </div>    ","null","","","","","","","","","","","",""
"","null","html-keyboard-response","268","601195","0.0-13.0-0.19","cTbgEnL1fJ","61632b52ab37a7fde834300f","6617fad957f7c6a12ea16e26","6622cb9b500b1ee2fa2ccf00","fixation cross","null","","","","","","","","","","","",""
"","1794","html-keyboard-response","269","602990","0.0-13.0-1.19","cTbgEnL1fJ","61632b52ab37a7fde834300f","6617fad957f7c6a12ea16e26","6622cb9b500b1ee2fa2ccf00","image grid","p","","","","","Ontogenetic_Distractor_Nonthreat_target","ongrid","2500","p","9","Ontogenetic","true","experimental"
"","null","html-keyboard-response","270","603154","0.0-13.0-2.19","cTbgEnL1fJ","61632b52ab37a7fde834300f","6617fad957f7c6a12ea16e26","6622cb9b500b1ee2fa2ccf00","
    <div id=""grid-container"">
        <!-- Grid items will be dynamically added here -->
    </div>    ","null","","","","","","","","","","","",""
"","null","html-keyboard-response","271","603863","0.0-13.0-0.20","cTbgEnL1fJ","61632b52ab37a7fde834300f","6617fad957f7c6a12ea16e26","6622cb9b500b1ee2fa2ccf00","fixation cross","null","","","","","","","","","","","",""
"","1657","html-keyboard-response","272","605520","0.0-13.0-1.20","cTbgEnL1fJ","61632b52ab37a7fde834300f","6617fad957f7c6a12ea16e26","6622cb9b500b1ee2fa2ccf00","image grid","q","","","","","Ontogenetic_Distractor_Threat_target","ongrid","2500","q","3","Ontogenetic","true","experimental"
"","null","html-keyboard-response","273","605678","0.0-13.0-2.20","cTbgEnL1fJ","61632b52ab37a7fde834300f","6617fad957f7c6a12ea16e26","6622cb9b500b1ee2fa2ccf00","
    <div id=""grid-container"">
        <!-- Grid items will be dynamically added here -->
    </div>    ","null","","","","","","","","","","","",""
"","null","html-keyboard-response","274","606382","0.0-13.0-0.21","cTbgEnL1fJ","61632b52ab37a7fde834300f","6617fad957f7c6a12ea16e26","6622cb9b500b1ee2fa2ccf00","fixation cross","null","","","","","","","","","","","",""
"","2406","html-keyboard-response","275","608788","0.0-13.0-1.21","cTbgEnL1fJ","61632b52ab37a7fde834300f","6617fad957f7c6a12ea16e26","6622cb9b500b1ee2fa2ccf00","image grid","p","","","","","Ontogenetic_Distractor_Nonthreat_target","ongrid","2500","p","7","Ontogenetic","true","experimental"
"","null","html-keyboard-response","276","608951","0.0-13.0-2.21","cTbgEnL1fJ","61632b52ab37a7fde834300f","6617fad957f7c6a12ea16e26","6622cb9b500b1ee2fa2ccf00","
    <div id=""grid-container"">
        <!-- Grid items will be dynamically added here -->
    </div>    ","null","","","","","","","","","","","",""
"","null","html-keyboard-response","277","609669","0.0-13.0-0.22","cTbgEnL1fJ","61632b52ab37a7fde834300f","6617fad957f7c6a12ea16e26","6622cb9b500b1ee2fa2ccf00","fixation cross","null","","","","","","","","","","","",""
"","2083","html-keyboard-response","278","611753","0.0-13.0-1.22","cTbgEnL1fJ","61632b52ab37a7fde834300f","6617fad957f7c6a12ea16e26","6622cb9b500b1ee2fa2ccf00","image grid"," ","","","","","Ontogenetic_Distractor_notarget","ongrid","2500"," ","3","Ontogenetic","true","experimental"
"","null","html-keyboard-response","279","611910","0.0-13.0-2.22","cTbgEnL1fJ","61632b52ab37a7fde834300f","6617fad957f7c6a12ea16e26","6622cb9b500b1ee2fa2ccf00","
    <div id=""grid-container"">
        <!-- Grid items will be dynamically added here -->
    </div>    ","null","","","","","","","","","","","",""
"","null","html-keyboard-response","280","612625","0.0-13.0-0.23","cTbgEnL1fJ","61632b52ab37a7fde834300f","6617fad957f7c6a12ea16e26","6622cb9b500b1ee2fa2ccf00","fixation cross","null","","","","","","","","","","","",""
"","1419","html-keyboard-response","281","614044","0.0-13.0-1.23","cTbgEnL1fJ","61632b52ab37a7fde834300f","6617fad957f7c6a12ea16e26","6622cb9b500b1ee2fa2ccf00","image grid","q","","","","","Ontogenetic_Distractor_Threat_target","ongrid","2500","q","4","Ontogenetic","true","experimental"
"","null","html-keyboard-response","282","614198","0.0-13.0-2.23","cTbgEnL1fJ","61632b52ab37a7fde834300f","6617fad957f7c6a12ea16e26","6622cb9b500b1ee2fa2ccf00","
    <div id=""grid-container"">
        <!-- Grid items will be dynamically added here -->
    </div>    ","null","","","","","","","","","","","",""
"","null","html-keyboard-response","283","614915","0.0-13.0-0.24","cTbgEnL1fJ","61632b52ab37a7fde834300f","6617fad957f7c6a12ea16e26","6622cb9b500b1ee2fa2ccf00","fixation cross","null","","","","","","","","","","","",""
"","null","html-keyboard-response","284","617418","0.0-13.0-1.24","cTbgEnL1fJ","61632b52ab37a7fde834300f","6617fad957f7c6a12ea16e26","6622cb9b500b1ee2fa2ccf00","
        <div id=""grid-container"">
        <!-- Grid items will be dynamically added here -->
    </div>    ","null","","","","","","","","","","","",""
"","2654","html-keyboard-response","285","617573","0.0-13.0-2.24","cTbgEnL1fJ","61632b52ab37a7fde834300f","6617fad957f7c6a12ea16e26","6622cb9b500b1ee2fa2ccf00","mask grid"," ","","","","","Ontogenetic_Distractor_notarget","onmask","2500"," ","8","Ontogenetic","true","experimental"
"","null","html-keyboard-response","286","618281","0.0-13.0-0.25","cTbgEnL1fJ","61632b52ab37a7fde834300f","6617fad957f7c6a12ea16e26","6622cb9b500b1ee2fa2ccf00","fixation cross","null","","","","","","","","","","","",""
"","2034","html-keyboard-response","287","620316","0.0-13.0-1.25","cTbgEnL1fJ","61632b52ab37a7fde834300f","6617fad957f7c6a12ea16e26","6622cb9b500b1ee2fa2ccf00","image grid","p","","","","","Ontogenetic_Distractor_Nonthreat_target","ongrid","2500","p","3","Ontogenetic","true","experimental"
"","null","html-keyboard-response","288","620474","0.0-13.0-2.25","cTbgEnL1fJ","61632b52ab37a7fde834300f","6617fad957f7c6a12ea16e26","6622cb9b500b1ee2fa2ccf00","
    <div id=""grid-container"">
        <!-- Grid items will be dynamically added here -->
    </div>    ","null","","","","","","","","","","","",""
"","null","html-keyboard-response","289","621194","0.0-13.0-0.26","cTbgEnL1fJ","61632b52ab37a7fde834300f","6617fad957f7c6a12ea16e26","6622cb9b500b1ee2fa2ccf00","fixation cross","null","","","","","","","","","","","",""
"","null","html-keyboard-response","290","623699","0.0-13.0-1.26","cTbgEnL1fJ","61632b52ab37a7fde834300f","6617fad957f7c6a12ea16e26","6622cb9b500b1ee2fa2ccf00","
        <div id=""grid-container"">
        <!-- Grid items will be dynamically added here -->
    </div>    ","null","","","","","","","","","","","",""
"","2745","html-keyboard-response","291","623944","0.0-13.0-2.26","cTbgEnL1fJ","61632b52ab37a7fde834300f","6617fad957f7c6a12ea16e26","6622cb9b500b1ee2fa2ccf00","mask grid","q","","","","","Ontogenetic_Distractor_Threat_target","onmask","2500","q","7","Ontogenetic","true","experimental"
"","null","html-keyboard-response","292","624658","0.0-13.0-0.27","cTbgEnL1fJ","61632b52ab37a7fde834300f","6617fad957f7c6a12ea16e26","6622cb9b500b1ee2fa2ccf00","fixation cross","null","","","","","","","","","","","",""
"","1630","html-keyboard-response","293","626288","0.0-13.0-1.27","cTbgEnL1fJ","61632b52ab37a7fde834300f","6617fad957f7c6a12ea16e26","6622cb9b500b1ee2fa2ccf00","image grid","q","","","","","Ontogenetic_Distractor_Threat_target","ongrid","2500","q","3","Ontogenetic","true","experimental"
"","null","html-keyboard-response","294","626448","0.0-13.0-2.27","cTbgEnL1fJ","61632b52ab37a7fde834300f","6617fad957f7c6a12ea16e26","6622cb9b500b1ee2fa2ccf00","
    <div id=""grid-container"">
        <!-- Grid items will be dynamically added here -->
    </div>    ","null","","","","","","","","","","","",""
"","null","html-keyboard-response","295","627154","0.0-13.0-0.28","cTbgEnL1fJ","61632b52ab37a7fde834300f","6617fad957f7c6a12ea16e26","6622cb9b500b1ee2fa2ccf00","fixation cross","null","","","","","","","","","","","",""
"","1445","html-keyboard-response","296","628600","0.0-13.0-1.28","cTbgEnL1fJ","61632b52ab37a7fde834300f","6617fad957f7c6a12ea16e26","6622cb9b500b1ee2fa2ccf00","image grid","p","","","","","Ontogenetic_Distractor_Nonthreat_target","ongrid","2500","p","8","Ontogenetic","true","experimental"
"","null","html-keyboard-response","297","628763","0.0-13.0-2.28","cTbgEnL1fJ","61632b52ab37a7fde834300f","6617fad957f7c6a12ea16e26","6622cb9b500b1ee2fa2ccf00","
    <div id=""grid-container"">
        <!-- Grid items will be dynamically added here -->
    </div>    ","null","","","","","","","","","","","",""
"","null","html-keyboard-response","298","629482","0.0-13.0-0.29","cTbgEnL1fJ","61632b52ab37a7fde834300f","6617fad957f7c6a12ea16e26","6622cb9b500b1ee2fa2ccf00","fixation cross","null","","","","","","","","","","","",""
"","2229","html-keyboard-response","299","631712","0.0-13.0-1.29","cTbgEnL1fJ","61632b52ab37a7fde834300f","6617fad957f7c6a12ea16e26","6622cb9b500b1ee2fa2ccf00","image grid","q","","","","","Ontogenetic_Distractor_Threat_target","ongrid","2500","q","1","Ontogenetic","true","experimental"
"","null","html-keyboard-response","300","631874","0.0-13.0-2.29","cTbgEnL1fJ","61632b52ab37a7fde834300f","6617fad957f7c6a12ea16e26","6622cb9b500b1ee2fa2ccf00","
    <div id=""grid-container"">
        <!-- Grid items will be dynamically added here -->
    </div>    ","null","","","","","","","","","","","",""
"","null","html-keyboard-response","301","632588","0.0-13.0-0.30","cTbgEnL1fJ","61632b52ab37a7fde834300f","6617fad957f7c6a12ea16e26","6622cb9b500b1ee2fa2ccf00","fixation cross","null","","","","","","","","","","","",""
"","null","html-keyboard-response","302","635090","0.0-13.0-1.30","cTbgEnL1fJ","61632b52ab37a7fde834300f","6617fad957f7c6a12ea16e26","6622cb9b500b1ee2fa2ccf00","
        <div id=""grid-container"">
        <!-- Grid items will be dynamically added here -->
    </div>    ","null","","","","","","","","","","","",""
"","2963","html-keyboard-response","303","635554","0.0-13.0-2.30","cTbgEnL1fJ","61632b52ab37a7fde834300f","6617fad957f7c6a12ea16e26","6622cb9b500b1ee2fa2ccf00","mask grid","p","","","","","Ontogenetic_Distractor_Nonthreat_target","onmask","2500","p","7","Ontogenetic","true","experimental"
"","null","html-keyboard-response","304","636279","0.0-13.0-0.31","cTbgEnL1fJ","61632b52ab37a7fde834300f","6617fad957f7c6a12ea16e26","6622cb9b500b1ee2fa2ccf00","fixation cross","null","","","","","","","","","","","",""
"","1422","html-keyboard-response","305","637701","0.0-13.0-1.31","cTbgEnL1fJ","61632b52ab37a7fde834300f","6617fad957f7c6a12ea16e26","6622cb9b500b1ee2fa2ccf00","image grid","q","","","","","Ontogenetic_Distractor_Threat_target","ongrid","2500","q","9","Ontogenetic","true","experimental"
"","null","html-keyboard-response","306","637859","0.0-13.0-2.31","cTbgEnL1fJ","61632b52ab37a7fde834300f","6617fad957f7c6a12ea16e26","6622cb9b500b1ee2fa2ccf00","
    <div id=""grid-container"">
        <!-- Grid items will be dynamically added here -->
    </div>    ","null","","","","","","","","","","","",""
"","null","html-keyboard-response","307","638561","0.0-13.0-0.32","cTbgEnL1fJ","61632b52ab37a7fde834300f","6617fad957f7c6a12ea16e26","6622cb9b500b1ee2fa2ccf00","fixation cross","null","","","","","","","","","","","",""
"","1750","html-keyboard-response","308","640313","0.0-13.0-1.32","cTbgEnL1fJ","61632b52ab37a7fde834300f","6617fad957f7c6a12ea16e26","6622cb9b500b1ee2fa2ccf00","image grid","p","","","","","Ontogenetic_Distractor_Nonthreat_target","ongrid","2500","p","5","Ontogenetic","true","experimental"
"","null","html-keyboard-response","309","640473","0.0-13.0-2.32","cTbgEnL1fJ","61632b52ab37a7fde834300f","6617fad957f7c6a12ea16e26","6622cb9b500b1ee2fa2ccf00","
    <div id=""grid-container"">
        <!-- Grid items will be dynamically added here -->
    </div>    ","null","","","","","","","","","","","",""
"","null","html-keyboard-response","310","641180","0.0-13.0-0.33","cTbgEnL1fJ","61632b52ab37a7fde834300f","6617fad957f7c6a12ea16e26","6622cb9b500b1ee2fa2ccf00","fixation cross","null","","","","","","","","","","","",""
"","2459","html-keyboard-response","311","643640","0.0-13.0-1.33","cTbgEnL1fJ","61632b52ab37a7fde834300f","6617fad957f7c6a12ea16e26","6622cb9b500b1ee2fa2ccf00","image grid","p","","","","","Ontogenetic_Distractor_Nonthreat_target","ongrid","2500","p","8","Ontogenetic","true","experimental"
"","null","html-keyboard-response","312","643792","0.0-13.0-2.33","cTbgEnL1fJ","61632b52ab37a7fde834300f","6617fad957f7c6a12ea16e26","6622cb9b500b1ee2fa2ccf00","
    <div id=""grid-container"">
        <!-- Grid items will be dynamically added here -->
    </div>    ","null","","","","","","","","","","","",""
"","null","html-keyboard-response","313","644513","0.0-13.0-0.34","cTbgEnL1fJ","61632b52ab37a7fde834300f","6617fad957f7c6a12ea16e26","6622cb9b500b1ee2fa2ccf00","fixation cross","null","","","","","","","","","","","",""
"","1692","html-keyboard-response","314","646205","0.0-13.0-1.34","cTbgEnL1fJ","61632b52ab37a7fde834300f","6617fad957f7c6a12ea16e26","6622cb9b500b1ee2fa2ccf00","image grid","p","","","","","Ontogenetic_Distractor_Nonthreat_target","ongrid","2500","p","5","Ontogenetic","true","experimental"
"","null","html-keyboard-response","315","646358","0.0-13.0-2.34","cTbgEnL1fJ","61632b52ab37a7fde834300f","6617fad957f7c6a12ea16e26","6622cb9b500b1ee2fa2ccf00","
    <div id=""grid-container"">
        <!-- Grid items will be dynamically added here -->
    </div>    ","null","","","","","","","","","","","",""
"","null","html-keyboard-response","316","647075","0.0-13.0-0.35","cTbgEnL1fJ","61632b52ab37a7fde834300f","6617fad957f7c6a12ea16e26","6622cb9b500b1ee2fa2ccf00","fixation cross","null","","","","","","","","","","","",""
"","1427","html-keyboard-response","317","648503","0.0-13.0-1.35","cTbgEnL1fJ","61632b52ab37a7fde834300f","6617fad957f7c6a12ea16e26","6622cb9b500b1ee2fa2ccf00","image grid","p","","","","","Ontogenetic_Distractor_Nonthreat_target","ongrid","2500","p","2","Ontogenetic","true","experimental"
"","null","html-keyboard-response","318","648668","0.0-13.0-2.35","cTbgEnL1fJ","61632b52ab37a7fde834300f","6617fad957f7c6a12ea16e26","6622cb9b500b1ee2fa2ccf00","
    <div id=""grid-container"">
        <!-- Grid items will be dynamically added here -->
    </div>    ","null","","","","","","","","","","","",""
"","null","html-keyboard-response","319","649383","0.0-13.0-0.36","cTbgEnL1fJ","61632b52ab37a7fde834300f","6617fad957f7c6a12ea16e26","6622cb9b500b1ee2fa2ccf00","fixation cross","null","","","","","","","","","","","",""
"","1445","html-keyboard-response","320","650828","0.0-13.0-1.36","cTbgEnL1fJ","61632b52ab37a7fde834300f","6617fad957f7c6a12ea16e26","6622cb9b500b1ee2fa2ccf00","image grid","q","","","","","Ontogenetic_Distractor_Threat_target","ongrid","2500","q","9","Ontogenetic","true","experimental"
"","null","html-keyboard-response","321","650980","0.0-13.0-2.36","cTbgEnL1fJ","61632b52ab37a7fde834300f","6617fad957f7c6a12ea16e26","6622cb9b500b1ee2fa2ccf00","
    <div id=""grid-container"">
        <!-- Grid items will be dynamically added here -->
    </div>    ","null","","","","","","","","","","","",""
"","null","html-keyboard-response","322","651681","0.0-13.0-0.37","cTbgEnL1fJ","61632b52ab37a7fde834300f","6617fad957f7c6a12ea16e26","6622cb9b500b1ee2fa2ccf00","fixation cross","null","","","","","","","","","","","",""
"","1476","html-keyboard-response","323","653158","0.0-13.0-1.37","cTbgEnL1fJ","61632b52ab37a7fde834300f","6617fad957f7c6a12ea16e26","6622cb9b500b1ee2fa2ccf00","image grid","q","","","","","Ontogenetic_Distractor_Threat_target","ongrid","2500","q","5","Ontogenetic","true","experimental"
"","null","html-keyboard-response","324","653324","0.0-13.0-2.37","cTbgEnL1fJ","61632b52ab37a7fde834300f","6617fad957f7c6a12ea16e26","6622cb9b500b1ee2fa2ccf00","
    <div id=""grid-container"">
        <!-- Grid items will be dynamically added here -->
    </div>    ","null","","","","","","","","","","","",""
"","null","html-keyboard-response","325","654035","0.0-13.0-0.38","cTbgEnL1fJ","61632b52ab37a7fde834300f","6617fad957f7c6a12ea16e26","6622cb9b500b1ee2fa2ccf00","fixation cross","null","","","","","","","","","","","",""
"","1857","html-keyboard-response","326","655893","0.0-13.0-1.38","cTbgEnL1fJ","61632b52ab37a7fde834300f","6617fad957f7c6a12ea16e26","6622cb9b500b1ee2fa2ccf00","image grid","q","","","","","Ontogenetic_Distractor_Threat_target","ongrid","2500","q","4","Ontogenetic","true","experimental"
"","null","html-keyboard-response","327","656060","0.0-13.0-2.38","cTbgEnL1fJ","61632b52ab37a7fde834300f","6617fad957f7c6a12ea16e26","6622cb9b500b1ee2fa2ccf00","
    <div id=""grid-container"">
        <!-- Grid items will be dynamically added here -->
    </div>    ","null","","","","","","","","","","","",""
"","null","html-keyboard-response","328","656775","0.0-13.0-0.39","cTbgEnL1fJ","61632b52ab37a7fde834300f","6617fad957f7c6a12ea16e26","6622cb9b500b1ee2fa2ccf00","fixation cross","null","","","","","","","","","","","",""
"","1977","html-keyboard-response","329","658752","0.0-13.0-1.39","cTbgEnL1fJ","61632b52ab37a7fde834300f","6617fad957f7c6a12ea16e26","6622cb9b500b1ee2fa2ccf00","image grid","q","","","","","Ontogenetic_Distractor_Threat_target","ongrid","2500","q","9","Ontogenetic","true","experimental"
"","null","html-keyboard-response","330","658919","0.0-13.0-2.39","cTbgEnL1fJ","61632b52ab37a7fde834300f","6617fad957f7c6a12ea16e26","6622cb9b500b1ee2fa2ccf00","
    <div id=""grid-container"">
        <!-- Grid items will be dynamically added here -->
    </div>    ","null","","","","","","","","","","","",""
"","103312","html-keyboard-response","331","762435","0.0-14.0","cTbgEnL1fJ","61632b52ab37a7fde834300f","6617fad957f7c6a12ea16e26","6622cb9b500b1ee2fa2ccf00","break screen"," ","","","","","","","","","","","",""
"","null","html-keyboard-response","332","764950","0.0-15.0-0.0","cTbgEnL1fJ","61632b52ab37a7fde834300f","6617fad957f7c6a12ea16e26","6622cb9b500b1ee2fa2ccf00","fixation cross","null","","","","","","","","","","","",""
"","null","html-keyboard-response","333","765759","0.0-15.0-1.0","cTbgEnL1fJ","61632b52ab37a7fde834300f","6617fad957f7c6a12ea16e26","6622cb9b500b1ee2fa2ccf00","
        <div id=""grid-container"">
        <!-- Grid items will be dynamically added here -->
    </div>    ","null","","","","","","","","","","","",""
"","1469","html-keyboard-response","334","766429","0.0-15.0-2.0","cTbgEnL1fJ","61632b52ab37a7fde834300f","6617fad957f7c6a12ea16e26","6622cb9b500b1ee2fa2ccf00","mask grid","p","","","","","Ontogenetic_Distractor_Nonthreat_target","onmask","800","p","7","Ontogenetic","true","experimental"
"","null","html-keyboard-response","335","767140","0.0-15.0-0.1","cTbgEnL1fJ","61632b52ab37a7fde834300f","6617fad957f7c6a12ea16e26","6622cb9b500b1ee2fa2ccf00","fixation cross","null","","","","","","","","","","","",""
"","null","html-keyboard-response","336","767948","0.0-15.0-1.1","cTbgEnL1fJ","61632b52ab37a7fde834300f","6617fad957f7c6a12ea16e26","6622cb9b500b1ee2fa2ccf00","
        <div id=""grid-container"">
        <!-- Grid items will be dynamically added here -->
    </div>    ","null","","","","","","","","","","","",""
"","1184","html-keyboard-response","337","768333","0.0-15.0-2.1","cTbgEnL1fJ","61632b52ab37a7fde834300f","6617fad957f7c6a12ea16e26","6622cb9b500b1ee2fa2ccf00","mask grid","p","","","","","Ontogenetic_Distractor_Nonthreat_target","onmask","800","p","4","Ontogenetic","true","experimental"
"","null","html-keyboard-response","338","769039","0.0-15.0-0.2","cTbgEnL1fJ","61632b52ab37a7fde834300f","6617fad957f7c6a12ea16e26","6622cb9b500b1ee2fa2ccf00","fixation cross","null","","","","","","","","","","","",""
"","null","html-keyboard-response","339","769853","0.0-15.0-1.2","cTbgEnL1fJ","61632b52ab37a7fde834300f","6617fad957f7c6a12ea16e26","6622cb9b500b1ee2fa2ccf00","
        <div id=""grid-container"">
        <!-- Grid items will be dynamically added here -->
    </div>    ","null","","","","","","","","","","","",""
"","1641","html-keyboard-response","340","770695","0.0-15.0-2.2","cTbgEnL1fJ","61632b52ab37a7fde834300f","6617fad957f7c6a12ea16e26","6622cb9b500b1ee2fa2ccf00","mask grid","q","","","","","Ontogenetic_Distractor_Threat_target","onmask","800","q","9","Ontogenetic","true","experimental"
"","null","html-keyboard-response","341","771411","0.0-15.0-0.3","cTbgEnL1fJ","61632b52ab37a7fde834300f","6617fad957f7c6a12ea16e26","6622cb9b500b1ee2fa2ccf00","fixation cross","null","","","","","","","","","","","",""
"","null","html-keyboard-response","342","772213","0.0-15.0-1.3","cTbgEnL1fJ","61632b52ab37a7fde834300f","6617fad957f7c6a12ea16e26","6622cb9b500b1ee2fa2ccf00","
        <div id=""grid-container"">
        <!-- Grid items will be dynamically added here -->
    </div>    ","null","","","","","","","","","","","",""
"","2148","html-keyboard-response","343","773562","0.0-15.0-2.3","cTbgEnL1fJ","61632b52ab37a7fde834300f","6617fad957f7c6a12ea16e26","6622cb9b500b1ee2fa2ccf00","mask grid","p","","","","","Ontogenetic_Distractor_Nonthreat_target","onmask","800","p","4","Ontogenetic","true","experimental"
"","null","html-keyboard-response","344","774291","0.0-15.0-0.4","cTbgEnL1fJ","61632b52ab37a7fde834300f","6617fad957f7c6a12ea16e26","6622cb9b500b1ee2fa2ccf00","fixation cross","null","","","","","","","","","","","",""
"","null","html-keyboard-response","345","775105","0.0-15.0-1.4","cTbgEnL1fJ","61632b52ab37a7fde834300f","6617fad957f7c6a12ea16e26","6622cb9b500b1ee2fa2ccf00","
        <div id=""grid-container"">
        <!-- Grid items will be dynamically added here -->
    </div>    ","null","","","","","","","","","","","",""
"","1182","html-keyboard-response","346","775488","0.0-15.0-2.4","cTbgEnL1fJ","61632b52ab37a7fde834300f","6617fad957f7c6a12ea16e26","6622cb9b500b1ee2fa2ccf00","mask grid","p","","","","","Ontogenetic_Distractor_Nonthreat_target","onmask","800","p","1","Ontogenetic","true","experimental"
"","null","html-keyboard-response","347","776191","0.0-15.0-0.5","cTbgEnL1fJ","61632b52ab37a7fde834300f","6617fad957f7c6a12ea16e26","6622cb9b500b1ee2fa2ccf00","fixation cross","null","","","","","","","","","","","",""
"","null","html-keyboard-response","348","776994","0.0-15.0-1.5","cTbgEnL1fJ","61632b52ab37a7fde834300f","6617fad957f7c6a12ea16e26","6622cb9b500b1ee2fa2ccf00","
        <div id=""grid-container"">
        <!-- Grid items will be dynamically added here -->
    </div>    ","null","","","","","","","","","","","",""
"","2176","html-keyboard-response","349","778371","0.0-15.0-2.5","cTbgEnL1fJ","61632b52ab37a7fde834300f","6617fad957f7c6a12ea16e26","6622cb9b500b1ee2fa2ccf00","mask grid"," ","","","","","Ontogenetic_Distractor_notarget","onmask","800"," ","1","Ontogenetic","true","experimental"
"","null","html-keyboard-response","350","779085","0.0-15.0-0.6","cTbgEnL1fJ","61632b52ab37a7fde834300f","6617fad957f7c6a12ea16e26","6622cb9b500b1ee2fa2ccf00","fixation cross","null","","","","","","","","","","","",""
"","null","html-keyboard-response","351","779901","0.0-15.0-1.6","cTbgEnL1fJ","61632b52ab37a7fde834300f","6617fad957f7c6a12ea16e26","6622cb9b500b1ee2fa2ccf00","
        <div id=""grid-container"">
        <!-- Grid items will be dynamically added here -->
    </div>    ","null","","","","","","","","","","","",""
"","1291","html-keyboard-response","352","780393","0.0-15.0-2.6","cTbgEnL1fJ","61632b52ab37a7fde834300f","6617fad957f7c6a12ea16e26","6622cb9b500b1ee2fa2ccf00","mask grid","p","","","","","Ontogenetic_Distractor_Nonthreat_target","onmask","800","p","6","Ontogenetic","true","experimental"
"","null","html-keyboard-response","353","781104","0.0-15.0-0.7","cTbgEnL1fJ","61632b52ab37a7fde834300f","6617fad957f7c6a12ea16e26","6622cb9b500b1ee2fa2ccf00","fixation cross","null","","","","","","","","","","","",""
"","null","html-keyboard-response","354","781919","0.0-15.0-1.7","cTbgEnL1fJ","61632b52ab37a7fde834300f","6617fad957f7c6a12ea16e26","6622cb9b500b1ee2fa2ccf00","
        <div id=""grid-container"">
        <!-- Grid items will be dynamically added here -->
    </div>    ","null","","","","","","","","","","","",""
"","1199","html-keyboard-response","355","782318","0.0-15.0-2.7","cTbgEnL1fJ","61632b52ab37a7fde834300f","6617fad957f7c6a12ea16e26","6622cb9b500b1ee2fa2ccf00","mask grid","q","","","","","Ontogenetic_Distractor_Threat_target","onmask","800","q","9","Ontogenetic","true","experimental"
"","null","html-keyboard-response","356","783037","0.0-15.0-0.8","cTbgEnL1fJ","61632b52ab37a7fde834300f","6617fad957f7c6a12ea16e26","6622cb9b500b1ee2fa2ccf00","fixation cross","null","","","","","","","","","","","",""
"","null","html-keyboard-response","357","783852","0.0-15.0-1.8","cTbgEnL1fJ","61632b52ab37a7fde834300f","6617fad957f7c6a12ea16e26","6622cb9b500b1ee2fa2ccf00","
        <div id=""grid-container"">
        <!-- Grid items will be dynamically added here -->
    </div>    ","null","","","","","","","","","","","",""
"","1465","html-keyboard-response","358","784518","0.0-15.0-2.8","cTbgEnL1fJ","61632b52ab37a7fde834300f","6617fad957f7c6a12ea16e26","6622cb9b500b1ee2fa2ccf00","mask grid","q","","","","","Ontogenetic_Distractor_Threat_target","onmask","800","q","4","Ontogenetic","true","experimental"
"","null","html-keyboard-response","359","785244","0.0-15.0-0.9","cTbgEnL1fJ","61632b52ab37a7fde834300f","6617fad957f7c6a12ea16e26","6622cb9b500b1ee2fa2ccf00","fixation cross","null","","","","","","","","","","","",""
"","null","html-keyboard-response","360","786059","0.0-15.0-1.9","cTbgEnL1fJ","61632b52ab37a7fde834300f","6617fad957f7c6a12ea16e26","6622cb9b500b1ee2fa2ccf00","
        <div id=""grid-container"">
        <!-- Grid items will be dynamically added here -->
    </div>    ","null","","","","","","","","","","","",""
"","1588","html-keyboard-response","361","786847","0.0-15.0-2.9","cTbgEnL1fJ","61632b52ab37a7fde834300f","6617fad957f7c6a12ea16e26","6622cb9b500b1ee2fa2ccf00","mask grid","p","","","","","Ontogenetic_Distractor_Threat_target","onmask","800","q","7","Ontogenetic","false","experimental"
"","239","html-keyboard-response","362","787576","0.0-15.0-0.10","cTbgEnL1fJ","61632b52ab37a7fde834300f","6617fad957f7c6a12ea16e26","6622cb9b500b1ee2fa2ccf00","fixation cross","q","","","","","","","","","","","",""
"","null","html-keyboard-response","363","788388","0.0-15.0-1.10","cTbgEnL1fJ","61632b52ab37a7fde834300f","6617fad957f7c6a12ea16e26","6622cb9b500b1ee2fa2ccf00","
        <div id=""grid-container"">
        <!-- Grid items will be dynamically added here -->
    </div>    ","null","","","","","","","","","","","",""
"","800","html-keyboard-response","364","793402","0.0-15.0-2.10","cTbgEnL1fJ","61632b52ab37a7fde834300f","6617fad957f7c6a12ea16e26","6622cb9b500b1ee2fa2ccf00","mask grid","null","","","","","Ontogenetic_Distractor_Threat_target","onmask","800","q","5","Ontogenetic","false","experimental"
"","null","html-keyboard-response","365","794110","0.0-15.0-0.11","cTbgEnL1fJ","61632b52ab37a7fde834300f","6617fad957f7c6a12ea16e26","6622cb9b500b1ee2fa2ccf00","fixation cross","null","","","","","","","","","","","",""
"","null","html-keyboard-response","366","794923","0.0-15.0-1.11","cTbgEnL1fJ","61632b52ab37a7fde834300f","6617fad957f7c6a12ea16e26","6622cb9b500b1ee2fa2ccf00","
        <div id=""grid-container"">
        <!-- Grid items will be dynamically added here -->
    </div>    ","null","","","","","","","","","","","",""
"","1406","html-keyboard-response","367","795530","0.0-15.0-2.11","cTbgEnL1fJ","61632b52ab37a7fde834300f","6617fad957f7c6a12ea16e26","6622cb9b500b1ee2fa2ccf00","mask grid","q","","","","","Ontogenetic_Distractor_Threat_target","onmask","800","q","9","Ontogenetic","true","experimental"
"","null","html-keyboard-response","368","796253","0.0-15.0-0.12","cTbgEnL1fJ","61632b52ab37a7fde834300f","6617fad957f7c6a12ea16e26","6622cb9b500b1ee2fa2ccf00","fixation cross","null","","","","","","","","","","","",""
"","null","html-keyboard-response","369","797060","0.0-15.0-1.12","cTbgEnL1fJ","61632b52ab37a7fde834300f","6617fad957f7c6a12ea16e26","6622cb9b500b1ee2fa2ccf00","
        <div id=""grid-container"">
        <!-- Grid items will be dynamically added here -->
    </div>    ","null","","","","","","","","","","","",""
