"success","rt","trial_type","trial_index","time_elapsed","internal_node_id","unique_identifier","subject_id","study_id","session_id","stimulus","response","timeout","failed_images","failed_audio","failed_video","task","time_manipulation","respondedwhen","correctresponse","targetimagelocation","blocktype","correct","roundtype"
"true","2251","fullscreen","0","3255","0.0-0.0","HiJEVLSaHw","65cb9e95bef5cb1d18b8517a","6617fad957f7c6a12ea16e26","6622cabf02abddf663c3d342","","","","","","","","","","","","","",""
"","6280","html-keyboard-response","1","9538","0.0-1.0","HiJEVLSaHw","65cb9e95bef5cb1d18b8517a","6617fad957f7c6a12ea16e26","6622cabf02abddf663c3d342","instruction screen 0"," ","","","","","","","","","","","",""
"true","","preload","2","11969","0.0-2.0","HiJEVLSaHw","65cb9e95bef5cb1d18b8517a","6617fad957f7c6a12ea16e26","6622cabf02abddf663c3d342","","","false","[]","[]","[]","","","","","","","",""
"","9790","html-keyboard-response","3","21760","0.0-3.0","HiJEVLSaHw","65cb9e95bef5cb1d18b8517a","6617fad957f7c6a12ea16e26","6622cabf02abddf663c3d342","instruction screen 1"," ","","","","","","","","","","","",""
"","5323","html-keyboard-response","4","27088","0.0-4.0","HiJEVLSaHw","65cb9e95bef5cb1d18b8517a","6617fad957f7c6a12ea16e26","6622cabf02abddf663c3d342","instruction screen 2","q","","","","","","","","","","","",""
"","2763","html-keyboard-response","5","29858","0.0-5.0","HiJEVLSaHw","65cb9e95bef5cb1d18b8517a","6617fad957f7c6a12ea16e26","6622cabf02abddf663c3d342","instruction screen 3","p","","","","","","","","","","","",""
"","2880","html-keyboard-response","6","32743","0.0-6.0","HiJEVLSaHw","65cb9e95bef5cb1d18b8517a","6617fad957f7c6a12ea16e26","6622cabf02abddf663c3d342","instruction screen 4"," ","","","","","","","","","","","",""
"","6945","html-keyboard-response","7","39693","0.0-7.0","HiJEVLSaHw","65cb9e95bef5cb1d18b8517a","6617fad957f7c6a12ea16e26","6622cabf02abddf663c3d342","instruction screen 5"," ","","","","","","","","","","","",""
"","null","html-keyboard-response","8","40198","0.0-8.0","HiJEVLSaHw","65cb9e95bef5cb1d18b8517a","6617fad957f7c6a12ea16e26","6622cabf02abddf663c3d342","fixation cross","null","","","","","","","","","","","",""
"","null","html-keyboard-response","9","40700","0.0-9.0-0.0","HiJEVLSaHw","65cb9e95bef5cb1d18b8517a","6617fad957f7c6a12ea16e26","6622cabf02abddf663c3d342","fixation cross","null","","","","","","","","","","","",""
"","1167","html-keyboard-response","10","41868","0.0-9.0-1.0","HiJEVLSaHw","65cb9e95bef5cb1d18b8517a","6617fad957f7c6a12ea16e26","6622cabf02abddf663c3d342","image grid","p","","","","","Phylogenetic_Distractor_Nonthreat_target","3000","ongrid","p","4","Phylogenetic","true","practice"
"","null","html-keyboard-response","11","42020","0.0-9.0-2.0","HiJEVLSaHw","65cb9e95bef5cb1d18b8517a","6617fad957f7c6a12ea16e26","6622cabf02abddf663c3d342","
    <div id=""grid-container"">
        <!-- Grid items will be dynamically added here -->
    </div>    ","null","","","","","","","","","","","",""
"","null","html-keyboard-response","12","43225","0.0-9.0-3.0","HiJEVLSaHw","65cb9e95bef5cb1d18b8517a","6617fad957f7c6a12ea16e26","6622cabf02abddf663c3d342","feedback screen","null","","","","","","","","","","","",""
"","null","html-keyboard-response","13","43732","0.0-9.0-0.1","HiJEVLSaHw","65cb9e95bef5cb1d18b8517a","6617fad957f7c6a12ea16e26","6622cabf02abddf663c3d342","fixation cross","null","","","","","","","","","","","",""
"","826","html-keyboard-response","14","44558","0.0-9.0-1.1","HiJEVLSaHw","65cb9e95bef5cb1d18b8517a","6617fad957f7c6a12ea16e26","6622cabf02abddf663c3d342","image grid","q","","","","","Ontogenetic_Distractor_Threat_target","2900","ongrid","q","5","Phylogenetic","true","practice"
"","null","html-keyboard-response","15","44710","0.0-9.0-2.1","HiJEVLSaHw","65cb9e95bef5cb1d18b8517a","6617fad957f7c6a12ea16e26","6622cabf02abddf663c3d342","
    <div id=""grid-container"">
        <!-- Grid items will be dynamically added here -->
    </div>    ","null","","","","","","","","","","","",""
"","null","html-keyboard-response","16","45915","0.0-9.0-3.1","HiJEVLSaHw","65cb9e95bef5cb1d18b8517a","6617fad957f7c6a12ea16e26","6622cabf02abddf663c3d342","feedback screen","null","","","","","","","","","","","",""
"","null","html-keyboard-response","17","46422","0.0-9.0-0.2","HiJEVLSaHw","65cb9e95bef5cb1d18b8517a","6617fad957f7c6a12ea16e26","6622cabf02abddf663c3d342","fixation cross","null","","","","","","","","","","","",""
"","1292","html-keyboard-response","18","47714","0.0-9.0-1.2","HiJEVLSaHw","65cb9e95bef5cb1d18b8517a","6617fad957f7c6a12ea16e26","6622cabf02abddf663c3d342","image grid","p","","","","","Phylogenetic_Distractor_Threat_target","2800","ongrid","q","9","Phylogenetic","false","practice"
"","null","html-keyboard-response","19","47867","0.0-9.0-2.2","HiJEVLSaHw","65cb9e95bef5cb1d18b8517a","6617fad957f7c6a12ea16e26","6622cabf02abddf663c3d342","
    <div id=""grid-container"">
        <!-- Grid items will be dynamically added here -->
    </div>    ","null","","","","","","","","","","","",""
"","null","html-keyboard-response","20","49072","0.0-9.0-3.2","HiJEVLSaHw","65cb9e95bef5cb1d18b8517a","6617fad957f7c6a12ea16e26","6622cabf02abddf663c3d342","feedback screen","null","","","","","","","","","","","",""
"","null","html-keyboard-response","21","49579","0.0-9.0-0.3","HiJEVLSaHw","65cb9e95bef5cb1d18b8517a","6617fad957f7c6a12ea16e26","6622cabf02abddf663c3d342","fixation cross","null","","","","","","","","","","","",""
"","1815","html-keyboard-response","22","51395","0.0-9.0-1.3","HiJEVLSaHw","65cb9e95bef5cb1d18b8517a","6617fad957f7c6a12ea16e26","6622cabf02abddf663c3d342","image grid"," ","","","","","Phylogenetic_Distractor_notarget","2700","ongrid"," ","3","Phylogenetic","true","practice"
"","null","html-keyboard-response","23","51547","0.0-9.0-2.3","HiJEVLSaHw","65cb9e95bef5cb1d18b8517a","6617fad957f7c6a12ea16e26","6622cabf02abddf663c3d342","
    <div id=""grid-container"">
        <!-- Grid items will be dynamically added here -->
    </div>    ","null","","","","","","","","","","","",""
"","null","html-keyboard-response","24","52751","0.0-9.0-3.3","HiJEVLSaHw","65cb9e95bef5cb1d18b8517a","6617fad957f7c6a12ea16e26","6622cabf02abddf663c3d342","feedback screen","null","","","","","","","","","","","",""
"","null","html-keyboard-response","25","53258","0.0-9.0-0.4","HiJEVLSaHw","65cb9e95bef5cb1d18b8517a","6617fad957f7c6a12ea16e26","6622cabf02abddf663c3d342","fixation cross","null","","","","","","","","","","","",""
"","721","html-keyboard-response","26","53979","0.0-9.0-1.4","HiJEVLSaHw","65cb9e95bef5cb1d18b8517a","6617fad957f7c6a12ea16e26","6622cabf02abddf663c3d342","image grid","q","","","","","Ontogenetic_Distractor_Threat_target","2600","ongrid","q","5","Phylogenetic","true","practice"
"","null","html-keyboard-response","27","54131","0.0-9.0-2.4","HiJEVLSaHw","65cb9e95bef5cb1d18b8517a","6617fad957f7c6a12ea16e26","6622cabf02abddf663c3d342","
    <div id=""grid-container"">
        <!-- Grid items will be dynamically added here -->
    </div>    ","null","","","","","","","","","","","",""
"","null","html-keyboard-response","28","55336","0.0-9.0-3.4","HiJEVLSaHw","65cb9e95bef5cb1d18b8517a","6617fad957f7c6a12ea16e26","6622cabf02abddf663c3d342","feedback screen","null","","","","","","","","","","","",""
"","null","html-keyboard-response","29","55843","0.0-9.0-0.5","HiJEVLSaHw","65cb9e95bef5cb1d18b8517a","6617fad957f7c6a12ea16e26","6622cabf02abddf663c3d342","fixation cross","null","","","","","","","","","","","",""
"","1107","html-keyboard-response","30","56951","0.0-9.0-1.5","HiJEVLSaHw","65cb9e95bef5cb1d18b8517a","6617fad957f7c6a12ea16e26","6622cabf02abddf663c3d342","image grid","p","","","","","Ontogenetic_Distractor_Nonthreat_target","2500","ongrid","p","6","Phylogenetic","true","practice"
"","null","html-keyboard-response","31","57103","0.0-9.0-2.5","HiJEVLSaHw","65cb9e95bef5cb1d18b8517a","6617fad957f7c6a12ea16e26","6622cabf02abddf663c3d342","
    <div id=""grid-container"">
        <!-- Grid items will be dynamically added here -->
    </div>    ","null","","","","","","","","","","","",""
"","null","html-keyboard-response","32","58308","0.0-9.0-3.5","HiJEVLSaHw","65cb9e95bef5cb1d18b8517a","6617fad957f7c6a12ea16e26","6622cabf02abddf663c3d342","feedback screen","null","","","","","","","","","","","",""
"","null","html-keyboard-response","33","58815","0.0-9.0-0.6","HiJEVLSaHw","65cb9e95bef5cb1d18b8517a","6617fad957f7c6a12ea16e26","6622cabf02abddf663c3d342","fixation cross","null","","","","","","","","","","","",""
"","1560","html-keyboard-response","34","60375","0.0-9.0-1.6","HiJEVLSaHw","65cb9e95bef5cb1d18b8517a","6617fad957f7c6a12ea16e26","6622cabf02abddf663c3d342","image grid","p","","","","","Phylogenetic_Distractor_Nonthreat_target","2400","ongrid","p","8","Phylogenetic","true","practice"
"","null","html-keyboard-response","35","60528","0.0-9.0-2.6","HiJEVLSaHw","65cb9e95bef5cb1d18b8517a","6617fad957f7c6a12ea16e26","6622cabf02abddf663c3d342","
    <div id=""grid-container"">
        <!-- Grid items will be dynamically added here -->
    </div>    ","null","","","","","","","","","","","",""
"","null","html-keyboard-response","36","61731","0.0-9.0-3.6","HiJEVLSaHw","65cb9e95bef5cb1d18b8517a","6617fad957f7c6a12ea16e26","6622cabf02abddf663c3d342","feedback screen","null","","","","","","","","","","","",""
"","null","html-keyboard-response","37","62238","0.0-9.0-0.7","HiJEVLSaHw","65cb9e95bef5cb1d18b8517a","6617fad957f7c6a12ea16e26","6622cabf02abddf663c3d342","fixation cross","null","","","","","","","","","","","",""
"","725","html-keyboard-response","38","62964","0.0-9.0-1.7","HiJEVLSaHw","65cb9e95bef5cb1d18b8517a","6617fad957f7c6a12ea16e26","6622cabf02abddf663c3d342","image grid","q","","","","","Ontogenetic_Distractor_Threat_target","2300","ongrid","q","8","Phylogenetic","true","practice"
"","null","html-keyboard-response","39","63117","0.0-9.0-2.7","HiJEVLSaHw","65cb9e95bef5cb1d18b8517a","6617fad957f7c6a12ea16e26","6622cabf02abddf663c3d342","
    <div id=""grid-container"">
        <!-- Grid items will be dynamically added here -->
    </div>    ","null","","","","","","","","","","","",""
"","null","html-keyboard-response","40","64320","0.0-9.0-3.7","HiJEVLSaHw","65cb9e95bef5cb1d18b8517a","6617fad957f7c6a12ea16e26","6622cabf02abddf663c3d342","feedback screen","null","","","","","","","","","","","",""
"","null","html-keyboard-response","41","64827","0.0-9.0-0.8","HiJEVLSaHw","65cb9e95bef5cb1d18b8517a","6617fad957f7c6a12ea16e26","6622cabf02abddf663c3d342","fixation cross","null","","","","","","","","","","","",""
"","1027","html-keyboard-response","42","65856","0.0-9.0-1.8","HiJEVLSaHw","65cb9e95bef5cb1d18b8517a","6617fad957f7c6a12ea16e26","6622cabf02abddf663c3d342","image grid","q","","","","","Phylogenetic_Distractor_Threat_target","2200","ongrid","q","1","Phylogenetic","true","practice"
"","null","html-keyboard-response","43","66008","0.0-9.0-2.8","HiJEVLSaHw","65cb9e95bef5cb1d18b8517a","6617fad957f7c6a12ea16e26","6622cabf02abddf663c3d342","
    <div id=""grid-container"">
        <!-- Grid items will be dynamically added here -->
    </div>    ","null","","","","","","","","","","","",""
"","null","html-keyboard-response","44","67213","0.0-9.0-3.8","HiJEVLSaHw","65cb9e95bef5cb1d18b8517a","6617fad957f7c6a12ea16e26","6622cabf02abddf663c3d342","feedback screen","null","","","","","","","","","","","",""
"","null","html-keyboard-response","45","67720","0.0-9.0-0.9","HiJEVLSaHw","65cb9e95bef5cb1d18b8517a","6617fad957f7c6a12ea16e26","6622cabf02abddf663c3d342","fixation cross","null","","","","","","","","","","","",""
"","null","html-keyboard-response","46","69822","0.0-9.0-1.9","HiJEVLSaHw","65cb9e95bef5cb1d18b8517a","6617fad957f7c6a12ea16e26","6622cabf02abddf663c3d342","
        <div id=""grid-container"">
        <!-- Grid items will be dynamically added here -->
    </div>    ","null","","","","","","","","","","","",""
"","2115","html-keyboard-response","47","69838","0.0-9.0-2.9","HiJEVLSaHw","65cb9e95bef5cb1d18b8517a","6617fad957f7c6a12ea16e26","6622cabf02abddf663c3d342","mask grid","p","","","","","Phylogenetic_Distractor_Nonthreat_target","2100","onmask","p","8","Phylogenetic","true","practice"
"","null","html-keyboard-response","48","71043","0.0-9.0-3.9","HiJEVLSaHw","65cb9e95bef5cb1d18b8517a","6617fad957f7c6a12ea16e26","6622cabf02abddf663c3d342","feedback screen","null","","","","","","","","","","","",""
"","null","html-keyboard-response","49","71550","0.0-9.0-0.10","HiJEVLSaHw","65cb9e95bef5cb1d18b8517a","6617fad957f7c6a12ea16e26","6622cabf02abddf663c3d342","fixation cross","null","","","","","","","","","","","",""
"","827","html-keyboard-response","50","72378","0.0-9.0-1.10","HiJEVLSaHw","65cb9e95bef5cb1d18b8517a","6617fad957f7c6a12ea16e26","6622cabf02abddf663c3d342","image grid","p","","","","","Ontogenetic_Distractor_Nonthreat_target","2000","ongrid","p","5","Phylogenetic","true","practice"
"","null","html-keyboard-response","51","72530","0.0-9.0-2.10","HiJEVLSaHw","65cb9e95bef5cb1d18b8517a","6617fad957f7c6a12ea16e26","6622cabf02abddf663c3d342","
    <div id=""grid-container"">
        <!-- Grid items will be dynamically added here -->
    </div>    ","null","","","","","","","","","","","",""
"","null","html-keyboard-response","52","73735","0.0-9.0-3.10","HiJEVLSaHw","65cb9e95bef5cb1d18b8517a","6617fad957f7c6a12ea16e26","6622cabf02abddf663c3d342","feedback screen","null","","","","","","","","","","","",""
"","null","html-keyboard-response","53","74241","0.0-9.0-0.11","HiJEVLSaHw","65cb9e95bef5cb1d18b8517a","6617fad957f7c6a12ea16e26","6622cabf02abddf663c3d342","fixation cross","null","","","","","","","","","","","",""
"","null","html-keyboard-response","54","76145","0.0-9.0-1.11","HiJEVLSaHw","65cb9e95bef5cb1d18b8517a","6617fad957f7c6a12ea16e26","6622cabf02abddf663c3d342","
        <div id=""grid-container"">
        <!-- Grid items will be dynamically added here -->
    </div>    ","null","","","","","","","","","","","",""
"","2347","html-keyboard-response","55","76593","0.0-9.0-2.11","HiJEVLSaHw","65cb9e95bef5cb1d18b8517a","6617fad957f7c6a12ea16e26","6622cabf02abddf663c3d342","mask grid"," ","","","","","Phylogenetic_Distractor_notarget","1900","onmask"," ","6","Phylogenetic","true","practice"
"","null","html-keyboard-response","56","77797","0.0-9.0-3.11","HiJEVLSaHw","65cb9e95bef5cb1d18b8517a","6617fad957f7c6a12ea16e26","6622cabf02abddf663c3d342","feedback screen","null","","","","","","","","","","","",""
"","null","html-keyboard-response","57","78304","0.0-9.0-0.12","HiJEVLSaHw","65cb9e95bef5cb1d18b8517a","6617fad957f7c6a12ea16e26","6622cabf02abddf663c3d342","fixation cross","null","","","","","","","","","","","",""
"","754","html-keyboard-response","58","79059","0.0-9.0-1.12","HiJEVLSaHw","65cb9e95bef5cb1d18b8517a","6617fad957f7c6a12ea16e26","6622cabf02abddf663c3d342","image grid","q","","","","","Ontogenetic_Distractor_Threat_target","1800","ongrid","q","2","Phylogenetic","true","practice"
"","null","html-keyboard-response","59","79212","0.0-9.0-2.12","HiJEVLSaHw","65cb9e95bef5cb1d18b8517a","6617fad957f7c6a12ea16e26","6622cabf02abddf663c3d342","
    <div id=""grid-container"">
        <!-- Grid items will be dynamically added here -->
    </div>    ","null","","","","","","","","","","","",""
"","null","html-keyboard-response","60","80417","0.0-9.0-3.12","HiJEVLSaHw","65cb9e95bef5cb1d18b8517a","6617fad957f7c6a12ea16e26","6622cabf02abddf663c3d342","feedback screen","null","","","","","","","","","","","",""
"","null","html-keyboard-response","61","80924","0.0-9.0-0.13","HiJEVLSaHw","65cb9e95bef5cb1d18b8517a","6617fad957f7c6a12ea16e26","6622cabf02abddf663c3d342","fixation cross","null","","","","","","","","","","","",""
"","1179","html-keyboard-response","62","82103","0.0-9.0-1.13","HiJEVLSaHw","65cb9e95bef5cb1d18b8517a","6617fad957f7c6a12ea16e26","6622cabf02abddf663c3d342","image grid","q","","","","","Phylogenetic_Distractor_Threat_target","1700","ongrid","q","9","Phylogenetic","true","practice"
"","null","html-keyboard-response","63","82255","0.0-9.0-2.13","HiJEVLSaHw","65cb9e95bef5cb1d18b8517a","6617fad957f7c6a12ea16e26","6622cabf02abddf663c3d342","
    <div id=""grid-container"">
        <!-- Grid items will be dynamically added here -->
    </div>    ","null","","","","","","","","","","","",""
"","null","html-keyboard-response","64","83460","0.0-9.0-3.13","HiJEVLSaHw","65cb9e95bef5cb1d18b8517a","6617fad957f7c6a12ea16e26","6622cabf02abddf663c3d342","feedback screen","null","","","","","","","","","","","",""
"","null","html-keyboard-response","65","83966","0.0-9.0-0.14","HiJEVLSaHw","65cb9e95bef5cb1d18b8517a","6617fad957f7c6a12ea16e26","6622cabf02abddf663c3d342","fixation cross","null","","","","","","","","","","","",""
"","955","html-keyboard-response","66","84921","0.0-9.0-1.14","HiJEVLSaHw","65cb9e95bef5cb1d18b8517a","6617fad957f7c6a12ea16e26","6622cabf02abddf663c3d342","image grid"," ","","","","","Ontogenetic_Distractor_notarget","1600","ongrid"," ","3","Phylogenetic","true","practice"
"","null","html-keyboard-response","67","85074","0.0-9.0-2.14","HiJEVLSaHw","65cb9e95bef5cb1d18b8517a","6617fad957f7c6a12ea16e26","6622cabf02abddf663c3d342","
    <div id=""grid-container"">
        <!-- Grid items will be dynamically added here -->
    </div>    ","null","","","","","","","","","","","",""
"","null","html-keyboard-response","68","86279","0.0-9.0-3.14","HiJEVLSaHw","65cb9e95bef5cb1d18b8517a","6617fad957f7c6a12ea16e26","6622cabf02abddf663c3d342","feedback screen","null","","","","","","","","","","","",""
"","null","html-keyboard-response","69","86784","0.0-9.0-0.15","HiJEVLSaHw","65cb9e95bef5cb1d18b8517a","6617fad957f7c6a12ea16e26","6622cabf02abddf663c3d342","fixation cross","null","","","","","","","","","","","",""
"","887","html-keyboard-response","70","87671","0.0-9.0-1.15","HiJEVLSaHw","65cb9e95bef5cb1d18b8517a","6617fad957f7c6a12ea16e26","6622cabf02abddf663c3d342","image grid","p","","","","","Ontogenetic_Distractor_Nonthreat_target","1500","ongrid","p","9","Phylogenetic","true","practice"
"","null","html-keyboard-response","71","87824","0.0-9.0-2.15","HiJEVLSaHw","65cb9e95bef5cb1d18b8517a","6617fad957f7c6a12ea16e26","6622cabf02abddf663c3d342","
    <div id=""grid-container"">
        <!-- Grid items will be dynamically added here -->
    </div>    ","null","","","","","","","","","","","",""
"","null","html-keyboard-response","72","89029","0.0-9.0-3.15","HiJEVLSaHw","65cb9e95bef5cb1d18b8517a","6617fad957f7c6a12ea16e26","6622cabf02abddf663c3d342","feedback screen","null","","","","","","","","","","","",""
"","null","html-keyboard-response","73","89536","0.0-9.0-0.16","HiJEVLSaHw","65cb9e95bef5cb1d18b8517a","6617fad957f7c6a12ea16e26","6622cabf02abddf663c3d342","fixation cross","null","","","","","","","","","","","",""
"","1044","html-keyboard-response","74","90580","0.0-9.0-1.16","HiJEVLSaHw","65cb9e95bef5cb1d18b8517a","6617fad957f7c6a12ea16e26","6622cabf02abddf663c3d342","image grid","q","","","","","Phylogenetic_Distractor_Threat_target","1400","ongrid","q","1","Phylogenetic","true","practice"
"","null","html-keyboard-response","75","90733","0.0-9.0-2.16","HiJEVLSaHw","65cb9e95bef5cb1d18b8517a","6617fad957f7c6a12ea16e26","6622cabf02abddf663c3d342","
    <div id=""grid-container"">
        <!-- Grid items will be dynamically added here -->
    </div>    ","null","","","","","","","","","","","",""
"","null","html-keyboard-response","76","91938","0.0-9.0-3.16","HiJEVLSaHw","65cb9e95bef5cb1d18b8517a","6617fad957f7c6a12ea16e26","6622cabf02abddf663c3d342","feedback screen","null","","","","","","","","","","","",""
"","null","html-keyboard-response","77","92444","0.0-9.0-0.17","HiJEVLSaHw","65cb9e95bef5cb1d18b8517a","6617fad957f7c6a12ea16e26","6622cabf02abddf663c3d342","fixation cross","null","","","","","","","","","","","",""
"","null","html-keyboard-response","78","93747","0.0-9.0-1.17","HiJEVLSaHw","65cb9e95bef5cb1d18b8517a","6617fad957f7c6a12ea16e26","6622cabf02abddf663c3d342","
        <div id=""grid-container"">
        <!-- Grid items will be dynamically added here -->
    </div>    ","null","","","","","","","","","","","",""
"","1744","html-keyboard-response","79","94192","0.0-9.0-2.17","HiJEVLSaHw","65cb9e95bef5cb1d18b8517a","6617fad957f7c6a12ea16e26","6622cabf02abddf663c3d342","mask grid"," ","","","","","Ontogenetic_Distractor_notarget","1300","onmask"," ","3","Phylogenetic","true","practice"
"","null","html-keyboard-response","80","95397","0.0-9.0-3.17","HiJEVLSaHw","65cb9e95bef5cb1d18b8517a","6617fad957f7c6a12ea16e26","6622cabf02abddf663c3d342","feedback screen","null","","","","","","","","","","","",""
"","null","html-keyboard-response","81","95905","0.0-9.0-0.18","HiJEVLSaHw","65cb9e95bef5cb1d18b8517a","6617fad957f7c6a12ea16e26","6622cabf02abddf663c3d342","fixation cross","null","","","","","","","","","","","",""
"","785","html-keyboard-response","82","96691","0.0-9.0-1.18","HiJEVLSaHw","65cb9e95bef5cb1d18b8517a","6617fad957f7c6a12ea16e26","6622cabf02abddf663c3d342","image grid","p","","","","","Ontogenetic_Distractor_Nonthreat_target","1200","ongrid","p","4","Phylogenetic","true","practice"
"","null","html-keyboard-response","83","96844","0.0-9.0-2.18","HiJEVLSaHw","65cb9e95bef5cb1d18b8517a","6617fad957f7c6a12ea16e26","6622cabf02abddf663c3d342","
    <div id=""grid-container"">
        <!-- Grid items will be dynamically added here -->
    </div>    ","null","","","","","","","","","","","",""
"","null","html-keyboard-response","84","98048","0.0-9.0-3.18","HiJEVLSaHw","65cb9e95bef5cb1d18b8517a","6617fad957f7c6a12ea16e26","6622cabf02abddf663c3d342","feedback screen","null","","","","","","","","","","","",""
"","null","html-keyboard-response","85","98556","0.0-9.0-0.19","HiJEVLSaHw","65cb9e95bef5cb1d18b8517a","6617fad957f7c6a12ea16e26","6622cabf02abddf663c3d342","fixation cross","null","","","","","","","","","","","",""
"","null","html-keyboard-response","86","99659","0.0-9.0-1.19","HiJEVLSaHw","65cb9e95bef5cb1d18b8517a","6617fad957f7c6a12ea16e26","6622cabf02abddf663c3d342","
        <div id=""grid-container"">
        <!-- Grid items will be dynamically added here -->
    </div>    ","null","","","","","","","","","","","",""
"","1532","html-keyboard-response","87","100092","0.0-9.0-2.19","HiJEVLSaHw","65cb9e95bef5cb1d18b8517a","6617fad957f7c6a12ea16e26","6622cabf02abddf663c3d342","mask grid","p","","","","","Phylogenetic_Distractor_Nonthreat_target","1100","onmask","p","5","Phylogenetic","true","practice"
"","null","html-keyboard-response","88","101297","0.0-9.0-3.19","HiJEVLSaHw","65cb9e95bef5cb1d18b8517a","6617fad957f7c6a12ea16e26","6622cabf02abddf663c3d342","feedback screen","null","","","","","","","","","","","",""
"","7722","html-keyboard-response","89","109064","0.0-10.0","HiJEVLSaHw","65cb9e95bef5cb1d18b8517a","6617fad957f7c6a12ea16e26","6622cabf02abddf663c3d342","pre-experimental_briefing"," ","","","","","","","","","","","",""
"","null","html-keyboard-response","90","111607","0.0-11.0-0.0","HiJEVLSaHw","65cb9e95bef5cb1d18b8517a","6617fad957f7c6a12ea16e26","6622cabf02abddf663c3d342","fixation cross","null","","","","","","","","","","","",""
"","1416","html-keyboard-response","91","113024","0.0-11.0-1.0","HiJEVLSaHw","65cb9e95bef5cb1d18b8517a","6617fad957f7c6a12ea16e26","6622cabf02abddf663c3d342","image grid","q","","","","","Phylogenetic_Distractor_Threat_target","2500","ongrid","q","9","Phylogenetic","true","experimental"
"","null","html-keyboard-response","92","113177","0.0-11.0-2.0","HiJEVLSaHw","65cb9e95bef5cb1d18b8517a","6617fad957f7c6a12ea16e26","6622cabf02abddf663c3d342","
    <div id=""grid-container"">
        <!-- Grid items will be dynamically added here -->
    </div>    ","null","","","","","","","","","","","",""
"","null","html-keyboard-response","93","113881","0.0-11.0-0.1","HiJEVLSaHw","65cb9e95bef5cb1d18b8517a","6617fad957f7c6a12ea16e26","6622cabf02abddf663c3d342","fixation cross","null","","","","","","","","","","","",""
"","1716","html-keyboard-response","94","115598","0.0-11.0-1.1","HiJEVLSaHw","65cb9e95bef5cb1d18b8517a","6617fad957f7c6a12ea16e26","6622cabf02abddf663c3d342","image grid","p","","","","","Phylogenetic_Distractor_Nonthreat_target","2500","ongrid","p","9","Phylogenetic","true","experimental"
"","null","html-keyboard-response","95","115750","0.0-11.0-2.1","HiJEVLSaHw","65cb9e95bef5cb1d18b8517a","6617fad957f7c6a12ea16e26","6622cabf02abddf663c3d342","
    <div id=""grid-container"">
        <!-- Grid items will be dynamically added here -->
    </div>    ","null","","","","","","","","","","","",""
"","null","html-keyboard-response","96","116453","0.0-11.0-0.2","HiJEVLSaHw","65cb9e95bef5cb1d18b8517a","6617fad957f7c6a12ea16e26","6622cabf02abddf663c3d342","fixation cross","null","","","","","","","","","","","",""
"","874","html-keyboard-response","97","117328","0.0-11.0-1.2","HiJEVLSaHw","65cb9e95bef5cb1d18b8517a","6617fad957f7c6a12ea16e26","6622cabf02abddf663c3d342","image grid","q","","","","","Phylogenetic_Distractor_Threat_target","2500","ongrid","q","4","Phylogenetic","true","experimental"
"","null","html-keyboard-response","98","117479","0.0-11.0-2.2","HiJEVLSaHw","65cb9e95bef5cb1d18b8517a","6617fad957f7c6a12ea16e26","6622cabf02abddf663c3d342","
    <div id=""grid-container"">
        <!-- Grid items will be dynamically added here -->
    </div>    ","null","","","","","","","","","","","",""
"","null","html-keyboard-response","99","118184","0.0-11.0-0.3","HiJEVLSaHw","65cb9e95bef5cb1d18b8517a","6617fad957f7c6a12ea16e26","6622cabf02abddf663c3d342","fixation cross","null","","","","","","","","","","","",""
"","1684","html-keyboard-response","100","119869","0.0-11.0-1.3","HiJEVLSaHw","65cb9e95bef5cb1d18b8517a","6617fad957f7c6a12ea16e26","6622cabf02abddf663c3d342","image grid"," ","","","","","Phylogenetic_Distractor_notarget","2500","ongrid"," ","6","Phylogenetic","true","experimental"
"","null","html-keyboard-response","101","120021","0.0-11.0-2.3","HiJEVLSaHw","65cb9e95bef5cb1d18b8517a","6617fad957f7c6a12ea16e26","6622cabf02abddf663c3d342","
    <div id=""grid-container"">
        <!-- Grid items will be dynamically added here -->
    </div>    ","null","","","","","","","","","","","",""
"","null","html-keyboard-response","102","120725","0.0-11.0-0.4","HiJEVLSaHw","65cb9e95bef5cb1d18b8517a","6617fad957f7c6a12ea16e26","6622cabf02abddf663c3d342","fixation cross","null","","","","","","","","","","","",""
"","1291","html-keyboard-response","103","122017","0.0-11.0-1.4","HiJEVLSaHw","65cb9e95bef5cb1d18b8517a","6617fad957f7c6a12ea16e26","6622cabf02abddf663c3d342","image grid","p","","","","","Phylogenetic_Distractor_Nonthreat_target","2500","ongrid","p","8","Phylogenetic","true","experimental"
"","null","html-keyboard-response","104","122169","0.0-11.0-2.4","HiJEVLSaHw","65cb9e95bef5cb1d18b8517a","6617fad957f7c6a12ea16e26","6622cabf02abddf663c3d342","
    <div id=""grid-container"">
        <!-- Grid items will be dynamically added here -->
    </div>    ","null","","","","","","","","","","","",""
"","null","html-keyboard-response","105","122873","0.0-11.0-0.5","HiJEVLSaHw","65cb9e95bef5cb1d18b8517a","6617fad957f7c6a12ea16e26","6622cabf02abddf663c3d342","fixation cross","null","","","","","","","","","","","",""
"","1730","html-keyboard-response","106","124604","0.0-11.0-1.5","HiJEVLSaHw","65cb9e95bef5cb1d18b8517a","6617fad957f7c6a12ea16e26","6622cabf02abddf663c3d342","image grid","q","","","","","Phylogenetic_Distractor_Nonthreat_target","2500","ongrid","p","5","Phylogenetic","false","experimental"
"","null","html-keyboard-response","107","124756","0.0-11.0-2.5","HiJEVLSaHw","65cb9e95bef5cb1d18b8517a","6617fad957f7c6a12ea16e26","6622cabf02abddf663c3d342","
    <div id=""grid-container"">
        <!-- Grid items will be dynamically added here -->
    </div>    ","null","","","","","","","","","","","",""
"","null","html-keyboard-response","108","125459","0.0-11.0-0.6","HiJEVLSaHw","65cb9e95bef5cb1d18b8517a","6617fad957f7c6a12ea16e26","6622cabf02abddf663c3d342","fixation cross","null","","","","","","","","","","","",""
"","2430","html-keyboard-response","109","127890","0.0-11.0-1.6","HiJEVLSaHw","65cb9e95bef5cb1d18b8517a","6617fad957f7c6a12ea16e26","6622cabf02abddf663c3d342","image grid","p","","","","","Phylogenetic_Distractor_Nonthreat_target","2500","ongrid","p","3","Phylogenetic","true","experimental"
"","null","html-keyboard-response","110","128041","0.0-11.0-2.6","HiJEVLSaHw","65cb9e95bef5cb1d18b8517a","6617fad957f7c6a12ea16e26","6622cabf02abddf663c3d342","
    <div id=""grid-container"">
        <!-- Grid items will be dynamically added here -->
    </div>    ","null","","","","","","","","","","","",""
"","null","html-keyboard-response","111","128744","0.0-11.0-0.7","HiJEVLSaHw","65cb9e95bef5cb1d18b8517a","6617fad957f7c6a12ea16e26","6622cabf02abddf663c3d342","fixation cross","null","","","","","","","","","","","",""
"","1182","html-keyboard-response","112","129928","0.0-11.0-1.7","HiJEVLSaHw","65cb9e95bef5cb1d18b8517a","6617fad957f7c6a12ea16e26","6622cabf02abddf663c3d342","image grid","p","","","","","Phylogenetic_Distractor_Nonthreat_target","2500","ongrid","p","5","Phylogenetic","true","experimental"
"","null","html-keyboard-response","113","130080","0.0-11.0-2.7","HiJEVLSaHw","65cb9e95bef5cb1d18b8517a","6617fad957f7c6a12ea16e26","6622cabf02abddf663c3d342","
    <div id=""grid-container"">
        <!-- Grid items will be dynamically added here -->
    </div>    ","null","","","","","","","","","","","",""
"","null","html-keyboard-response","114","130783","0.0-11.0-0.8","HiJEVLSaHw","65cb9e95bef5cb1d18b8517a","6617fad957f7c6a12ea16e26","6622cabf02abddf663c3d342","fixation cross","null","","","","","","","","","","","",""
"","1007","html-keyboard-response","115","131791","0.0-11.0-1.8","HiJEVLSaHw","65cb9e95bef5cb1d18b8517a","6617fad957f7c6a12ea16e26","6622cabf02abddf663c3d342","image grid","q","","","","","Phylogenetic_Distractor_Threat_target","2500","ongrid","q","3","Phylogenetic","true","experimental"
"","null","html-keyboard-response","116","131943","0.0-11.0-2.8","HiJEVLSaHw","65cb9e95bef5cb1d18b8517a","6617fad957f7c6a12ea16e26","6622cabf02abddf663c3d342","
    <div id=""grid-container"">
        <!-- Grid items will be dynamically added here -->
    </div>    ","null","","","","","","","","","","","",""
"","null","html-keyboard-response","117","132648","0.0-11.0-0.9","HiJEVLSaHw","65cb9e95bef5cb1d18b8517a","6617fad957f7c6a12ea16e26","6622cabf02abddf663c3d342","fixation cross","null","","","","","","","","","","","",""
"","818","html-keyboard-response","118","133467","0.0-11.0-1.9","HiJEVLSaHw","65cb9e95bef5cb1d18b8517a","6617fad957f7c6a12ea16e26","6622cabf02abddf663c3d342","image grid","q","","","","","Phylogenetic_Distractor_Threat_target","2500","ongrid","q","9","Phylogenetic","true","experimental"
"","null","html-keyboard-response","119","133618","0.0-11.0-2.9","HiJEVLSaHw","65cb9e95bef5cb1d18b8517a","6617fad957f7c6a12ea16e26","6622cabf02abddf663c3d342","
    <div id=""grid-container"">
        <!-- Grid items will be dynamically added here -->
    </div>    ","null","","","","","","","","","","","",""
"","null","html-keyboard-response","120","134323","0.0-11.0-0.10","HiJEVLSaHw","65cb9e95bef5cb1d18b8517a","6617fad957f7c6a12ea16e26","6622cabf02abddf663c3d342","fixation cross","null","","","","","","","","","","","",""
"","717","html-keyboard-response","121","135040","0.0-11.0-1.10","HiJEVLSaHw","65cb9e95bef5cb1d18b8517a","6617fad957f7c6a12ea16e26","6622cabf02abddf663c3d342","image grid","p","","","","","Phylogenetic_Distractor_Nonthreat_target","2500","ongrid","p","5","Phylogenetic","true","experimental"
"","null","html-keyboard-response","122","135192","0.0-11.0-2.10","HiJEVLSaHw","65cb9e95bef5cb1d18b8517a","6617fad957f7c6a12ea16e26","6622cabf02abddf663c3d342","
    <div id=""grid-container"">
        <!-- Grid items will be dynamically added here -->
    </div>    ","null","","","","","","","","","","","",""
"","null","html-keyboard-response","123","135897","0.0-11.0-0.11","HiJEVLSaHw","65cb9e95bef5cb1d18b8517a","6617fad957f7c6a12ea16e26","6622cabf02abddf663c3d342","fixation cross","null","","","","","","","","","","","",""
"","789","html-keyboard-response","124","136687","0.0-11.0-1.11","HiJEVLSaHw","65cb9e95bef5cb1d18b8517a","6617fad957f7c6a12ea16e26","6622cabf02abddf663c3d342","image grid","p","","","","","Phylogenetic_Distractor_Nonthreat_target","2500","ongrid","p","4","Phylogenetic","true","experimental"
"","null","html-keyboard-response","125","136839","0.0-11.0-2.11","HiJEVLSaHw","65cb9e95bef5cb1d18b8517a","6617fad957f7c6a12ea16e26","6622cabf02abddf663c3d342","
    <div id=""grid-container"">
        <!-- Grid items will be dynamically added here -->
    </div>    ","null","","","","","","","","","","","",""
"","null","html-keyboard-response","126","137544","0.0-11.0-0.12","HiJEVLSaHw","65cb9e95bef5cb1d18b8517a","6617fad957f7c6a12ea16e26","6622cabf02abddf663c3d342","fixation cross","null","","","","","","","","","","","",""
"","797","html-keyboard-response","127","138342","0.0-11.0-1.12","HiJEVLSaHw","65cb9e95bef5cb1d18b8517a","6617fad957f7c6a12ea16e26","6622cabf02abddf663c3d342","image grid","p","","","","","Phylogenetic_Distractor_Nonthreat_target","2500","ongrid","p","4","Phylogenetic","true","experimental"
"","null","html-keyboard-response","128","138494","0.0-11.0-2.12","HiJEVLSaHw","65cb9e95bef5cb1d18b8517a","6617fad957f7c6a12ea16e26","6622cabf02abddf663c3d342","
    <div id=""grid-container"">
        <!-- Grid items will be dynamically added here -->
    </div>    ","null","","","","","","","","","","","",""
"","null","html-keyboard-response","129","139198","0.0-11.0-0.13","HiJEVLSaHw","65cb9e95bef5cb1d18b8517a","6617fad957f7c6a12ea16e26","6622cabf02abddf663c3d342","fixation cross","null","","","","","","","","","","","",""
"","1079","html-keyboard-response","130","140278","0.0-11.0-1.13","HiJEVLSaHw","65cb9e95bef5cb1d18b8517a","6617fad957f7c6a12ea16e26","6622cabf02abddf663c3d342","image grid","p","","","","","Phylogenetic_Distractor_Nonthreat_target","2500","ongrid","p","2","Phylogenetic","true","experimental"
"","null","html-keyboard-response","131","140431","0.0-11.0-2.13","HiJEVLSaHw","65cb9e95bef5cb1d18b8517a","6617fad957f7c6a12ea16e26","6622cabf02abddf663c3d342","
    <div id=""grid-container"">
        <!-- Grid items will be dynamically added here -->
    </div>    ","null","","","","","","","","","","","",""
"","null","html-keyboard-response","132","141135","0.0-11.0-0.14","HiJEVLSaHw","65cb9e95bef5cb1d18b8517a","6617fad957f7c6a12ea16e26","6622cabf02abddf663c3d342","fixation cross","null","","","","","","","","","","","",""
"","713","html-keyboard-response","133","141848","0.0-11.0-1.14","HiJEVLSaHw","65cb9e95bef5cb1d18b8517a","6617fad957f7c6a12ea16e26","6622cabf02abddf663c3d342","image grid","q","","","","","Phylogenetic_Distractor_Threat_target","2500","ongrid","q","4","Phylogenetic","true","experimental"
"","null","html-keyboard-response","134","142001","0.0-11.0-2.14","HiJEVLSaHw","65cb9e95bef5cb1d18b8517a","6617fad957f7c6a12ea16e26","6622cabf02abddf663c3d342","
    <div id=""grid-container"">
        <!-- Grid items will be dynamically added here -->
    </div>    ","null","","","","","","","","","","","",""
"","null","html-keyboard-response","135","142705","0.0-11.0-0.15","HiJEVLSaHw","65cb9e95bef5cb1d18b8517a","6617fad957f7c6a12ea16e26","6622cabf02abddf663c3d342","fixation cross","null","","","","","","","","","","","",""
"","1038","html-keyboard-response","136","143744","0.0-11.0-1.15","HiJEVLSaHw","65cb9e95bef5cb1d18b8517a","6617fad957f7c6a12ea16e26","6622cabf02abddf663c3d342","image grid","q","","","","","Phylogenetic_Distractor_Threat_target","2500","ongrid","q","9","Phylogenetic","true","experimental"
"","null","html-keyboard-response","137","143896","0.0-11.0-2.15","HiJEVLSaHw","65cb9e95bef5cb1d18b8517a","6617fad957f7c6a12ea16e26","6622cabf02abddf663c3d342","
    <div id=""grid-container"">
        <!-- Grid items will be dynamically added here -->
    </div>    ","null","","","","","","","","","","","",""
"","null","html-keyboard-response","138","144599","0.0-11.0-0.16","HiJEVLSaHw","65cb9e95bef5cb1d18b8517a","6617fad957f7c6a12ea16e26","6622cabf02abddf663c3d342","fixation cross","null","","","","","","","","","","","",""
"","686","html-keyboard-response","139","145285","0.0-11.0-1.16","HiJEVLSaHw","65cb9e95bef5cb1d18b8517a","6617fad957f7c6a12ea16e26","6622cabf02abddf663c3d342","image grid","q","","","","","Phylogenetic_Distractor_Threat_target","2500","ongrid","q","4","Phylogenetic","true","experimental"
"","null","html-keyboard-response","140","145437","0.0-11.0-2.16","HiJEVLSaHw","65cb9e95bef5cb1d18b8517a","6617fad957f7c6a12ea16e26","6622cabf02abddf663c3d342","
    <div id=""grid-container"">
        <!-- Grid items will be dynamically added here -->
    </div>    ","null","","","","","","","","","","","",""
"","null","html-keyboard-response","141","146142","0.0-11.0-0.17","HiJEVLSaHw","65cb9e95bef5cb1d18b8517a","6617fad957f7c6a12ea16e26","6622cabf02abddf663c3d342","fixation cross","null","","","","","","","","","","","",""
"","679","html-keyboard-response","142","146822","0.0-11.0-1.17","HiJEVLSaHw","65cb9e95bef5cb1d18b8517a","6617fad957f7c6a12ea16e26","6622cabf02abddf663c3d342","image grid","q","","","","","Phylogenetic_Distractor_Threat_target","2500","ongrid","q","7","Phylogenetic","true","experimental"
"","null","html-keyboard-response","143","146975","0.0-11.0-2.17","HiJEVLSaHw","65cb9e95bef5cb1d18b8517a","6617fad957f7c6a12ea16e26","6622cabf02abddf663c3d342","
    <div id=""grid-container"">
        <!-- Grid items will be dynamically added here -->
    </div>    ","null","","","","","","","","","","","",""
"","null","html-keyboard-response","144","147679","0.0-11.0-0.18","HiJEVLSaHw","65cb9e95bef5cb1d18b8517a","6617fad957f7c6a12ea16e26","6622cabf02abddf663c3d342","fixation cross","null","","","","","","","","","","","",""
"","1160","html-keyboard-response","145","148839","0.0-11.0-1.18","HiJEVLSaHw","65cb9e95bef5cb1d18b8517a","6617fad957f7c6a12ea16e26","6622cabf02abddf663c3d342","image grid","q","","","","","Phylogenetic_Distractor_Threat_target","2500","ongrid","q","9","Phylogenetic","true","experimental"
"","null","html-keyboard-response","146","148992","0.0-11.0-2.18","HiJEVLSaHw","65cb9e95bef5cb1d18b8517a","6617fad957f7c6a12ea16e26","6622cabf02abddf663c3d342","
    <div id=""grid-container"">
        <!-- Grid items will be dynamically added here -->
    </div>    ","null","","","","","","","","","","","",""
"","null","html-keyboard-response","147","149694","0.0-11.0-0.19","HiJEVLSaHw","65cb9e95bef5cb1d18b8517a","6617fad957f7c6a12ea16e26","6622cabf02abddf663c3d342","fixation cross","null","","","","","","","","","","","",""
"","null","html-keyboard-response","148","152197","0.0-11.0-1.19","HiJEVLSaHw","65cb9e95bef5cb1d18b8517a","6617fad957f7c6a12ea16e26","6622cabf02abddf663c3d342","
        <div id=""grid-container"">
        <!-- Grid items will be dynamically added here -->
    </div>    ","null","","","","","","","","","","","",""
"","2908","html-keyboard-response","149","152606","0.0-11.0-2.19","HiJEVLSaHw","65cb9e95bef5cb1d18b8517a","6617fad957f7c6a12ea16e26","6622cabf02abddf663c3d342","mask grid"," ","","","","","Phylogenetic_Distractor_notarget","2500","onmask"," ","4","Phylogenetic","true","experimental"
"","null","html-keyboard-response","150","153310","0.0-11.0-0.20","HiJEVLSaHw","65cb9e95bef5cb1d18b8517a","6617fad957f7c6a12ea16e26","6622cabf02abddf663c3d342","fixation cross","null","","","","","","","","","","","",""
"","1269","html-keyboard-response","151","154580","0.0-11.0-1.20","HiJEVLSaHw","65cb9e95bef5cb1d18b8517a","6617fad957f7c6a12ea16e26","6622cabf02abddf663c3d342","image grid","q","","","","","Phylogenetic_Distractor_Threat_target","2500","ongrid","q","6","Phylogenetic","true","experimental"
"","null","html-keyboard-response","152","154732","0.0-11.0-2.20","HiJEVLSaHw","65cb9e95bef5cb1d18b8517a","6617fad957f7c6a12ea16e26","6622cabf02abddf663c3d342","
    <div id=""grid-container"">
        <!-- Grid items will be dynamically added here -->
    </div>    ","null","","","","","","","","","","","",""
"","null","html-keyboard-response","153","155436","0.0-11.0-0.21","HiJEVLSaHw","65cb9e95bef5cb1d18b8517a","6617fad957f7c6a12ea16e26","6622cabf02abddf663c3d342","fixation cross","null","","","","","","","","","","","",""
"","954","html-keyboard-response","154","156391","0.0-11.0-1.21","HiJEVLSaHw","65cb9e95bef5cb1d18b8517a","6617fad957f7c6a12ea16e26","6622cabf02abddf663c3d342","image grid","p","","","","","Phylogenetic_Distractor_Nonthreat_target","2500","ongrid","p","7","Phylogenetic","true","experimental"
"","null","html-keyboard-response","155","156544","0.0-11.0-2.21","HiJEVLSaHw","65cb9e95bef5cb1d18b8517a","6617fad957f7c6a12ea16e26","6622cabf02abddf663c3d342","
    <div id=""grid-container"">
        <!-- Grid items will be dynamically added here -->
    </div>    ","null","","","","","","","","","","","",""
"","null","html-keyboard-response","156","157248","0.0-11.0-0.22","HiJEVLSaHw","65cb9e95bef5cb1d18b8517a","6617fad957f7c6a12ea16e26","6622cabf02abddf663c3d342","fixation cross","null","","","","","","","","","","","",""
"","1056","html-keyboard-response","157","158305","0.0-11.0-1.22","HiJEVLSaHw","65cb9e95bef5cb1d18b8517a","6617fad957f7c6a12ea16e26","6622cabf02abddf663c3d342","image grid"," ","","","","","Phylogenetic_Distractor_Nonthreat_target","2500","ongrid","p","2","Phylogenetic","false","experimental"
"","null","html-keyboard-response","158","158456","0.0-11.0-2.22","HiJEVLSaHw","65cb9e95bef5cb1d18b8517a","6617fad957f7c6a12ea16e26","6622cabf02abddf663c3d342","
    <div id=""grid-container"">
        <!-- Grid items will be dynamically added here -->
    </div>    ","null","","","","","","","","","","","",""
"","null","html-keyboard-response","159","159161","0.0-11.0-0.23","HiJEVLSaHw","65cb9e95bef5cb1d18b8517a","6617fad957f7c6a12ea16e26","6622cabf02abddf663c3d342","fixation cross","null","","","","","","","","","","","",""
"","753","html-keyboard-response","160","159915","0.0-11.0-1.23","HiJEVLSaHw","65cb9e95bef5cb1d18b8517a","6617fad957f7c6a12ea16e26","6622cabf02abddf663c3d342","image grid","q","","","","","Phylogenetic_Distractor_Threat_target","2500","ongrid","q","2","Phylogenetic","true","experimental"
"","null","html-keyboard-response","161","160067","0.0-11.0-2.23","HiJEVLSaHw","65cb9e95bef5cb1d18b8517a","6617fad957f7c6a12ea16e26","6622cabf02abddf663c3d342","
    <div id=""grid-container"">
        <!-- Grid items will be dynamically added here -->
    </div>    ","null","","","","","","","","","","","",""
"","null","html-keyboard-response","162","160770","0.0-11.0-0.24","HiJEVLSaHw","65cb9e95bef5cb1d18b8517a","6617fad957f7c6a12ea16e26","6622cabf02abddf663c3d342","fixation cross","null","","","","","","","","","","","",""
"","784","html-keyboard-response","163","161555","0.0-11.0-1.24","HiJEVLSaHw","65cb9e95bef5cb1d18b8517a","6617fad957f7c6a12ea16e26","6622cabf02abddf663c3d342","image grid","q","","","","","Phylogenetic_Distractor_Threat_target","2500","ongrid","q","2","Phylogenetic","true","experimental"
"","null","html-keyboard-response","164","161707","0.0-11.0-2.24","HiJEVLSaHw","65cb9e95bef5cb1d18b8517a","6617fad957f7c6a12ea16e26","6622cabf02abddf663c3d342","
    <div id=""grid-container"">
        <!-- Grid items will be dynamically added here -->
    </div>    ","null","","","","","","","","","","","",""
"","null","html-keyboard-response","165","162411","0.0-11.0-0.25","HiJEVLSaHw","65cb9e95bef5cb1d18b8517a","6617fad957f7c6a12ea16e26","6622cabf02abddf663c3d342","fixation cross","null","","","","","","","","","","","",""
"","835","html-keyboard-response","166","163247","0.0-11.0-1.25","HiJEVLSaHw","65cb9e95bef5cb1d18b8517a","6617fad957f7c6a12ea16e26","6622cabf02abddf663c3d342","image grid","q","","","","","Phylogenetic_Distractor_Threat_target","2500","ongrid","q","6","Phylogenetic","true","experimental"
"","null","html-keyboard-response","167","163399","0.0-11.0-2.25","HiJEVLSaHw","65cb9e95bef5cb1d18b8517a","6617fad957f7c6a12ea16e26","6622cabf02abddf663c3d342","
    <div id=""grid-container"">
        <!-- Grid items will be dynamically added here -->
    </div>    ","null","","","","","","","","","","","",""
"","null","html-keyboard-response","168","164103","0.0-11.0-0.26","HiJEVLSaHw","65cb9e95bef5cb1d18b8517a","6617fad957f7c6a12ea16e26","6622cabf02abddf663c3d342","fixation cross","null","","","","","","","","","","","",""
"","1609","html-keyboard-response","169","165712","0.0-11.0-1.26","HiJEVLSaHw","65cb9e95bef5cb1d18b8517a","6617fad957f7c6a12ea16e26","6622cabf02abddf663c3d342","image grid"," ","","","","","Phylogenetic_Distractor_notarget","2500","ongrid"," ","5","Phylogenetic","true","experimental"
"","null","html-keyboard-response","170","165864","0.0-11.0-2.26","HiJEVLSaHw","65cb9e95bef5cb1d18b8517a","6617fad957f7c6a12ea16e26","6622cabf02abddf663c3d342","
    <div id=""grid-container"">
        <!-- Grid items will be dynamically added here -->
    </div>    ","null","","","","","","","","","","","",""
"","null","html-keyboard-response","171","166567","0.0-11.0-0.27","HiJEVLSaHw","65cb9e95bef5cb1d18b8517a","6617fad957f7c6a12ea16e26","6622cabf02abddf663c3d342","fixation cross","null","","","","","","","","","","","",""
"","866","html-keyboard-response","172","167434","0.0-11.0-1.27","HiJEVLSaHw","65cb9e95bef5cb1d18b8517a","6617fad957f7c6a12ea16e26","6622cabf02abddf663c3d342","image grid","q","","","","","Phylogenetic_Distractor_Threat_target","2500","ongrid","q","7","Phylogenetic","true","experimental"
"","null","html-keyboard-response","173","167586","0.0-11.0-2.27","HiJEVLSaHw","65cb9e95bef5cb1d18b8517a","6617fad957f7c6a12ea16e26","6622cabf02abddf663c3d342","
    <div id=""grid-container"">
        <!-- Grid items will be dynamically added here -->
    </div>    ","null","","","","","","","","","","","",""
"","null","html-keyboard-response","174","168290","0.0-11.0-0.28","HiJEVLSaHw","65cb9e95bef5cb1d18b8517a","6617fad957f7c6a12ea16e26","6622cabf02abddf663c3d342","fixation cross","null","","","","","","","","","","","",""
"","1078","html-keyboard-response","175","169369","0.0-11.0-1.28","HiJEVLSaHw","65cb9e95bef5cb1d18b8517a","6617fad957f7c6a12ea16e26","6622cabf02abddf663c3d342","image grid","p","","","","","Phylogenetic_Distractor_Nonthreat_target","2500","ongrid","p","1","Phylogenetic","true","experimental"
"","null","html-keyboard-response","176","169523","0.0-11.0-2.28","HiJEVLSaHw","65cb9e95bef5cb1d18b8517a","6617fad957f7c6a12ea16e26","6622cabf02abddf663c3d342","
    <div id=""grid-container"">
        <!-- Grid items will be dynamically added here -->
    </div>    ","null","","","","","","","","","","","",""
"","null","html-keyboard-response","177","170227","0.0-11.0-0.29","HiJEVLSaHw","65cb9e95bef5cb1d18b8517a","6617fad957f7c6a12ea16e26","6622cabf02abddf663c3d342","fixation cross","null","","","","","","","","","","","",""
"","964","html-keyboard-response","178","171192","0.0-11.0-1.29","HiJEVLSaHw","65cb9e95bef5cb1d18b8517a","6617fad957f7c6a12ea16e26","6622cabf02abddf663c3d342","image grid","p","","","","","Phylogenetic_Distractor_Nonthreat_target","2500","ongrid","p","8","Phylogenetic","true","experimental"
"","null","html-keyboard-response","179","171344","0.0-11.0-2.29","HiJEVLSaHw","65cb9e95bef5cb1d18b8517a","6617fad957f7c6a12ea16e26","6622cabf02abddf663c3d342","
    <div id=""grid-container"">
        <!-- Grid items will be dynamically added here -->
    </div>    ","null","","","","","","","","","","","",""
"","null","html-keyboard-response","180","172049","0.0-11.0-0.30","HiJEVLSaHw","65cb9e95bef5cb1d18b8517a","6617fad957f7c6a12ea16e26","6622cabf02abddf663c3d342","fixation cross","null","","","","","","","","","","","",""
"","643","html-keyboard-response","181","172693","0.0-11.0-1.30","HiJEVLSaHw","65cb9e95bef5cb1d18b8517a","6617fad957f7c6a12ea16e26","6622cabf02abddf663c3d342","image grid","q","","","","","Phylogenetic_Distractor_Nonthreat_target","2500","ongrid","p","3","Phylogenetic","false","experimental"
"","null","html-keyboard-response","182","172844","0.0-11.0-2.30","HiJEVLSaHw","65cb9e95bef5cb1d18b8517a","6617fad957f7c6a12ea16e26","6622cabf02abddf663c3d342","
    <div id=""grid-container"">
        <!-- Grid items will be dynamically added here -->
    </div>    ","null","","","","","","","","","","","",""
"","null","html-keyboard-response","183","173548","0.0-11.0-0.31","HiJEVLSaHw","65cb9e95bef5cb1d18b8517a","6617fad957f7c6a12ea16e26","6622cabf02abddf663c3d342","fixation cross","null","","","","","","","","","","","",""
"","764","html-keyboard-response","184","174313","0.0-11.0-1.31","HiJEVLSaHw","65cb9e95bef5cb1d18b8517a","6617fad957f7c6a12ea16e26","6622cabf02abddf663c3d342","image grid","p","","","","","Phylogenetic_Distractor_Nonthreat_target","2500","ongrid","p","5","Phylogenetic","true","experimental"
"","null","html-keyboard-response","185","174466","0.0-11.0-2.31","HiJEVLSaHw","65cb9e95bef5cb1d18b8517a","6617fad957f7c6a12ea16e26","6622cabf02abddf663c3d342","
    <div id=""grid-container"">
        <!-- Grid items will be dynamically added here -->
    </div>    ","null","","","","","","","","","","","",""
"","null","html-keyboard-response","186","175171","0.0-11.0-0.32","HiJEVLSaHw","65cb9e95bef5cb1d18b8517a","6617fad957f7c6a12ea16e26","6622cabf02abddf663c3d342","fixation cross","null","","","","","","","","","","","",""
"","1851","html-keyboard-response","187","177023","0.0-11.0-1.32","HiJEVLSaHw","65cb9e95bef5cb1d18b8517a","6617fad957f7c6a12ea16e26","6622cabf02abddf663c3d342","image grid","q","","","","","Phylogenetic_Distractor_Nonthreat_target","2500","ongrid","p","8","Phylogenetic","false","experimental"
"","null","html-keyboard-response","188","177176","0.0-11.0-2.32","HiJEVLSaHw","65cb9e95bef5cb1d18b8517a","6617fad957f7c6a12ea16e26","6622cabf02abddf663c3d342","
    <div id=""grid-container"">
        <!-- Grid items will be dynamically added here -->
    </div>    ","null","","","","","","","","","","","",""
"","null","html-keyboard-response","189","177880","0.0-11.0-0.33","HiJEVLSaHw","65cb9e95bef5cb1d18b8517a","6617fad957f7c6a12ea16e26","6622cabf02abddf663c3d342","fixation cross","null","","","","","","","","","","","",""
"","1259","html-keyboard-response","190","179139","0.0-11.0-1.33","HiJEVLSaHw","65cb9e95bef5cb1d18b8517a","6617fad957f7c6a12ea16e26","6622cabf02abddf663c3d342","image grid","p","","","","","Phylogenetic_Distractor_Nonthreat_target","2500","ongrid","p","3","Phylogenetic","true","experimental"
"","null","html-keyboard-response","191","179292","0.0-11.0-2.33","HiJEVLSaHw","65cb9e95bef5cb1d18b8517a","6617fad957f7c6a12ea16e26","6622cabf02abddf663c3d342","
    <div id=""grid-container"">
        <!-- Grid items will be dynamically added here -->
    </div>    ","null","","","","","","","","","","","",""
"","null","html-keyboard-response","192","179996","0.0-11.0-0.34","HiJEVLSaHw","65cb9e95bef5cb1d18b8517a","6617fad957f7c6a12ea16e26","6622cabf02abddf663c3d342","fixation cross","null","","","","","","","","","","","",""
"","784","html-keyboard-response","193","180780","0.0-11.0-1.34","HiJEVLSaHw","65cb9e95bef5cb1d18b8517a","6617fad957f7c6a12ea16e26","6622cabf02abddf663c3d342","image grid","q","","","","","Phylogenetic_Distractor_Threat_target","2500","ongrid","q","8","Phylogenetic","true","experimental"
"","null","html-keyboard-response","194","180933","0.0-11.0-2.34","HiJEVLSaHw","65cb9e95bef5cb1d18b8517a","6617fad957f7c6a12ea16e26","6622cabf02abddf663c3d342","
    <div id=""grid-container"">
        <!-- Grid items will be dynamically added here -->
    </div>    ","null","","","","","","","","","","","",""
"","null","html-keyboard-response","195","181637","0.0-11.0-0.35","HiJEVLSaHw","65cb9e95bef5cb1d18b8517a","6617fad957f7c6a12ea16e26","6622cabf02abddf663c3d342","fixation cross","null","","","","","","","","","","","",""
"","670","html-keyboard-response","196","182308","0.0-11.0-1.35","HiJEVLSaHw","65cb9e95bef5cb1d18b8517a","6617fad957f7c6a12ea16e26","6622cabf02abddf663c3d342","image grid","q","","","","","Phylogenetic_Distractor_Threat_target","2500","ongrid","q","3","Phylogenetic","true","experimental"
"","null","html-keyboard-response","197","182460","0.0-11.0-2.35","HiJEVLSaHw","65cb9e95bef5cb1d18b8517a","6617fad957f7c6a12ea16e26","6622cabf02abddf663c3d342","
    <div id=""grid-container"">
        <!-- Grid items will be dynamically added here -->
    </div>    ","null","","","","","","","","","","","",""
"","null","html-keyboard-response","198","183163","0.0-11.0-0.36","HiJEVLSaHw","65cb9e95bef5cb1d18b8517a","6617fad957f7c6a12ea16e26","6622cabf02abddf663c3d342","fixation cross","null","","","","","","","","","","","",""
"","1497","html-keyboard-response","199","184661","0.0-11.0-1.36","HiJEVLSaHw","65cb9e95bef5cb1d18b8517a","6617fad957f7c6a12ea16e26","6622cabf02abddf663c3d342","image grid","p","","","","","Phylogenetic_Distractor_Nonthreat_target","2500","ongrid","p","2","Phylogenetic","true","experimental"
"","null","html-keyboard-response","200","184813","0.0-11.0-2.36","HiJEVLSaHw","65cb9e95bef5cb1d18b8517a","6617fad957f7c6a12ea16e26","6622cabf02abddf663c3d342","
    <div id=""grid-container"">
        <!-- Grid items will be dynamically added here -->
    </div>    ","null","","","","","","","","","","","",""
"","null","html-keyboard-response","201","185517","0.0-11.0-0.37","HiJEVLSaHw","65cb9e95bef5cb1d18b8517a","6617fad957f7c6a12ea16e26","6622cabf02abddf663c3d342","fixation cross","null","","","","","","","","","","","",""
"","707","html-keyboard-response","202","186225","0.0-11.0-1.37","HiJEVLSaHw","65cb9e95bef5cb1d18b8517a","6617fad957f7c6a12ea16e26","6622cabf02abddf663c3d342","image grid","q","","","","","Phylogenetic_Distractor_Threat_target","2500","ongrid","q","1","Phylogenetic","true","experimental"
"","null","html-keyboard-response","203","186378","0.0-11.0-2.37","HiJEVLSaHw","65cb9e95bef5cb1d18b8517a","6617fad957f7c6a12ea16e26","6622cabf02abddf663c3d342","
    <div id=""grid-container"">
        <!-- Grid items will be dynamically added here -->
    </div>    ","null","","","","","","","","","","","",""
"","null","html-keyboard-response","204","187082","0.0-11.0-0.38","HiJEVLSaHw","65cb9e95bef5cb1d18b8517a","6617fad957f7c6a12ea16e26","6622cabf02abddf663c3d342","fixation cross","null","","","","","","","","","","","",""
"","2011","html-keyboard-response","205","189093","0.0-11.0-1.38","HiJEVLSaHw","65cb9e95bef5cb1d18b8517a","6617fad957f7c6a12ea16e26","6622cabf02abddf663c3d342","image grid"," ","","","","","Phylogenetic_Distractor_notarget","2500","ongrid"," ","6","Phylogenetic","true","experimental"
"","null","html-keyboard-response","206","189244","0.0-11.0-2.38","HiJEVLSaHw","65cb9e95bef5cb1d18b8517a","6617fad957f7c6a12ea16e26","6622cabf02abddf663c3d342","
    <div id=""grid-container"">
        <!-- Grid items will be dynamically added here -->
    </div>    ","null","","","","","","","","","","","",""
"","null","html-keyboard-response","207","189949","0.0-11.0-0.39","HiJEVLSaHw","65cb9e95bef5cb1d18b8517a","6617fad957f7c6a12ea16e26","6622cabf02abddf663c3d342","fixation cross","null","","","","","","","","","","","",""
"","775","html-keyboard-response","208","190724","0.0-11.0-1.39","HiJEVLSaHw","65cb9e95bef5cb1d18b8517a","6617fad957f7c6a12ea16e26","6622cabf02abddf663c3d342","image grid","q","","","","","Phylogenetic_Distractor_Threat_target","2500","ongrid","q","1","Phylogenetic","true","experimental"
"","null","html-keyboard-response","209","190877","0.0-11.0-2.39","HiJEVLSaHw","65cb9e95bef5cb1d18b8517a","6617fad957f7c6a12ea16e26","6622cabf02abddf663c3d342","
    <div id=""grid-container"">
        <!-- Grid items will be dynamically added here -->
    </div>    ","null","","","","","","","","","","","",""
"","7998","html-keyboard-response","210","199119","0.0-12.0","HiJEVLSaHw","65cb9e95bef5cb1d18b8517a","6617fad957f7c6a12ea16e26","6622cabf02abddf663c3d342","break screen"," ","","","","","","","","","","","",""
"","null","html-keyboard-response","211","201661","0.0-13.0-0.0","HiJEVLSaHw","65cb9e95bef5cb1d18b8517a","6617fad957f7c6a12ea16e26","6622cabf02abddf663c3d342","fixation cross","null","","","","","","","","","","","",""
"","null","html-keyboard-response","212","202464","0.0-13.0-1.0","HiJEVLSaHw","65cb9e95bef5cb1d18b8517a","6617fad957f7c6a12ea16e26","6622cabf02abddf663c3d342","
        <div id=""grid-container"">
        <!-- Grid items will be dynamically added here -->
    </div>    ","null","","","","","","","","","","","",""
"","1320","html-keyboard-response","213","202984","0.0-13.0-2.0","HiJEVLSaHw","65cb9e95bef5cb1d18b8517a","6617fad957f7c6a12ea16e26","6622cabf02abddf663c3d342","mask grid","p","","","","","Phylogenetic_Distractor_Nonthreat_target","800","onmask","p","4","Phylogenetic","true","experimental"
"","null","html-keyboard-response","214","203689","0.0-13.0-0.1","HiJEVLSaHw","65cb9e95bef5cb1d18b8517a","6617fad957f7c6a12ea16e26","6622cabf02abddf663c3d342","fixation cross","null","","","","","","","","","","","",""
"","759","html-keyboard-response","215","204449","0.0-13.0-1.1","HiJEVLSaHw","65cb9e95bef5cb1d18b8517a","6617fad957f7c6a12ea16e26","6622cabf02abddf663c3d342","image grid","p","","","","","Phylogenetic_Distractor_Nonthreat_target","800","ongrid","p","6","Phylogenetic","true","experimental"
"","null","html-keyboard-response","216","204602","0.0-13.0-2.1","HiJEVLSaHw","65cb9e95bef5cb1d18b8517a","6617fad957f7c6a12ea16e26","6622cabf02abddf663c3d342","
    <div id=""grid-container"">
        <!-- Grid items will be dynamically added here -->
    </div>    ","null","","","","","","","","","","","",""
"","null","html-keyboard-response","217","205305","0.0-13.0-0.2","HiJEVLSaHw","65cb9e95bef5cb1d18b8517a","6617fad957f7c6a12ea16e26","6622cabf02abddf663c3d342","fixation cross","null","","","","","","","","","","","",""
"","null","html-keyboard-response","218","206108","0.0-13.0-1.2","HiJEVLSaHw","65cb9e95bef5cb1d18b8517a","6617fad957f7c6a12ea16e26","6622cabf02abddf663c3d342","
        <div id=""grid-container"">
        <!-- Grid items will be dynamically added here -->
    </div>    ","null","","","","","","","","","","","",""
"","1216","html-keyboard-response","219","206525","0.0-13.0-2.2","HiJEVLSaHw","65cb9e95bef5cb1d18b8517a","6617fad957f7c6a12ea16e26","6622cabf02abddf663c3d342","mask grid","p","","","","","Phylogenetic_Distractor_Nonthreat_target","800","onmask","p","3","Phylogenetic","true","experimental"
"","null","html-keyboard-response","220","207230","0.0-13.0-0.3","HiJEVLSaHw","65cb9e95bef5cb1d18b8517a","6617fad957f7c6a12ea16e26","6622cabf02abddf663c3d342","fixation cross","null","","","","","","","","","","","",""
"","586","html-keyboard-response","221","207817","0.0-13.0-1.3","HiJEVLSaHw","65cb9e95bef5cb1d18b8517a","6617fad957f7c6a12ea16e26","6622cabf02abddf663c3d342","image grid","p","","","","","Phylogenetic_Distractor_Nonthreat_target","800","ongrid","p","4","Phylogenetic","true","experimental"
"","null","html-keyboard-response","222","207970","0.0-13.0-2.3","HiJEVLSaHw","65cb9e95bef5cb1d18b8517a","6617fad957f7c6a12ea16e26","6622cabf02abddf663c3d342","
    <div id=""grid-container"">
        <!-- Grid items will be dynamically added here -->
    </div>    ","null","","","","","","","","","","","",""
"","null","html-keyboard-response","223","208673","0.0-13.0-0.4","HiJEVLSaHw","65cb9e95bef5cb1d18b8517a","6617fad957f7c6a12ea16e26","6622cabf02abddf663c3d342","fixation cross","null","","","","","","","","","","","",""
"","671","html-keyboard-response","224","209345","0.0-13.0-1.4","HiJEVLSaHw","65cb9e95bef5cb1d18b8517a","6617fad957f7c6a12ea16e26","6622cabf02abddf663c3d342","image grid","q","","","","","Phylogenetic_Distractor_Threat_target","800","ongrid","q","2","Phylogenetic","true","experimental"
"","null","html-keyboard-response","225","209497","0.0-13.0-2.4","HiJEVLSaHw","65cb9e95bef5cb1d18b8517a","6617fad957f7c6a12ea16e26","6622cabf02abddf663c3d342","
    <div id=""grid-container"">
        <!-- Grid items will be dynamically added here -->
    </div>    ","null","","","","","","","","","","","",""
"","null","html-keyboard-response","226","210201","0.0-13.0-0.5","HiJEVLSaHw","65cb9e95bef5cb1d18b8517a","6617fad957f7c6a12ea16e26","6622cabf02abddf663c3d342","fixation cross","null","","","","","","","","","","","",""
"","766","html-keyboard-response","227","210968","0.0-13.0-1.5","HiJEVLSaHw","65cb9e95bef5cb1d18b8517a","6617fad957f7c6a12ea16e26","6622cabf02abddf663c3d342","image grid","q","","","","","Phylogenetic_Distractor_Threat_target","800","ongrid","q","3","Phylogenetic","true","experimental"
"","null","html-keyboard-response","228","211122","0.0-13.0-2.5","HiJEVLSaHw","65cb9e95bef5cb1d18b8517a","6617fad957f7c6a12ea16e26","6622cabf02abddf663c3d342","
    <div id=""grid-container"">
        <!-- Grid items will be dynamically added here -->
    </div>    ","null","","","","","","","","","","","",""
"","null","html-keyboard-response","229","211825","0.0-13.0-0.6","HiJEVLSaHw","65cb9e95bef5cb1d18b8517a","6617fad957f7c6a12ea16e26","6622cabf02abddf663c3d342","fixation cross","null","","","","","","","","","","","",""
"","null","html-keyboard-response","230","212628","0.0-13.0-1.6","HiJEVLSaHw","65cb9e95bef5cb1d18b8517a","6617fad957f7c6a12ea16e26","6622cabf02abddf663c3d342","
        <div id=""grid-container"">
        <!-- Grid items will be dynamically added here -->
    </div>    ","null","","","","","","","","","","","",""
"","814","html-keyboard-response","231","212642","0.0-13.0-2.6","HiJEVLSaHw","65cb9e95bef5cb1d18b8517a","6617fad957f7c6a12ea16e26","6622cabf02abddf663c3d342","mask grid","q","","","","","Phylogenetic_Distractor_Threat_target","800","onmask","q","2","Phylogenetic","true","experimental"
"","null","html-keyboard-response","232","213346","0.0-13.0-0.7","HiJEVLSaHw","65cb9e95bef5cb1d18b8517a","6617fad957f7c6a12ea16e26","6622cabf02abddf663c3d342","fixation cross","null","","","","","","","","","","","",""
"","565","html-keyboard-response","233","213911","0.0-13.0-1.7","HiJEVLSaHw","65cb9e95bef5cb1d18b8517a","6617fad957f7c6a12ea16e26","6622cabf02abddf663c3d342","image grid","q","","","","","Phylogenetic_Distractor_Threat_target","800","ongrid","q","1","Phylogenetic","true","experimental"
"","null","html-keyboard-response","234","214064","0.0-13.0-2.7","HiJEVLSaHw","65cb9e95bef5cb1d18b8517a","6617fad957f7c6a12ea16e26","6622cabf02abddf663c3d342","
    <div id=""grid-container"">
        <!-- Grid items will be dynamically added here -->
    </div>    ","null","","","","","","","","","","","",""
"","null","html-keyboard-response","235","214768","0.0-13.0-0.8","HiJEVLSaHw","65cb9e95bef5cb1d18b8517a","6617fad957f7c6a12ea16e26","6622cabf02abddf663c3d342","fixation cross","null","","","","","","","","","","","",""
"","612","html-keyboard-response","236","215381","0.0-13.0-1.8","HiJEVLSaHw","65cb9e95bef5cb1d18b8517a","6617fad957f7c6a12ea16e26","6622cabf02abddf663c3d342","image grid","q","","","","","Phylogenetic_Distractor_Threat_target","800","ongrid","q","7","Phylogenetic","true","experimental"
"","null","html-keyboard-response","237","215534","0.0-13.0-2.8","HiJEVLSaHw","65cb9e95bef5cb1d18b8517a","6617fad957f7c6a12ea16e26","6622cabf02abddf663c3d342","
    <div id=""grid-container"">
        <!-- Grid items will be dynamically added here -->
    </div>    ","null","","","","","","","","","","","",""
"","null","html-keyboard-response","238","216238","0.0-13.0-0.9","HiJEVLSaHw","65cb9e95bef5cb1d18b8517a","6617fad957f7c6a12ea16e26","6622cabf02abddf663c3d342","fixation cross","null","","","","","","","","","","","",""
"","null","html-keyboard-response","239","217041","0.0-13.0-1.9","HiJEVLSaHw","65cb9e95bef5cb1d18b8517a","6617fad957f7c6a12ea16e26","6622cabf02abddf663c3d342","
        <div id=""grid-container"">
        <!-- Grid items will be dynamically added here -->
    </div>    ","null","","","","","","","","","","","",""
"","1004","html-keyboard-response","240","217246","0.0-13.0-2.9","HiJEVLSaHw","65cb9e95bef5cb1d18b8517a","6617fad957f7c6a12ea16e26","6622cabf02abddf663c3d342","mask grid","q","","","","","Phylogenetic_Distractor_Threat_target","800","onmask","q","1","Phylogenetic","true","experimental"
"","null","html-keyboard-response","241","217951","0.0-13.0-0.10","HiJEVLSaHw","65cb9e95bef5cb1d18b8517a","6617fad957f7c6a12ea16e26","6622cabf02abddf663c3d342","fixation cross","null","","","","","","","","","","","",""
"","null","html-keyboard-response","242","218753","0.0-13.0-1.10","HiJEVLSaHw","65cb9e95bef5cb1d18b8517a","6617fad957f7c6a12ea16e26","6622cabf02abddf663c3d342","
        <div id=""grid-container"">
        <!-- Grid items will be dynamically added here -->
    </div>    ","null","","","","","","","","","","","",""
"","815","html-keyboard-response","243","218769","0.0-13.0-2.10","HiJEVLSaHw","65cb9e95bef5cb1d18b8517a","6617fad957f7c6a12ea16e26","6622cabf02abddf663c3d342","mask grid","p","","","","","Phylogenetic_Distractor_Threat_target","800","onmask","q","2","Phylogenetic","false","experimental"
"","null","html-keyboard-response","244","219473","0.0-13.0-0.11","HiJEVLSaHw","65cb9e95bef5cb1d18b8517a","6617fad957f7c6a12ea16e26","6622cabf02abddf663c3d342","fixation cross","null","","","","","","","","","","","",""
"","null","html-keyboard-response","245","220276","0.0-13.0-1.11","HiJEVLSaHw","65cb9e95bef5cb1d18b8517a","6617fad957f7c6a12ea16e26","6622cabf02abddf663c3d342","
        <div id=""grid-container"">
        <!-- Grid items will be dynamically added here -->
    </div>    ","null","","","","","","","","","","","",""
"","814","html-keyboard-response","246","220290","0.0-13.0-2.11","HiJEVLSaHw","65cb9e95bef5cb1d18b8517a","6617fad957f7c6a12ea16e26","6622cabf02abddf663c3d342","mask grid","p","","","","","Phylogenetic_Distractor_Nonthreat_target","800","onmask","p","9","Phylogenetic","true","experimental"
"","null","html-keyboard-response","247","220994","0.0-13.0-0.12","HiJEVLSaHw","65cb9e95bef5cb1d18b8517a","6617fad957f7c6a12ea16e26","6622cabf02abddf663c3d342","fixation cross","null","","","","","","","","","","","",""
"","552","html-keyboard-response","248","221546","0.0-13.0-1.12","HiJEVLSaHw","65cb9e95bef5cb1d18b8517a","6617fad957f7c6a12ea16e26","6622cabf02abddf663c3d342","image grid","q","","","","","Phylogenetic_Distractor_Threat_target","800","ongrid","q","4","Phylogenetic","true","experimental"
"","null","html-keyboard-response","249","221700","0.0-13.0-2.12","HiJEVLSaHw","65cb9e95bef5cb1d18b8517a","6617fad957f7c6a12ea16e26","6622cabf02abddf663c3d342","
    <div id=""grid-container"">
        <!-- Grid items will be dynamically added here -->
    </div>    ","null","","","","","","","","","","","",""
"","null","html-keyboard-response","250","222404","0.0-13.0-0.13","HiJEVLSaHw","65cb9e95bef5cb1d18b8517a","6617fad957f7c6a12ea16e26","6622cabf02abddf663c3d342","fixation cross","null","","","","","","","","","","","",""
"","673","html-keyboard-response","251","223077","0.0-13.0-1.13","HiJEVLSaHw","65cb9e95bef5cb1d18b8517a","6617fad957f7c6a12ea16e26","6622cabf02abddf663c3d342","image grid","p","","","","","Phylogenetic_Distractor_Nonthreat_target","800","ongrid","p","7","Phylogenetic","true","experimental"
"","null","html-keyboard-response","252","223230","0.0-13.0-2.13","HiJEVLSaHw","65cb9e95bef5cb1d18b8517a","6617fad957f7c6a12ea16e26","6622cabf02abddf663c3d342","
    <div id=""grid-container"">
        <!-- Grid items will be dynamically added here -->
    </div>    ","null","","","","","","","","","","","",""
"","null","html-keyboard-response","253","223934","0.0-13.0-0.14","HiJEVLSaHw","65cb9e95bef5cb1d18b8517a","6617fad957f7c6a12ea16e26","6622cabf02abddf663c3d342","fixation cross","null","","","","","","","","","","","",""
"","null","html-keyboard-response","254","224736","0.0-13.0-1.14","HiJEVLSaHw","65cb9e95bef5cb1d18b8517a","6617fad957f7c6a12ea16e26","6622cabf02abddf663c3d342","
        <div id=""grid-container"">
        <!-- Grid items will be dynamically added here -->
    </div>    ","null","","","","","","","","","","","",""
"","3652","html-keyboard-response","255","227589","0.0-13.0-2.14","HiJEVLSaHw","65cb9e95bef5cb1d18b8517a","6617fad957f7c6a12ea16e26","6622cabf02abddf663c3d342","mask grid","p","","","","","Phylogenetic_Distractor_Nonthreat_target","800","onmask","p","5","Phylogenetic","true","experimental"
"","null","html-keyboard-response","256","228294","0.0-13.0-0.15","HiJEVLSaHw","65cb9e95bef5cb1d18b8517a","6617fad957f7c6a12ea16e26","6622cabf02abddf663c3d342","fixation cross","null","","","","","","","","","","","",""
"","null","html-keyboard-response","257","229097","0.0-13.0-1.15","HiJEVLSaHw","65cb9e95bef5cb1d18b8517a","6617fad957f7c6a12ea16e26","6622cabf02abddf663c3d342","
        <div id=""grid-container"">
        <!-- Grid items will be dynamically added here -->
    </div>    ","null","","","","","","","","","","","",""
"","1329","html-keyboard-response","258","229628","0.0-13.0-2.15","HiJEVLSaHw","65cb9e95bef5cb1d18b8517a","6617fad957f7c6a12ea16e26","6622cabf02abddf663c3d342","mask grid"," ","","","","","Phylogenetic_Distractor_notarget","800","onmask"," ","2","Phylogenetic","true","experimental"
"","null","html-keyboard-response","259","230332","0.0-13.0-0.16","HiJEVLSaHw","65cb9e95bef5cb1d18b8517a","6617fad957f7c6a12ea16e26","6622cabf02abddf663c3d342","fixation cross","null","","","","","","","","","","","",""
"","null","html-keyboard-response","260","231135","0.0-13.0-1.16","HiJEVLSaHw","65cb9e95bef5cb1d18b8517a","6617fad957f7c6a12ea16e26","6622cabf02abddf663c3d342","
        <div id=""grid-container"">
        <!-- Grid items will be dynamically added here -->
    </div>    ","null","","","","","","","","","","","",""
"","901","html-keyboard-response","261","231237","0.0-13.0-2.16","HiJEVLSaHw","65cb9e95bef5cb1d18b8517a","6617fad957f7c6a12ea16e26","6622cabf02abddf663c3d342","mask grid","p","","","","","Phylogenetic_Distractor_Nonthreat_target","800","onmask","p","6","Phylogenetic","true","experimental"
"","null","html-keyboard-response","262","231942","0.0-13.0-0.17","HiJEVLSaHw","65cb9e95bef5cb1d18b8517a","6617fad957f7c6a12ea16e26","6622cabf02abddf663c3d342","fixation cross","null","","","","","","","","","","","",""
"","null","html-keyboard-response","263","232744","0.0-13.0-1.17","HiJEVLSaHw","65cb9e95bef5cb1d18b8517a","6617fad957f7c6a12ea16e26","6622cabf02abddf663c3d342","
        <div id=""grid-container"">
        <!-- Grid items will be dynamically added here -->
    </div>    ","null","","","","","","","","","","","",""
"","1420","html-keyboard-response","264","233365","0.0-13.0-2.17","HiJEVLSaHw","65cb9e95bef5cb1d18b8517a","6617fad957f7c6a12ea16e26","6622cabf02abddf663c3d342","mask grid","p","","","","","Phylogenetic_Distractor_Nonthreat_target","800","onmask","p","2","Phylogenetic","true","experimental"
"","null","html-keyboard-response","265","234070","0.0-13.0-0.18","HiJEVLSaHw","65cb9e95bef5cb1d18b8517a","6617fad957f7c6a12ea16e26","6622cabf02abddf663c3d342","fixation cross","null","","","","","","","","","","","",""
"","646","html-keyboard-response","266","234717","0.0-13.0-1.18","HiJEVLSaHw","65cb9e95bef5cb1d18b8517a","6617fad957f7c6a12ea16e26","6622cabf02abddf663c3d342","image grid","q","","","","","Phylogenetic_Distractor_Threat_target","800","ongrid","q","1","Phylogenetic","true","experimental"
"","null","html-keyboard-response","267","234870","0.0-13.0-2.18","HiJEVLSaHw","65cb9e95bef5cb1d18b8517a","6617fad957f7c6a12ea16e26","6622cabf02abddf663c3d342","
    <div id=""grid-container"">
        <!-- Grid items will be dynamically added here -->
    </div>    ","null","","","","","","","","","","","",""
"","null","html-keyboard-response","268","235573","0.0-13.0-0.19","HiJEVLSaHw","65cb9e95bef5cb1d18b8517a","6617fad957f7c6a12ea16e26","6622cabf02abddf663c3d342","fixation cross","null","","","","","","","","","","","",""
"","null","html-keyboard-response","269","236377","0.0-13.0-1.19","HiJEVLSaHw","65cb9e95bef5cb1d18b8517a","6617fad957f7c6a12ea16e26","6622cabf02abddf663c3d342","
        <div id=""grid-container"">
        <!-- Grid items will be dynamically added here -->
    </div>    ","null","","","","","","","","","","","",""
"","900","html-keyboard-response","270","236477","0.0-13.0-2.19","HiJEVLSaHw","65cb9e95bef5cb1d18b8517a","6617fad957f7c6a12ea16e26","6622cabf02abddf663c3d342","mask grid","p","","","","","Phylogenetic_Distractor_Nonthreat_target","800","onmask","p","4","Phylogenetic","true","experimental"
"","null","html-keyboard-response","271","237181","0.0-13.0-0.20","HiJEVLSaHw","65cb9e95bef5cb1d18b8517a","6617fad957f7c6a12ea16e26","6622cabf02abddf663c3d342","fixation cross","null","","","","","","","","","","","",""
"","692","html-keyboard-response","272","237873","0.0-13.0-1.20","HiJEVLSaHw","65cb9e95bef5cb1d18b8517a","6617fad957f7c6a12ea16e26","6622cabf02abddf663c3d342","image grid","q","","","","","Phylogenetic_Distractor_Threat_target","800","ongrid","q","2","Phylogenetic","true","experimental"
"","9","html-keyboard-response","273","238026","0.0-13.0-2.20","HiJEVLSaHw","65cb9e95bef5cb1d18b8517a","6617fad957f7c6a12ea16e26","6622cabf02abddf663c3d342","
    <div id=""grid-container"">
        <!-- Grid items will be dynamically added here -->
    </div>    ","p","","","","","","","","","","","",""
"","null","html-keyboard-response","274","238730","0.0-13.0-0.21","HiJEVLSaHw","65cb9e95bef5cb1d18b8517a","6617fad957f7c6a12ea16e26","6622cabf02abddf663c3d342","fixation cross","null","","","","","","","","","","","",""
"","null","html-keyboard-response","275","239532","0.0-13.0-1.21","HiJEVLSaHw","65cb9e95bef5cb1d18b8517a","6617fad957f7c6a12ea16e26","6622cabf02abddf663c3d342","
        <div id=""grid-container"">
        <!-- Grid items will be dynamically added here -->
    </div>    ","null","","","","","","","","","","","",""
"","961","html-keyboard-response","276","239694","0.0-13.0-2.21","HiJEVLSaHw","65cb9e95bef5cb1d18b8517a","6617fad957f7c6a12ea16e26","6622cabf02abddf663c3d342","mask grid"," ","","","","","Phylogenetic_Distractor_notarget","800","onmask"," ","3","Phylogenetic","true","experimental"
"","null","html-keyboard-response","277","240399","0.0-13.0-0.22","HiJEVLSaHw","65cb9e95bef5cb1d18b8517a","6617fad957f7c6a12ea16e26","6622cabf02abddf663c3d342","fixation cross","null","","","","","","","","","","","",""
"","562","html-keyboard-response","278","240962","0.0-13.0-1.22","HiJEVLSaHw","65cb9e95bef5cb1d18b8517a","6617fad957f7c6a12ea16e26","6622cabf02abddf663c3d342","image grid","q","","","","","Phylogenetic_Distractor_Threat_target","800","ongrid","q","7","Phylogenetic","true","experimental"
"","null","html-keyboard-response","279","241115","0.0-13.0-2.22","HiJEVLSaHw","65cb9e95bef5cb1d18b8517a","6617fad957f7c6a12ea16e26","6622cabf02abddf663c3d342","
    <div id=""grid-container"">
        <!-- Grid items will be dynamically added here -->
    </div>    ","null","","","","","","","","","","","",""
"","null","html-keyboard-response","280","241819","0.0-13.0-0.23","HiJEVLSaHw","65cb9e95bef5cb1d18b8517a","6617fad957f7c6a12ea16e26","6622cabf02abddf663c3d342","fixation cross","null","","","","","","","","","","","",""
"","636","html-keyboard-response","281","242456","0.0-13.0-1.23","HiJEVLSaHw","65cb9e95bef5cb1d18b8517a","6617fad957f7c6a12ea16e26","6622cabf02abddf663c3d342","image grid","p","","","","","Phylogenetic_Distractor_Threat_target","800","ongrid","q","6","Phylogenetic","false","experimental"
"","null","html-keyboard-response","282","242609","0.0-13.0-2.23","HiJEVLSaHw","65cb9e95bef5cb1d18b8517a","6617fad957f7c6a12ea16e26","6622cabf02abddf663c3d342","
    <div id=""grid-container"">
        <!-- Grid items will be dynamically added here -->
    </div>    ","null","","","","","","","","","","","",""
"","null","html-keyboard-response","283","243312","0.0-13.0-0.24","HiJEVLSaHw","65cb9e95bef5cb1d18b8517a","6617fad957f7c6a12ea16e26","6622cabf02abddf663c3d342","fixation cross","null","","","","","","","","","","","",""
"","null","html-keyboard-response","284","244114","0.0-13.0-1.24","HiJEVLSaHw","65cb9e95bef5cb1d18b8517a","6617fad957f7c6a12ea16e26","6622cabf02abddf663c3d342","
        <div id=""grid-container"">
        <!-- Grid items will be dynamically added here -->
    </div>    ","null","","","","","","","","","","","",""
"","1366","html-keyboard-response","285","244682","0.0-13.0-2.24","HiJEVLSaHw","65cb9e95bef5cb1d18b8517a","6617fad957f7c6a12ea16e26","6622cabf02abddf663c3d342","mask grid","p","","","","","Phylogenetic_Distractor_Nonthreat_target","800","onmask","p","7","Phylogenetic","true","experimental"
"","null","html-keyboard-response","286","245386","0.0-13.0-0.25","HiJEVLSaHw","65cb9e95bef5cb1d18b8517a","6617fad957f7c6a12ea16e26","6622cabf02abddf663c3d342","fixation cross","null","","","","","","","","","","","",""
"","509","html-keyboard-response","287","245896","0.0-13.0-1.25","HiJEVLSaHw","65cb9e95bef5cb1d18b8517a","6617fad957f7c6a12ea16e26","6622cabf02abddf663c3d342","image grid","q","","","","","Phylogenetic_Distractor_Threat_target","800","ongrid","q","4","Phylogenetic","true","experimental"
"","null","html-keyboard-response","288","246050","0.0-13.0-2.25","HiJEVLSaHw","65cb9e95bef5cb1d18b8517a","6617fad957f7c6a12ea16e26","6622cabf02abddf663c3d342","
    <div id=""grid-container"">
        <!-- Grid items will be dynamically added here -->
    </div>    ","null","","","","","","","","","","","",""
"","null","html-keyboard-response","289","246754","0.0-13.0-0.26","HiJEVLSaHw","65cb9e95bef5cb1d18b8517a","6617fad957f7c6a12ea16e26","6622cabf02abddf663c3d342","fixation cross","null","","","","","","","","","","","",""
"","542","html-keyboard-response","290","247297","0.0-13.0-1.26","HiJEVLSaHw","65cb9e95bef5cb1d18b8517a","6617fad957f7c6a12ea16e26","6622cabf02abddf663c3d342","image grid","q","","","","","Phylogenetic_Distractor_Threat_target","800","ongrid","q","4","Phylogenetic","true","experimental"
"","null","html-keyboard-response","291","247451","0.0-13.0-2.26","HiJEVLSaHw","65cb9e95bef5cb1d18b8517a","6617fad957f7c6a12ea16e26","6622cabf02abddf663c3d342","
    <div id=""grid-container"">
        <!-- Grid items will be dynamically added here -->
    </div>    ","null","","","","","","","","","","","",""
"","null","html-keyboard-response","292","248155","0.0-13.0-0.27","HiJEVLSaHw","65cb9e95bef5cb1d18b8517a","6617fad957f7c6a12ea16e26","6622cabf02abddf663c3d342","fixation cross","null","","","","","","","","","","","",""
"","654","html-keyboard-response","293","248809","0.0-13.0-1.27","HiJEVLSaHw","65cb9e95bef5cb1d18b8517a","6617fad957f7c6a12ea16e26","6622cabf02abddf663c3d342","image grid","q","","","","","Phylogenetic_Distractor_Threat_target","800","ongrid","q","6","Phylogenetic","true","experimental"
"","null","html-keyboard-response","294","248962","0.0-13.0-2.27","HiJEVLSaHw","65cb9e95bef5cb1d18b8517a","6617fad957f7c6a12ea16e26","6622cabf02abddf663c3d342","
    <div id=""grid-container"">
        <!-- Grid items will be dynamically added here -->
    </div>    ","null","","","","","","","","","","","",""
"","null","html-keyboard-response","295","249666","0.0-13.0-0.28","HiJEVLSaHw","65cb9e95bef5cb1d18b8517a","6617fad957f7c6a12ea16e26","6622cabf02abddf663c3d342","fixation cross","null","","","","","","","","","","","",""
"","658","html-keyboard-response","296","250325","0.0-13.0-1.28","HiJEVLSaHw","65cb9e95bef5cb1d18b8517a","6617fad957f7c6a12ea16e26","6622cabf02abddf663c3d342","image grid","p","","","","","Phylogenetic_Distractor_Nonthreat_target","800","ongrid","p","7","Phylogenetic","true","experimental"
"","null","html-keyboard-response","297","250476","0.0-13.0-2.28","HiJEVLSaHw","65cb9e95bef5cb1d18b8517a","6617fad957f7c6a12ea16e26","6622cabf02abddf663c3d342","
    <div id=""grid-container"">
        <!-- Grid items will be dynamically added here -->
    </div>    ","null","","","","","","","","","","","",""
"","null","html-keyboard-response","298","251180","0.0-13.0-0.29","HiJEVLSaHw","65cb9e95bef5cb1d18b8517a","6617fad957f7c6a12ea16e26","6622cabf02abddf663c3d342","fixation cross","null","","","","","","","","","","","",""
"","652","html-keyboard-response","299","251833","0.0-13.0-1.29","HiJEVLSaHw","65cb9e95bef5cb1d18b8517a","6617fad957f7c6a12ea16e26","6622cabf02abddf663c3d342","image grid","p","","","","","Phylogenetic_Distractor_Nonthreat_target","800","ongrid","p","4","Phylogenetic","true","experimental"
"","null","html-keyboard-response","300","251987","0.0-13.0-2.29","HiJEVLSaHw","65cb9e95bef5cb1d18b8517a","6617fad957f7c6a12ea16e26","6622cabf02abddf663c3d342","
    <div id=""grid-container"">
        <!-- Grid items will be dynamically added here -->
    </div>    ","null","","","","","","","","","","","",""
"","null","html-keyboard-response","301","252691","0.0-13.0-0.30","HiJEVLSaHw","65cb9e95bef5cb1d18b8517a","6617fad957f7c6a12ea16e26","6622cabf02abddf663c3d342","fixation cross","null","","","","","","","","","","","",""
"","null","html-keyboard-response","302","253493","0.0-13.0-1.30","HiJEVLSaHw","65cb9e95bef5cb1d18b8517a","6617fad957f7c6a12ea16e26","6622cabf02abddf663c3d342","
        <div id=""grid-container"">
        <!-- Grid items will be dynamically added here -->
    </div>    ","null","","","","","","","","","","","",""
"","1238","html-keyboard-response","303","253932","0.0-13.0-2.30","HiJEVLSaHw","65cb9e95bef5cb1d18b8517a","6617fad957f7c6a12ea16e26","6622cabf02abddf663c3d342","mask grid","p","","","","","Phylogenetic_Distractor_Nonthreat_target","800","onmask","p","3","Phylogenetic","true","experimental"
"","null","html-keyboard-response","304","254636","0.0-13.0-0.31","HiJEVLSaHw","65cb9e95bef5cb1d18b8517a","6617fad957f7c6a12ea16e26","6622cabf02abddf663c3d342","fixation cross","null","","","","","","","","","","","",""
"","null","html-keyboard-response","305","255438","0.0-13.0-1.31","HiJEVLSaHw","65cb9e95bef5cb1d18b8517a","6617fad957f7c6a12ea16e26","6622cabf02abddf663c3d342","
        <div id=""grid-container"">
        <!-- Grid items will be dynamically added here -->
    </div>    ","null","","","","","","","","","","","",""
"","1300","html-keyboard-response","306","255939","0.0-13.0-2.31","HiJEVLSaHw","65cb9e95bef5cb1d18b8517a","6617fad957f7c6a12ea16e26","6622cabf02abddf663c3d342","mask grid"," ","","","","","Phylogenetic_Distractor_notarget","800","onmask"," ","7","Phylogenetic","true","experimental"
"","null","html-keyboard-response","307","256644","0.0-13.0-0.32","HiJEVLSaHw","65cb9e95bef5cb1d18b8517a","6617fad957f7c6a12ea16e26","6622cabf02abddf663c3d342","fixation cross","null","","","","","","","","","","","",""
"","null","html-keyboard-response","308","257447","0.0-13.0-1.32","HiJEVLSaHw","65cb9e95bef5cb1d18b8517a","6617fad957f7c6a12ea16e26","6622cabf02abddf663c3d342","
        <div id=""grid-container"">
        <!-- Grid items will be dynamically added here -->
    </div>    ","null","","","","","","","","","","","",""
"","1292","html-keyboard-response","309","257940","0.0-13.0-2.32","HiJEVLSaHw","65cb9e95bef5cb1d18b8517a","6617fad957f7c6a12ea16e26","6622cabf02abddf663c3d342","mask grid"," ","","","","","Phylogenetic_Distractor_Nonthreat_target","800","onmask","p","7","Phylogenetic","false","experimental"
"","null","html-keyboard-response","310","258644","0.0-13.0-0.33","HiJEVLSaHw","65cb9e95bef5cb1d18b8517a","6617fad957f7c6a12ea16e26","6622cabf02abddf663c3d342","fixation cross","null","","","","","","","","","","","",""
"","null","html-keyboard-response","311","259446","0.0-13.0-1.33","HiJEVLSaHw","65cb9e95bef5cb1d18b8517a","6617fad957f7c6a12ea16e26","6622cabf02abddf663c3d342","
        <div id=""grid-container"">
        <!-- Grid items will be dynamically added here -->
    </div>    ","null","","","","","","","","","","","",""
"","1214","html-keyboard-response","312","259861","0.0-13.0-2.33","HiJEVLSaHw","65cb9e95bef5cb1d18b8517a","6617fad957f7c6a12ea16e26","6622cabf02abddf663c3d342","mask grid","p","","","","","Phylogenetic_Distractor_Nonthreat_target","800","onmask","p","8","Phylogenetic","true","experimental"
"","null","html-keyboard-response","313","260566","0.0-13.0-0.34","HiJEVLSaHw","65cb9e95bef5cb1d18b8517a","6617fad957f7c6a12ea16e26","6622cabf02abddf663c3d342","fixation cross","null","","","","","","","","","","","",""
"","534","html-keyboard-response","314","261101","0.0-13.0-1.34","HiJEVLSaHw","65cb9e95bef5cb1d18b8517a","6617fad957f7c6a12ea16e26","6622cabf02abddf663c3d342","image grid","q","","","","","Phylogenetic_Distractor_Threat_target","800","ongrid","q","4","Phylogenetic","true","experimental"
"","null","html-keyboard-response","315","261254","0.0-13.0-2.34","HiJEVLSaHw","65cb9e95bef5cb1d18b8517a","6617fad957f7c6a12ea16e26","6622cabf02abddf663c3d342","
    <div id=""grid-container"">
        <!-- Grid items will be dynamically added here -->
    </div>    ","null","","","","","","","","","","","",""
"","null","html-keyboard-response","316","261958","0.0-13.0-0.35","HiJEVLSaHw","65cb9e95bef5cb1d18b8517a","6617fad957f7c6a12ea16e26","6622cabf02abddf663c3d342","fixation cross","null","","","","","","","","","","","",""
"","null","html-keyboard-response","317","262760","0.0-13.0-1.35","HiJEVLSaHw","65cb9e95bef5cb1d18b8517a","6617fad957f7c6a12ea16e26","6622cabf02abddf663c3d342","
        <div id=""grid-container"">
        <!-- Grid items will be dynamically added here -->
    </div>    ","null","","","","","","","","","","","",""
"","1156","html-keyboard-response","318","263117","0.0-13.0-2.35","HiJEVLSaHw","65cb9e95bef5cb1d18b8517a","6617fad957f7c6a12ea16e26","6622cabf02abddf663c3d342","mask grid","p","","","","","Phylogenetic_Distractor_Nonthreat_target","800","onmask","p","9","Phylogenetic","true","experimental"
"","null","html-keyboard-response","319","263822","0.0-13.0-0.36","HiJEVLSaHw","65cb9e95bef5cb1d18b8517a","6617fad957f7c6a12ea16e26","6622cabf02abddf663c3d342","fixation cross","null","","","","","","","","","","","",""
"","638","html-keyboard-response","320","264460","0.0-13.0-1.36","HiJEVLSaHw","65cb9e95bef5cb1d18b8517a","6617fad957f7c6a12ea16e26","6622cabf02abddf663c3d342","image grid","q","","","","","Phylogenetic_Distractor_Threat_target","800","ongrid","q","8","Phylogenetic","true","experimental"
"","null","html-keyboard-response","321","264614","0.0-13.0-2.36","HiJEVLSaHw","65cb9e95bef5cb1d18b8517a","6617fad957f7c6a12ea16e26","6622cabf02abddf663c3d342","
    <div id=""grid-container"">
        <!-- Grid items will be dynamically added here -->
    </div>    ","null","","","","","","","","","","","",""
"","null","html-keyboard-response","322","265318","0.0-13.0-0.37","HiJEVLSaHw","65cb9e95bef5cb1d18b8517a","6617fad957f7c6a12ea16e26","6622cabf02abddf663c3d342","fixation cross","null","","","","","","","","","","","",""
"","null","html-keyboard-response","323","266120","0.0-13.0-1.37","HiJEVLSaHw","65cb9e95bef5cb1d18b8517a","6617fad957f7c6a12ea16e26","6622cabf02abddf663c3d342","
        <div id=""grid-container"">
        <!-- Grid items will be dynamically added here -->
    </div>    ","null","","","","","","","","","","","",""
"","886","html-keyboard-response","324","266208","0.0-13.0-2.37","HiJEVLSaHw","65cb9e95bef5cb1d18b8517a","6617fad957f7c6a12ea16e26","6622cabf02abddf663c3d342","mask grid","p","","","","","Phylogenetic_Distractor_Nonthreat_target","800","onmask","p","6","Phylogenetic","true","experimental"
"","null","html-keyboard-response","325","266911","0.0-13.0-0.38","HiJEVLSaHw","65cb9e95bef5cb1d18b8517a","6617fad957f7c6a12ea16e26","6622cabf02abddf663c3d342","fixation cross","null","","","","","","","","","","","",""
"","null","html-keyboard-response","326","267712","0.0-13.0-1.38","HiJEVLSaHw","65cb9e95bef5cb1d18b8517a","6617fad957f7c6a12ea16e26","6622cabf02abddf663c3d342","
        <div id=""grid-container"">
        <!-- Grid items will be dynamically added here -->
    </div>    ","null","","","","","","","","","","","",""
"","1269","html-keyboard-response","327","268182","0.0-13.0-2.38","HiJEVLSaHw","65cb9e95bef5cb1d18b8517a","6617fad957f7c6a12ea16e26","6622cabf02abddf663c3d342","mask grid","p","","","","","Phylogenetic_Distractor_notarget","800","onmask"," ","7","Phylogenetic","false","experimental"
"","null","html-keyboard-response","328","268886","0.0-13.0-0.39","HiJEVLSaHw","65cb9e95bef5cb1d18b8517a","6617fad957f7c6a12ea16e26","6622cabf02abddf663c3d342","fixation cross","null","","","","","","","","","","","",""
"","null","html-keyboard-response","329","269688","0.0-13.0-1.39","HiJEVLSaHw","65cb9e95bef5cb1d18b8517a","6617fad957f7c6a12ea16e26","6622cabf02abddf663c3d342","
        <div id=""grid-container"">
        <!-- Grid items will be dynamically added here -->
    </div>    ","null","","","","","","","","","","","",""
"","1288","html-keyboard-response","330","270177","0.0-13.0-2.39","HiJEVLSaHw","65cb9e95bef5cb1d18b8517a","6617fad957f7c6a12ea16e26","6622cabf02abddf663c3d342","mask grid"," ","","","","","Phylogenetic_Distractor_Threat_target","800","onmask","q","3","Phylogenetic","false","experimental"
"","4761","html-keyboard-response","331","275142","0.0-14.0","HiJEVLSaHw","65cb9e95bef5cb1d18b8517a","6617fad957f7c6a12ea16e26","6622cabf02abddf663c3d342","break screen"," ","","","","","","","","","","","",""
"","null","html-keyboard-response","332","277647","0.0-15.0-0.0","HiJEVLSaHw","65cb9e95bef5cb1d18b8517a","6617fad957f7c6a12ea16e26","6622cabf02abddf663c3d342","fixation cross","null","","","","","","","","","","","",""
"","1273","html-keyboard-response","333","278921","0.0-15.0-1.0","HiJEVLSaHw","65cb9e95bef5cb1d18b8517a","6617fad957f7c6a12ea16e26","6622cabf02abddf663c3d342","image grid","q","","","","","Ontogenetic_Distractor_Threat_target","2500","ongrid","q","4","Ontogenetic","true","experimental"
"","null","html-keyboard-response","334","279074","0.0-15.0-2.0","HiJEVLSaHw","65cb9e95bef5cb1d18b8517a","6617fad957f7c6a12ea16e26","6622cabf02abddf663c3d342","
    <div id=""grid-container"">
        <!-- Grid items will be dynamically added here -->
    </div>    ","null","","","","","","","","","","","",""
"","null","html-keyboard-response","335","279778","0.0-15.0-0.1","HiJEVLSaHw","65cb9e95bef5cb1d18b8517a","6617fad957f7c6a12ea16e26","6622cabf02abddf663c3d342","fixation cross","null","","","","","","","","","","","",""
"","1112","html-keyboard-response","336","280891","0.0-15.0-1.1","HiJEVLSaHw","65cb9e95bef5cb1d18b8517a","6617fad957f7c6a12ea16e26","6622cabf02abddf663c3d342","image grid","q","","","","","Ontogenetic_Distractor_Threat_target","2500","ongrid","q","7","Ontogenetic","true","experimental"
"","null","html-keyboard-response","337","281044","0.0-15.0-2.1","HiJEVLSaHw","65cb9e95bef5cb1d18b8517a","6617fad957f7c6a12ea16e26","6622cabf02abddf663c3d342","
    <div id=""grid-container"">
        <!-- Grid items will be dynamically added here -->
    </div>    ","null","","","","","","","","","","","",""
"","null","html-keyboard-response","338","281748","0.0-15.0-0.2","HiJEVLSaHw","65cb9e95bef5cb1d18b8517a","6617fad957f7c6a12ea16e26","6622cabf02abddf663c3d342","fixation cross","null","","","","","","","","","","","",""
"","852","html-keyboard-response","339","282600","0.0-15.0-1.2","HiJEVLSaHw","65cb9e95bef5cb1d18b8517a","6617fad957f7c6a12ea16e26","6622cabf02abddf663c3d342","image grid","q","","","","","Ontogenetic_Distractor_Threat_target","2500","ongrid","q","3","Ontogenetic","true","experimental"
"","null","html-keyboard-response","340","282753","0.0-15.0-2.2","HiJEVLSaHw","65cb9e95bef5cb1d18b8517a","6617fad957f7c6a12ea16e26","6622cabf02abddf663c3d342","
    <div id=""grid-container"">
        <!-- Grid items will be dynamically added here -->
    </div>    ","null","","","","","","","","","","","",""
"","null","html-keyboard-response","341","283458","0.0-15.0-0.3","HiJEVLSaHw","65cb9e95bef5cb1d18b8517a","6617fad957f7c6a12ea16e26","6622cabf02abddf663c3d342","fixation cross","null","","","","","","","","","","","",""
"","1262","html-keyboard-response","342","284721","0.0-15.0-1.3","HiJEVLSaHw","65cb9e95bef5cb1d18b8517a","6617fad957f7c6a12ea16e26","6622cabf02abddf663c3d342","image grid","p","","","","","Ontogenetic_Distractor_Nonthreat_target","2500","ongrid","p","8","Ontogenetic","true","experimental"
"","null","html-keyboard-response","343","284875","0.0-15.0-2.3","HiJEVLSaHw","65cb9e95bef5cb1d18b8517a","6617fad957f7c6a12ea16e26","6622cabf02abddf663c3d342","
    <div id=""grid-container"">
        <!-- Grid items will be dynamically added here -->
    </div>    ","null","","","","","","","","","","","",""
"","null","html-keyboard-response","344","285579","0.0-15.0-0.4","HiJEVLSaHw","65cb9e95bef5cb1d18b8517a","6617fad957f7c6a12ea16e26","6622cabf02abddf663c3d342","fixation cross","null","","","","","","","","","","","",""
"","1390","html-keyboard-response","345","286969","0.0-15.0-1.4","HiJEVLSaHw","65cb9e95bef5cb1d18b8517a","6617fad957f7c6a12ea16e26","6622cabf02abddf663c3d342","image grid","p","","","","","Ontogenetic_Distractor_Nonthreat_target","2500","ongrid","p","4","Ontogenetic","true","experimental"
"","null","html-keyboard-response","346","287121","0.0-15.0-2.4","HiJEVLSaHw","65cb9e95bef5cb1d18b8517a","6617fad957f7c6a12ea16e26","6622cabf02abddf663c3d342","
    <div id=""grid-container"">
        <!-- Grid items will be dynamically added here -->
    </div>    ","null","","","","","","","","","","","",""
"","null","html-keyboard-response","347","287825","0.0-15.0-0.5","HiJEVLSaHw","65cb9e95bef5cb1d18b8517a","6617fad957f7c6a12ea16e26","6622cabf02abddf663c3d342","fixation cross","null","","","","","","","","","","","",""
"","1419","html-keyboard-response","348","289245","0.0-15.0-1.5","HiJEVLSaHw","65cb9e95bef5cb1d18b8517a","6617fad957f7c6a12ea16e26","6622cabf02abddf663c3d342","image grid","q","","","","","Ontogenetic_Distractor_Threat_target","2500","ongrid","q","3","Ontogenetic","true","experimental"
"","null","html-keyboard-response","349","289399","0.0-15.0-2.5","HiJEVLSaHw","65cb9e95bef5cb1d18b8517a","6617fad957f7c6a12ea16e26","6622cabf02abddf663c3d342","
    <div id=""grid-container"">
        <!-- Grid items will be dynamically added here -->
    </div>    ","null","","","","","","","","","","","",""
"","null","html-keyboard-response","350","290102","0.0-15.0-0.6","HiJEVLSaHw","65cb9e95bef5cb1d18b8517a","6617fad957f7c6a12ea16e26","6622cabf02abddf663c3d342","fixation cross","null","","","","","","","","","","","",""
"","803","html-keyboard-response","351","290905","0.0-15.0-1.6","HiJEVLSaHw","65cb9e95bef5cb1d18b8517a","6617fad957f7c6a12ea16e26","6622cabf02abddf663c3d342","image grid","p","","","","","Ontogenetic_Distractor_Nonthreat_target","2500","ongrid","p","4","Ontogenetic","true","experimental"
"","null","html-keyboard-response","352","291058","0.0-15.0-2.6","HiJEVLSaHw","65cb9e95bef5cb1d18b8517a","6617fad957f7c6a12ea16e26","6622cabf02abddf663c3d342","
    <div id=""grid-container"">
        <!-- Grid items will be dynamically added here -->
    </div>    ","null","","","","","","","","","","","",""
"","null","html-keyboard-response","353","291762","0.0-15.0-0.7","HiJEVLSaHw","65cb9e95bef5cb1d18b8517a","6617fad957f7c6a12ea16e26","6622cabf02abddf663c3d342","fixation cross","null","","","","","","","","","","","",""
"","883","html-keyboard-response","354","292646","0.0-15.0-1.7","HiJEVLSaHw","65cb9e95bef5cb1d18b8517a","6617fad957f7c6a12ea16e26","6622cabf02abddf663c3d342","image grid","q","","","","","Ontogenetic_Distractor_Threat_target","2500","ongrid","q","7","Ontogenetic","true","experimental"
"","null","html-keyboard-response","355","292799","0.0-15.0-2.7","HiJEVLSaHw","65cb9e95bef5cb1d18b8517a","6617fad957f7c6a12ea16e26","6622cabf02abddf663c3d342","
    <div id=""grid-container"">
        <!-- Grid items will be dynamically added here -->
    </div>    ","null","","","","","","","","","","","",""
"","null","html-keyboard-response","356","293502","0.0-15.0-0.8","HiJEVLSaHw","65cb9e95bef5cb1d18b8517a","6617fad957f7c6a12ea16e26","6622cabf02abddf663c3d342","fixation cross","null","","","","","","","","","","","",""
"","1010","html-keyboard-response","357","294513","0.0-15.0-1.8","HiJEVLSaHw","65cb9e95bef5cb1d18b8517a","6617fad957f7c6a12ea16e26","6622cabf02abddf663c3d342","image grid","p","","","","","Ontogenetic_Distractor_Nonthreat_target","2500","ongrid","p","2","Ontogenetic","true","experimental"
"","null","html-keyboard-response","358","294666","0.0-15.0-2.8","HiJEVLSaHw","65cb9e95bef5cb1d18b8517a","6617fad957f7c6a12ea16e26","6622cabf02abddf663c3d342","
    <div id=""grid-container"">
        <!-- Grid items will be dynamically added here -->
    </div>    ","null","","","","","","","","","","","",""
"","null","html-keyboard-response","359","295370","0.0-15.0-0.9","HiJEVLSaHw","65cb9e95bef5cb1d18b8517a","6617fad957f7c6a12ea16e26","6622cabf02abddf663c3d342","fixation cross","null","","","","","","","","","","","",""
"","643","html-keyboard-response","360","296015","0.0-15.0-1.9","HiJEVLSaHw","65cb9e95bef5cb1d18b8517a","6617fad957f7c6a12ea16e26","6622cabf02abddf663c3d342","image grid","q","","","","","Ontogenetic_Distractor_Threat_target","2500","ongrid","q","2","Ontogenetic","true","experimental"
"","null","html-keyboard-response","361","296168","0.0-15.0-2.9","HiJEVLSaHw","65cb9e95bef5cb1d18b8517a","6617fad957f7c6a12ea16e26","6622cabf02abddf663c3d342","
    <div id=""grid-container"">
        <!-- Grid items will be dynamically added here -->
    </div>    ","null","","","","","","","","","","","",""
"","null","html-keyboard-response","362","296872","0.0-15.0-0.10","HiJEVLSaHw","65cb9e95bef5cb1d18b8517a","6617fad957f7c6a12ea16e26","6622cabf02abddf663c3d342","fixation cross","null","","","","","","","","","","","",""
"","769","html-keyboard-response","363","297641","0.0-15.0-1.10","HiJEVLSaHw","65cb9e95bef5cb1d18b8517a","6617fad957f7c6a12ea16e26","6622cabf02abddf663c3d342","image grid","p","","","","","Ontogenetic_Distractor_Nonthreat_target","2500","ongrid","p","2","Ontogenetic","true","experimental"
"","null","html-keyboard-response","364","297794","0.0-15.0-2.10","HiJEVLSaHw","65cb9e95bef5cb1d18b8517a","6617fad957f7c6a12ea16e26","6622cabf02abddf663c3d342","
    <div id=""grid-container"">
        <!-- Grid items will be dynamically added here -->
    </div>    ","null","","","","","","","","","","","",""
"","null","html-keyboard-response","365","298498","0.0-15.0-0.11","HiJEVLSaHw","65cb9e95bef5cb1d18b8517a","6617fad957f7c6a12ea16e26","6622cabf02abddf663c3d342","fixation cross","null","","","","","","","","","","","",""
"","1003","html-keyboard-response","366","299501","0.0-15.0-1.11","HiJEVLSaHw","65cb9e95bef5cb1d18b8517a","6617fad957f7c6a12ea16e26","6622cabf02abddf663c3d342","image grid","p","","","","","Ontogenetic_Distractor_Nonthreat_target","2500","ongrid","p","8","Ontogenetic","true","experimental"
"","null","html-keyboard-response","367","299654","0.0-15.0-2.11","HiJEVLSaHw","65cb9e95bef5cb1d18b8517a","6617fad957f7c6a12ea16e26","6622cabf02abddf663c3d342","
    <div id=""grid-container"">
        <!-- Grid items will be dynamically added here -->
    </div>    ","null","","","","","","","","","","","",""
"","null","html-keyboard-response","368","300359","0.0-15.0-0.12","HiJEVLSaHw","65cb9e95bef5cb1d18b8517a","6617fad957f7c6a12ea16e26","6622cabf02abddf663c3d342","fixation cross","null","","","","","","","","","","","",""
"","968","html-keyboard-response","369","301327","0.0-15.0-1.12","HiJEVLSaHw","65cb9e95bef5cb1d18b8517a","6617fad957f7c6a12ea16e26","6622cabf02abddf663c3d342","image grid","p","","","","","Ontogenetic_Distractor_Nonthreat_target","2500","ongrid","p","8","Ontogenetic","true","experimental"
"","null","html-keyboard-response","370","301481","0.0-15.0-2.12","HiJEVLSaHw","65cb9e95bef5cb1d18b8517a","6617fad957f7c6a12ea16e26","6622cabf02abddf663c3d342","
    <div id=""grid-container"">
