"success","rt","trial_type","trial_index","time_elapsed","internal_node_id","unique_identifier","subject_id","study_id","session_id","stimulus","response","timeout","failed_images","failed_audio","failed_video","task","time_manipulation","respondedwhen","correctresponse","targetimagelocation","blocktype","correct","roundtype"
"true","4617","fullscreen","0","5630","0.0-0.0","pWuQceoXIT","5efaa42dff658c8fb708b6a6","6617fad957f7c6a12ea16e26","6622c975ebe87f15b0789971","","","","","","","","","","","","","",""
"","12298","html-keyboard-response","1","17929","0.0-1.0","pWuQceoXIT","5efaa42dff658c8fb708b6a6","6617fad957f7c6a12ea16e26","6622c975ebe87f15b0789971","instruction screen 0","enter","","","","","","","","","","","",""
"true","","preload","2","34277","0.0-2.0","pWuQceoXIT","5efaa42dff658c8fb708b6a6","6617fad957f7c6a12ea16e26","6622c975ebe87f15b0789971","","","false","[]","[]","[]","","","","","","","",""
"","17241","html-keyboard-response","3","51518","0.0-3.0","pWuQceoXIT","5efaa42dff658c8fb708b6a6","6617fad957f7c6a12ea16e26","6622c975ebe87f15b0789971","instruction screen 1","enter","","","","","","","","","","","",""
"","9167","html-keyboard-response","4","60687","0.0-4.0","pWuQceoXIT","5efaa42dff658c8fb708b6a6","6617fad957f7c6a12ea16e26","6622c975ebe87f15b0789971","instruction screen 2","q","","","","","","","","","","","",""
"","7648","html-keyboard-response","5","68336","0.0-5.0","pWuQceoXIT","5efaa42dff658c8fb708b6a6","6617fad957f7c6a12ea16e26","6622c975ebe87f15b0789971","instruction screen 3","p","","","","","","","","","","","",""
"","6745","html-keyboard-response","6","75081","0.0-6.0","pWuQceoXIT","5efaa42dff658c8fb708b6a6","6617fad957f7c6a12ea16e26","6622c975ebe87f15b0789971","instruction screen 4"," ","","","","","","","","","","","",""
"","13624","html-keyboard-response","7","88706","0.0-7.0","pWuQceoXIT","5efaa42dff658c8fb708b6a6","6617fad957f7c6a12ea16e26","6622c975ebe87f15b0789971","instruction screen 5"," ","","","","","","","","","","","",""
"","null","html-keyboard-response","8","89214","0.0-8.0","pWuQceoXIT","5efaa42dff658c8fb708b6a6","6617fad957f7c6a12ea16e26","6622c975ebe87f15b0789971","fixation cross","null","","","","","","","","","","","",""
"","null","html-keyboard-response","9","89725","0.0-9.0-0.0","pWuQceoXIT","5efaa42dff658c8fb708b6a6","6617fad957f7c6a12ea16e26","6622c975ebe87f15b0789971","fixation cross","null","","","","","","","","","","","",""
"","2198","html-keyboard-response","10","91923","0.0-9.0-1.0","pWuQceoXIT","5efaa42dff658c8fb708b6a6","6617fad957f7c6a12ea16e26","6622c975ebe87f15b0789971","image grid"," ","","","","","Ontogenetic_Distractor_Threat_target","3000","ongrid","q","2","Ontogenetic","false","practice"
"","null","html-keyboard-response","11","92078","0.0-9.0-2.0","pWuQceoXIT","5efaa42dff658c8fb708b6a6","6617fad957f7c6a12ea16e26","6622c975ebe87f15b0789971","
    <div id=""grid-container"">
        <!-- Grid items will be dynamically added here -->
    </div>    ","null","","","","","","","","","","","",""
"","null","html-keyboard-response","12","93291","0.0-9.0-3.0","pWuQceoXIT","5efaa42dff658c8fb708b6a6","6617fad957f7c6a12ea16e26","6622c975ebe87f15b0789971","feedback screen","null","","","","","","","","","","","",""
"","null","html-keyboard-response","13","93792","0.0-9.0-0.1","pWuQceoXIT","5efaa42dff658c8fb708b6a6","6617fad957f7c6a12ea16e26","6622c975ebe87f15b0789971","fixation cross","null","","","","","","","","","","","",""
"","1491","html-keyboard-response","14","95284","0.0-9.0-1.1","pWuQceoXIT","5efaa42dff658c8fb708b6a6","6617fad957f7c6a12ea16e26","6622c975ebe87f15b0789971","image grid"," ","","","","","Ontogenetic_Distractor_notarget","2900","ongrid"," ","3","Ontogenetic","true","practice"
"","null","html-keyboard-response","15","95440","0.0-9.0-2.1","pWuQceoXIT","5efaa42dff658c8fb708b6a6","6617fad957f7c6a12ea16e26","6622c975ebe87f15b0789971","
    <div id=""grid-container"">
        <!-- Grid items will be dynamically added here -->
    </div>    ","null","","","","","","","","","","","",""
"","null","html-keyboard-response","16","96654","0.0-9.0-3.1","pWuQceoXIT","5efaa42dff658c8fb708b6a6","6617fad957f7c6a12ea16e26","6622c975ebe87f15b0789971","feedback screen","null","","","","","","","","","","","",""
"","null","html-keyboard-response","17","97157","0.0-9.0-0.2","pWuQceoXIT","5efaa42dff658c8fb708b6a6","6617fad957f7c6a12ea16e26","6622c975ebe87f15b0789971","fixation cross","null","","","","","","","","","","","",""
"","1398","html-keyboard-response","18","98556","0.0-9.0-1.2","pWuQceoXIT","5efaa42dff658c8fb708b6a6","6617fad957f7c6a12ea16e26","6622c975ebe87f15b0789971","image grid","q","","","","","Ontogenetic_Distractor_Threat_target","2800","ongrid","q","5","Ontogenetic","true","practice"
"","null","html-keyboard-response","19","98720","0.0-9.0-2.2","pWuQceoXIT","5efaa42dff658c8fb708b6a6","6617fad957f7c6a12ea16e26","6622c975ebe87f15b0789971","
    <div id=""grid-container"">
        <!-- Grid items will be dynamically added here -->
    </div>    ","null","","","","","","","","","","","",""
"","null","html-keyboard-response","20","99935","0.0-9.0-3.2","pWuQceoXIT","5efaa42dff658c8fb708b6a6","6617fad957f7c6a12ea16e26","6622c975ebe87f15b0789971","feedback screen","null","","","","","","","","","","","",""
"","null","html-keyboard-response","21","100439","0.0-9.0-0.3","pWuQceoXIT","5efaa42dff658c8fb708b6a6","6617fad957f7c6a12ea16e26","6622c975ebe87f15b0789971","fixation cross","null","","","","","","","","","","","",""
"","1859","html-keyboard-response","22","102300","0.0-9.0-1.3","pWuQceoXIT","5efaa42dff658c8fb708b6a6","6617fad957f7c6a12ea16e26","6622c975ebe87f15b0789971","image grid","p","","","","","Ontogenetic_Distractor_Nonthreat_target","2700","ongrid","p","3","Ontogenetic","true","practice"
"","null","html-keyboard-response","23","102455","0.0-9.0-2.3","pWuQceoXIT","5efaa42dff658c8fb708b6a6","6617fad957f7c6a12ea16e26","6622c975ebe87f15b0789971","
    <div id=""grid-container"">
        <!-- Grid items will be dynamically added here -->
    </div>    ","null","","","","","","","","","","","",""
"","null","html-keyboard-response","24","103739","0.0-9.0-3.3","pWuQceoXIT","5efaa42dff658c8fb708b6a6","6617fad957f7c6a12ea16e26","6622c975ebe87f15b0789971","feedback screen","null","","","","","","","","","","","",""
"","null","html-keyboard-response","25","104240","0.0-9.0-0.4","pWuQceoXIT","5efaa42dff658c8fb708b6a6","6617fad957f7c6a12ea16e26","6622c975ebe87f15b0789971","fixation cross","null","","","","","","","","","","","",""
"","1901","html-keyboard-response","26","106141","0.0-9.0-1.4","pWuQceoXIT","5efaa42dff658c8fb708b6a6","6617fad957f7c6a12ea16e26","6622c975ebe87f15b0789971","image grid"," ","","","","","Ontogenetic_Distractor_notarget","2600","ongrid"," ","2","Ontogenetic","true","practice"
"","null","html-keyboard-response","27","106298","0.0-9.0-2.4","pWuQceoXIT","5efaa42dff658c8fb708b6a6","6617fad957f7c6a12ea16e26","6622c975ebe87f15b0789971","
    <div id=""grid-container"">
        <!-- Grid items will be dynamically added here -->
    </div>    ","null","","","","","","","","","","","",""
"","null","html-keyboard-response","28","107510","0.0-9.0-3.4","pWuQceoXIT","5efaa42dff658c8fb708b6a6","6617fad957f7c6a12ea16e26","6622c975ebe87f15b0789971","feedback screen","null","","","","","","","","","","","",""
"","null","html-keyboard-response","29","108014","0.0-9.0-0.5","pWuQceoXIT","5efaa42dff658c8fb708b6a6","6617fad957f7c6a12ea16e26","6622c975ebe87f15b0789971","fixation cross","null","","","","","","","","","","","",""
"","1359","html-keyboard-response","30","109373","0.0-9.0-1.5","pWuQceoXIT","5efaa42dff658c8fb708b6a6","6617fad957f7c6a12ea16e26","6622c975ebe87f15b0789971","image grid","p","","","","","Ontogenetic_Distractor_Threat_target","2500","ongrid","q","9","Ontogenetic","false","practice"
"","null","html-keyboard-response","31","109534","0.0-9.0-2.5","pWuQceoXIT","5efaa42dff658c8fb708b6a6","6617fad957f7c6a12ea16e26","6622c975ebe87f15b0789971","
    <div id=""grid-container"">
        <!-- Grid items will be dynamically added here -->
    </div>    ","null","","","","","","","","","","","",""
"","null","html-keyboard-response","32","110748","0.0-9.0-3.5","pWuQceoXIT","5efaa42dff658c8fb708b6a6","6617fad957f7c6a12ea16e26","6622c975ebe87f15b0789971","feedback screen","null","","","","","","","","","","","",""
"","null","html-keyboard-response","33","111263","0.0-9.0-0.6","pWuQceoXIT","5efaa42dff658c8fb708b6a6","6617fad957f7c6a12ea16e26","6622c975ebe87f15b0789971","fixation cross","null","","","","","","","","","","","",""
"","1543","html-keyboard-response","34","112806","0.0-9.0-1.6","pWuQceoXIT","5efaa42dff658c8fb708b6a6","6617fad957f7c6a12ea16e26","6622c975ebe87f15b0789971","image grid","p","","","","","Phylogenetic_Distractor_Threat_target","2400","ongrid","q","2","Ontogenetic","false","practice"
"","null","html-keyboard-response","35","112969","0.0-9.0-2.6","pWuQceoXIT","5efaa42dff658c8fb708b6a6","6617fad957f7c6a12ea16e26","6622c975ebe87f15b0789971","
    <div id=""grid-container"">
        <!-- Grid items will be dynamically added here -->
    </div>    ","null","","","","","","","","","","","",""
"","null","html-keyboard-response","36","114188","0.0-9.0-3.6","pWuQceoXIT","5efaa42dff658c8fb708b6a6","6617fad957f7c6a12ea16e26","6622c975ebe87f15b0789971","feedback screen","null","","","","","","","","","","","",""
"","null","html-keyboard-response","37","114692","0.0-9.0-0.7","pWuQceoXIT","5efaa42dff658c8fb708b6a6","6617fad957f7c6a12ea16e26","6622c975ebe87f15b0789971","fixation cross","null","","","","","","","","","","","",""
"","1353","html-keyboard-response","38","116046","0.0-9.0-1.7","pWuQceoXIT","5efaa42dff658c8fb708b6a6","6617fad957f7c6a12ea16e26","6622c975ebe87f15b0789971","image grid","q","","","","","Phylogenetic_Distractor_Threat_target","2300","ongrid","q","2","Ontogenetic","true","practice"
"","null","html-keyboard-response","39","116200","0.0-9.0-2.7","pWuQceoXIT","5efaa42dff658c8fb708b6a6","6617fad957f7c6a12ea16e26","6622c975ebe87f15b0789971","
    <div id=""grid-container"">
        <!-- Grid items will be dynamically added here -->
    </div>    ","null","","","","","","","","","","","",""
"","null","html-keyboard-response","40","117411","0.0-9.0-3.7","pWuQceoXIT","5efaa42dff658c8fb708b6a6","6617fad957f7c6a12ea16e26","6622c975ebe87f15b0789971","feedback screen","null","","","","","","","","","","","",""
"","null","html-keyboard-response","41","117917","0.0-9.0-0.8","pWuQceoXIT","5efaa42dff658c8fb708b6a6","6617fad957f7c6a12ea16e26","6622c975ebe87f15b0789971","fixation cross","null","","","","","","","","","","","",""
"","2130","html-keyboard-response","42","120046","0.0-9.0-1.8","pWuQceoXIT","5efaa42dff658c8fb708b6a6","6617fad957f7c6a12ea16e26","6622c975ebe87f15b0789971","image grid"," ","","","","","Phylogenetic_Distractor_notarget","2200","ongrid"," ","9","Ontogenetic","true","practice"
"","null","html-keyboard-response","43","120205","0.0-9.0-2.8","pWuQceoXIT","5efaa42dff658c8fb708b6a6","6617fad957f7c6a12ea16e26","6622c975ebe87f15b0789971","
    <div id=""grid-container"">
        <!-- Grid items will be dynamically added here -->
    </div>    ","null","","","","","","","","","","","",""
"","null","html-keyboard-response","44","121422","0.0-9.0-3.8","pWuQceoXIT","5efaa42dff658c8fb708b6a6","6617fad957f7c6a12ea16e26","6622c975ebe87f15b0789971","feedback screen","null","","","","","","","","","","","",""
"","null","html-keyboard-response","45","121926","0.0-9.0-0.9","pWuQceoXIT","5efaa42dff658c8fb708b6a6","6617fad957f7c6a12ea16e26","6622c975ebe87f15b0789971","fixation cross","null","","","","","","","","","","","",""
"","1601","html-keyboard-response","46","123527","0.0-9.0-1.9","pWuQceoXIT","5efaa42dff658c8fb708b6a6","6617fad957f7c6a12ea16e26","6622c975ebe87f15b0789971","image grid","q","","","","","Phylogenetic_Distractor_Threat_target","2100","ongrid","q","8","Ontogenetic","true","practice"
"","null","html-keyboard-response","47","123687","0.0-9.0-2.9","pWuQceoXIT","5efaa42dff658c8fb708b6a6","6617fad957f7c6a12ea16e26","6622c975ebe87f15b0789971","
    <div id=""grid-container"">
        <!-- Grid items will be dynamically added here -->
    </div>    ","null","","","","","","","","","","","",""
"","null","html-keyboard-response","48","124906","0.0-9.0-3.9","pWuQceoXIT","5efaa42dff658c8fb708b6a6","6617fad957f7c6a12ea16e26","6622c975ebe87f15b0789971","feedback screen","null","","","","","","","","","","","",""
"","null","html-keyboard-response","49","125412","0.0-9.0-0.10","pWuQceoXIT","5efaa42dff658c8fb708b6a6","6617fad957f7c6a12ea16e26","6622c975ebe87f15b0789971","fixation cross","null","","","","","","","","","","","",""
"","null","html-keyboard-response","50","127414","0.0-9.0-1.10","pWuQceoXIT","5efaa42dff658c8fb708b6a6","6617fad957f7c6a12ea16e26","6622c975ebe87f15b0789971","
        <div id=""grid-container"">
        <!-- Grid items will be dynamically added here -->
    </div>    ","null","","","","","","","","","","","",""
"","6874","html-keyboard-response","51","132288","0.0-9.0-2.10","pWuQceoXIT","5efaa42dff658c8fb708b6a6","6617fad957f7c6a12ea16e26","6622c975ebe87f15b0789971","mask grid"," ","","","","","Phylogenetic_Distractor_notarget","2000","onmask"," ","4","Ontogenetic","true","practice"
"","null","html-keyboard-response","52","133515","0.0-9.0-3.10","pWuQceoXIT","5efaa42dff658c8fb708b6a6","6617fad957f7c6a12ea16e26","6622c975ebe87f15b0789971","feedback screen","null","","","","","","","","","","","",""
"","null","html-keyboard-response","53","134023","0.0-9.0-0.11","pWuQceoXIT","5efaa42dff658c8fb708b6a6","6617fad957f7c6a12ea16e26","6622c975ebe87f15b0789971","fixation cross","null","","","","","","","","","","","",""
"","1664","html-keyboard-response","54","135688","0.0-9.0-1.11","pWuQceoXIT","5efaa42dff658c8fb708b6a6","6617fad957f7c6a12ea16e26","6622c975ebe87f15b0789971","image grid"," ","","","","","Phylogenetic_Distractor_Nonthreat_target","1900","ongrid","p","5","Ontogenetic","false","practice"
"","null","html-keyboard-response","55","135839","0.0-9.0-2.11","pWuQceoXIT","5efaa42dff658c8fb708b6a6","6617fad957f7c6a12ea16e26","6622c975ebe87f15b0789971","
    <div id=""grid-container"">
        <!-- Grid items will be dynamically added here -->
    </div>    ","null","","","","","","","","","","","",""
"","null","html-keyboard-response","56","137045","0.0-9.0-3.11","pWuQceoXIT","5efaa42dff658c8fb708b6a6","6617fad957f7c6a12ea16e26","6622c975ebe87f15b0789971","feedback screen","null","","","","","","","","","","","",""
"","null","html-keyboard-response","57","137560","0.0-9.0-0.12","pWuQceoXIT","5efaa42dff658c8fb708b6a6","6617fad957f7c6a12ea16e26","6622c975ebe87f15b0789971","fixation cross","null","","","","","","","","","","","",""
"","1327","html-keyboard-response","58","138889","0.0-9.0-1.12","pWuQceoXIT","5efaa42dff658c8fb708b6a6","6617fad957f7c6a12ea16e26","6622c975ebe87f15b0789971","image grid","p","","","","","Phylogenetic_Distractor_Nonthreat_target","1800","ongrid","p","3","Ontogenetic","true","practice"
"","null","html-keyboard-response","59","139051","0.0-9.0-2.12","pWuQceoXIT","5efaa42dff658c8fb708b6a6","6617fad957f7c6a12ea16e26","6622c975ebe87f15b0789971","
    <div id=""grid-container"">
        <!-- Grid items will be dynamically added here -->
    </div>    ","null","","","","","","","","","","","",""
"","null","html-keyboard-response","60","140261","0.0-9.0-3.12","pWuQceoXIT","5efaa42dff658c8fb708b6a6","6617fad957f7c6a12ea16e26","6622c975ebe87f15b0789971","feedback screen","null","","","","","","","","","","","",""
"","null","html-keyboard-response","61","140763","0.0-9.0-0.13","pWuQceoXIT","5efaa42dff658c8fb708b6a6","6617fad957f7c6a12ea16e26","6622c975ebe87f15b0789971","fixation cross","null","","","","","","","","","","","",""
"","981","html-keyboard-response","62","141744","0.0-9.0-1.13","pWuQceoXIT","5efaa42dff658c8fb708b6a6","6617fad957f7c6a12ea16e26","6622c975ebe87f15b0789971","image grid","p","","","","","Phylogenetic_Distractor_Nonthreat_target","1700","ongrid","p","5","Ontogenetic","true","practice"
"","null","html-keyboard-response","63","141903","0.0-9.0-2.13","pWuQceoXIT","5efaa42dff658c8fb708b6a6","6617fad957f7c6a12ea16e26","6622c975ebe87f15b0789971","
    <div id=""grid-container"">
        <!-- Grid items will be dynamically added here -->
    </div>    ","null","","","","","","","","","","","",""
"","null","html-keyboard-response","64","143115","0.0-9.0-3.13","pWuQceoXIT","5efaa42dff658c8fb708b6a6","6617fad957f7c6a12ea16e26","6622c975ebe87f15b0789971","feedback screen","null","","","","","","","","","","","",""
"","null","html-keyboard-response","65","143625","0.0-9.0-0.14","pWuQceoXIT","5efaa42dff658c8fb708b6a6","6617fad957f7c6a12ea16e26","6622c975ebe87f15b0789971","fixation cross","null","","","","","","","","","","","",""
"","null","html-keyboard-response","66","145228","0.0-9.0-1.14","pWuQceoXIT","5efaa42dff658c8fb708b6a6","6617fad957f7c6a12ea16e26","6622c975ebe87f15b0789971","
        <div id=""grid-container"">
        <!-- Grid items will be dynamically added here -->
    </div>    ","null","","","","","","","","","","","",""
"","3182","html-keyboard-response","67","146810","0.0-9.0-2.14","pWuQceoXIT","5efaa42dff658c8fb708b6a6","6617fad957f7c6a12ea16e26","6622c975ebe87f15b0789971","mask grid","q","","","","","Phylogenetic_Distractor_Threat_target","1600","onmask","q","5","Ontogenetic","true","practice"
"","null","html-keyboard-response","68","148040","0.0-9.0-3.14","pWuQceoXIT","5efaa42dff658c8fb708b6a6","6617fad957f7c6a12ea16e26","6622c975ebe87f15b0789971","feedback screen","null","","","","","","","","","","","",""
"","null","html-keyboard-response","69","148547","0.0-9.0-0.15","pWuQceoXIT","5efaa42dff658c8fb708b6a6","6617fad957f7c6a12ea16e26","6622c975ebe87f15b0789971","fixation cross","null","","","","","","","","","","","",""
"","1111","html-keyboard-response","70","149658","0.0-9.0-1.15","pWuQceoXIT","5efaa42dff658c8fb708b6a6","6617fad957f7c6a12ea16e26","6622c975ebe87f15b0789971","image grid","q","","","","","Ontogenetic_Distractor_Threat_target","1500","ongrid","q","3","Ontogenetic","true","practice"
"","null","html-keyboard-response","71","149823","0.0-9.0-2.15","pWuQceoXIT","5efaa42dff658c8fb708b6a6","6617fad957f7c6a12ea16e26","6622c975ebe87f15b0789971","
    <div id=""grid-container"">
        <!-- Grid items will be dynamically added here -->
    </div>    ","null","","","","","","","","","","","",""
"","null","html-keyboard-response","72","151050","0.0-9.0-3.15","pWuQceoXIT","5efaa42dff658c8fb708b6a6","6617fad957f7c6a12ea16e26","6622c975ebe87f15b0789971","feedback screen","null","","","","","","","","","","","",""
"","null","html-keyboard-response","73","151551","0.0-9.0-0.16","pWuQceoXIT","5efaa42dff658c8fb708b6a6","6617fad957f7c6a12ea16e26","6622c975ebe87f15b0789971","fixation cross","null","","","","","","","","","","","",""
"","null","html-keyboard-response","74","152965","0.0-9.0-1.16","pWuQceoXIT","5efaa42dff658c8fb708b6a6","6617fad957f7c6a12ea16e26","6622c975ebe87f15b0789971","
        <div id=""grid-container"">
        <!-- Grid items will be dynamically added here -->
    </div>    ","null","","","","","","","","","","","",""
"","2605","html-keyboard-response","75","154171","0.0-9.0-2.16","pWuQceoXIT","5efaa42dff658c8fb708b6a6","6617fad957f7c6a12ea16e26","6622c975ebe87f15b0789971","mask grid"," ","","","","","Phylogenetic_Distractor_Nonthreat_target","1400","onmask","p","8","Ontogenetic","false","practice"
"","null","html-keyboard-response","76","155386","0.0-9.0-3.16","pWuQceoXIT","5efaa42dff658c8fb708b6a6","6617fad957f7c6a12ea16e26","6622c975ebe87f15b0789971","feedback screen","null","","","","","","","","","","","",""
"","null","html-keyboard-response","77","155887","0.0-9.0-0.17","pWuQceoXIT","5efaa42dff658c8fb708b6a6","6617fad957f7c6a12ea16e26","6622c975ebe87f15b0789971","fixation cross","null","","","","","","","","","","","",""
"","null","html-keyboard-response","78","157203","0.0-9.0-1.17","pWuQceoXIT","5efaa42dff658c8fb708b6a6","6617fad957f7c6a12ea16e26","6622c975ebe87f15b0789971","
        <div id=""grid-container"">
        <!-- Grid items will be dynamically added here -->
    </div>    ","null","","","","","","","","","","","",""
"","1475","html-keyboard-response","79","157378","0.0-9.0-2.17","pWuQceoXIT","5efaa42dff658c8fb708b6a6","6617fad957f7c6a12ea16e26","6622c975ebe87f15b0789971","mask grid","p","","","","","Ontogenetic_Distractor_Nonthreat_target","1300","onmask","p","2","Ontogenetic","true","practice"
"","null","html-keyboard-response","80","158592","0.0-9.0-3.17","pWuQceoXIT","5efaa42dff658c8fb708b6a6","6617fad957f7c6a12ea16e26","6622c975ebe87f15b0789971","feedback screen","null","","","","","","","","","","","",""
"","null","html-keyboard-response","81","159095","0.0-9.0-0.18","pWuQceoXIT","5efaa42dff658c8fb708b6a6","6617fad957f7c6a12ea16e26","6622c975ebe87f15b0789971","fixation cross","null","","","","","","","","","","","",""
"","932","html-keyboard-response","82","160027","0.0-9.0-1.18","pWuQceoXIT","5efaa42dff658c8fb708b6a6","6617fad957f7c6a12ea16e26","6622c975ebe87f15b0789971","image grid","p","","","","","Ontogenetic_Distractor_Nonthreat_target","1200","ongrid","p","5","Ontogenetic","true","practice"
"","null","html-keyboard-response","83","160183","0.0-9.0-2.18","pWuQceoXIT","5efaa42dff658c8fb708b6a6","6617fad957f7c6a12ea16e26","6622c975ebe87f15b0789971","
    <div id=""grid-container"">
        <!-- Grid items will be dynamically added here -->
    </div>    ","null","","","","","","","","","","","",""
"","null","html-keyboard-response","84","161391","0.0-9.0-3.18","pWuQceoXIT","5efaa42dff658c8fb708b6a6","6617fad957f7c6a12ea16e26","6622c975ebe87f15b0789971","feedback screen","null","","","","","","","","","","","",""
"","null","html-keyboard-response","85","161896","0.0-9.0-0.19","pWuQceoXIT","5efaa42dff658c8fb708b6a6","6617fad957f7c6a12ea16e26","6622c975ebe87f15b0789971","fixation cross","null","","","","","","","","","","","",""
"","875","html-keyboard-response","86","162771","0.0-9.0-1.19","pWuQceoXIT","5efaa42dff658c8fb708b6a6","6617fad957f7c6a12ea16e26","6622c975ebe87f15b0789971","image grid","p","","","","","Ontogenetic_Distractor_Nonthreat_target","1100","ongrid","p","8","Ontogenetic","true","practice"
"","null","html-keyboard-response","87","162925","0.0-9.0-2.19","pWuQceoXIT","5efaa42dff658c8fb708b6a6","6617fad957f7c6a12ea16e26","6622c975ebe87f15b0789971","
    <div id=""grid-container"">
        <!-- Grid items will be dynamically added here -->
    </div>    ","null","","","","","","","","","","","",""
"","null","html-keyboard-response","88","164141","0.0-9.0-3.19","pWuQceoXIT","5efaa42dff658c8fb708b6a6","6617fad957f7c6a12ea16e26","6622c975ebe87f15b0789971","feedback screen","null","","","","","","","","","","","",""
"","63599","html-keyboard-response","89","227741","0.0-10.0","pWuQceoXIT","5efaa42dff658c8fb708b6a6","6617fad957f7c6a12ea16e26","6622c975ebe87f15b0789971","pre-experimental_briefing"," ","","","","","","","","","","","",""
"","null","html-keyboard-response","90","230252","0.0-11.0-0.0","pWuQceoXIT","5efaa42dff658c8fb708b6a6","6617fad957f7c6a12ea16e26","6622c975ebe87f15b0789971","fixation cross","null","","","","","","","","","","","",""
"","null","html-keyboard-response","91","231055","0.0-11.0-1.0","pWuQceoXIT","5efaa42dff658c8fb708b6a6","6617fad957f7c6a12ea16e26","6622c975ebe87f15b0789971","
        <div id=""grid-container"">
        <!-- Grid items will be dynamically added here -->
    </div>    ","null","","","","","","","","","","","",""
"","1645","html-keyboard-response","92","231900","0.0-11.0-2.0","pWuQceoXIT","5efaa42dff658c8fb708b6a6","6617fad957f7c6a12ea16e26","6622c975ebe87f15b0789971","mask grid","p","","","","","Ontogenetic_Distractor_Nonthreat_target","800","onmask","p","3","Ontogenetic","true","experimental"
"","null","html-keyboard-response","93","232618","0.0-11.0-0.1","pWuQceoXIT","5efaa42dff658c8fb708b6a6","6617fad957f7c6a12ea16e26","6622c975ebe87f15b0789971","fixation cross","null","","","","","","","","","","","",""
"","null","html-keyboard-response","94","233434","0.0-11.0-1.1","pWuQceoXIT","5efaa42dff658c8fb708b6a6","6617fad957f7c6a12ea16e26","6622c975ebe87f15b0789971","
        <div id=""grid-container"">
        <!-- Grid items will be dynamically added here -->
    </div>    ","null","","","","","","","","","","","",""
"","1923","html-keyboard-response","95","234557","0.0-11.0-2.1","pWuQceoXIT","5efaa42dff658c8fb708b6a6","6617fad957f7c6a12ea16e26","6622c975ebe87f15b0789971","mask grid"," ","","","","","Ontogenetic_Distractor_Threat_target","800","onmask","q","6","Ontogenetic","false","experimental"
"","null","html-keyboard-response","96","235268","0.0-11.0-0.2","pWuQceoXIT","5efaa42dff658c8fb708b6a6","6617fad957f7c6a12ea16e26","6622c975ebe87f15b0789971","fixation cross","null","","","","","","","","","","","",""
"","null","html-keyboard-response","97","236085","0.0-11.0-1.2","pWuQceoXIT","5efaa42dff658c8fb708b6a6","6617fad957f7c6a12ea16e26","6622c975ebe87f15b0789971","
        <div id=""grid-container"">
        <!-- Grid items will be dynamically added here -->
    </div>    ","null","","","","","","","","","","","",""
"","1809","html-keyboard-response","98","237093","0.0-11.0-2.2","pWuQceoXIT","5efaa42dff658c8fb708b6a6","6617fad957f7c6a12ea16e26","6622c975ebe87f15b0789971","mask grid","q","","","","","Ontogenetic_Distractor_Threat_target","800","onmask","q","1","Ontogenetic","true","experimental"
"","null","html-keyboard-response","99","237808","0.0-11.0-0.3","pWuQceoXIT","5efaa42dff658c8fb708b6a6","6617fad957f7c6a12ea16e26","6622c975ebe87f15b0789971","fixation cross","null","","","","","","","","","","","",""
"","null","html-keyboard-response","100","238610","0.0-11.0-1.3","pWuQceoXIT","5efaa42dff658c8fb708b6a6","6617fad957f7c6a12ea16e26","6622c975ebe87f15b0789971","
        <div id=""grid-container"">
        <!-- Grid items will be dynamically added here -->
    </div>    ","null","","","","","","","","","","","",""
"","2068","html-keyboard-response","101","239878","0.0-11.0-2.3","pWuQceoXIT","5efaa42dff658c8fb708b6a6","6617fad957f7c6a12ea16e26","6622c975ebe87f15b0789971","mask grid"," ","","","","","Ontogenetic_Distractor_Threat_target","800","onmask","q","1","Ontogenetic","false","experimental"
"","null","html-keyboard-response","102","240625","0.0-11.0-0.4","pWuQceoXIT","5efaa42dff658c8fb708b6a6","6617fad957f7c6a12ea16e26","6622c975ebe87f15b0789971","fixation cross","null","","","","","","","","","","","",""
"","null","html-keyboard-response","103","241432","0.0-11.0-1.4","pWuQceoXIT","5efaa42dff658c8fb708b6a6","6617fad957f7c6a12ea16e26","6622c975ebe87f15b0789971","
        <div id=""grid-container"">
        <!-- Grid items will be dynamically added here -->
    </div>    ","null","","","","","","","","","","","",""
"","1702","html-keyboard-response","104","242333","0.0-11.0-2.4","pWuQceoXIT","5efaa42dff658c8fb708b6a6","6617fad957f7c6a12ea16e26","6622c975ebe87f15b0789971","mask grid","q","","","","","Ontogenetic_Distractor_Threat_target","800","onmask","q","5","Ontogenetic","true","experimental"
"","null","html-keyboard-response","105","243041","0.0-11.0-0.5","pWuQceoXIT","5efaa42dff658c8fb708b6a6","6617fad957f7c6a12ea16e26","6622c975ebe87f15b0789971","fixation cross","null","","","","","","","","","","","",""
"","null","html-keyboard-response","106","243842","0.0-11.0-1.5","pWuQceoXIT","5efaa42dff658c8fb708b6a6","6617fad957f7c6a12ea16e26","6622c975ebe87f15b0789971","
        <div id=""grid-container"">
        <!-- Grid items will be dynamically added here -->
    </div>    ","null","","","","","","","","","","","",""
"","1420","html-keyboard-response","107","244461","0.0-11.0-2.5","pWuQceoXIT","5efaa42dff658c8fb708b6a6","6617fad957f7c6a12ea16e26","6622c975ebe87f15b0789971","mask grid","q","","","","","Ontogenetic_Distractor_Threat_target","800","onmask","q","4","Ontogenetic","true","experimental"
"","null","html-keyboard-response","108","245180","0.0-11.0-0.6","pWuQceoXIT","5efaa42dff658c8fb708b6a6","6617fad957f7c6a12ea16e26","6622c975ebe87f15b0789971","fixation cross","null","","","","","","","","","","","",""
"","null","html-keyboard-response","109","245984","0.0-11.0-1.6","pWuQceoXIT","5efaa42dff658c8fb708b6a6","6617fad957f7c6a12ea16e26","6622c975ebe87f15b0789971","
        <div id=""grid-container"">
        <!-- Grid items will be dynamically added here -->
    </div>    ","null","","","","","","","","","","","",""
"","2183","html-keyboard-response","110","247367","0.0-11.0-2.6","pWuQceoXIT","5efaa42dff658c8fb708b6a6","6617fad957f7c6a12ea16e26","6622c975ebe87f15b0789971","mask grid"," ","","","","","Ontogenetic_Distractor_notarget","800","onmask"," ","3","Ontogenetic","true","experimental"
"","null","html-keyboard-response","111","248091","0.0-11.0-0.7","pWuQceoXIT","5efaa42dff658c8fb708b6a6","6617fad957f7c6a12ea16e26","6622c975ebe87f15b0789971","fixation cross","null","","","","","","","","","","","",""
"","null","html-keyboard-response","112","248902","0.0-11.0-1.7","pWuQceoXIT","5efaa42dff658c8fb708b6a6","6617fad957f7c6a12ea16e26","6622c975ebe87f15b0789971","
        <div id=""grid-container"">
        <!-- Grid items will be dynamically added here -->
    </div>    ","null","","","","","","","","","","","",""
"","2224","html-keyboard-response","113","250327","0.0-11.0-2.7","pWuQceoXIT","5efaa42dff658c8fb708b6a6","6617fad957f7c6a12ea16e26","6622c975ebe87f15b0789971","mask grid","p","","","","","Ontogenetic_Distractor_notarget","800","onmask"," ","8","Ontogenetic","false","experimental"
"","null","html-keyboard-response","114","251035","0.0-11.0-0.8","pWuQceoXIT","5efaa42dff658c8fb708b6a6","6617fad957f7c6a12ea16e26","6622c975ebe87f15b0789971","fixation cross","null","","","","","","","","","","","",""
"","null","html-keyboard-response","115","251839","0.0-11.0-1.8","pWuQceoXIT","5efaa42dff658c8fb708b6a6","6617fad957f7c6a12ea16e26","6622c975ebe87f15b0789971","
        <div id=""grid-container"">
        <!-- Grid items will be dynamically added here -->
    </div>    ","null","","","","","","","","","","","",""
"","943","html-keyboard-response","116","251983","0.0-11.0-2.8","pWuQceoXIT","5efaa42dff658c8fb708b6a6","6617fad957f7c6a12ea16e26","6622c975ebe87f15b0789971","mask grid","p","","","","","Ontogenetic_Distractor_Threat_target","800","onmask","q","2","Ontogenetic","false","experimental"
"","null","html-keyboard-response","117","252688","0.0-11.0-0.9","pWuQceoXIT","5efaa42dff658c8fb708b6a6","6617fad957f7c6a12ea16e26","6622c975ebe87f15b0789971","fixation cross","null","","","","","","","","","","","",""
"","null","html-keyboard-response","118","253499","0.0-11.0-1.9","pWuQceoXIT","5efaa42dff658c8fb708b6a6","6617fad957f7c6a12ea16e26","6622c975ebe87f15b0789971","
        <div id=""grid-container"">
        <!-- Grid items will be dynamically added here -->
    </div>    ","null","","","","","","","","","","","",""
"","1819","html-keyboard-response","119","254520","0.0-11.0-2.9","pWuQceoXIT","5efaa42dff658c8fb708b6a6","6617fad957f7c6a12ea16e26","6622c975ebe87f15b0789971","mask grid","p","","","","","Ontogenetic_Distractor_Nonthreat_target","800","onmask","p","4","Ontogenetic","true","experimental"
"","null","html-keyboard-response","120","255235","0.0-11.0-0.10","pWuQceoXIT","5efaa42dff658c8fb708b6a6","6617fad957f7c6a12ea16e26","6622c975ebe87f15b0789971","fixation cross","null","","","","","","","","","","","",""
"","null","html-keyboard-response","121","256038","0.0-11.0-1.10","pWuQceoXIT","5efaa42dff658c8fb708b6a6","6617fad957f7c6a12ea16e26","6622c975ebe87f15b0789971","
        <div id=""grid-container"">
        <!-- Grid items will be dynamically added here -->
    </div>    ","null","","","","","","","","","","","",""
"","1721","html-keyboard-response","122","256959","0.0-11.0-2.10","pWuQceoXIT","5efaa42dff658c8fb708b6a6","6617fad957f7c6a12ea16e26","6622c975ebe87f15b0789971","mask grid"," ","","","","","Ontogenetic_Distractor_notarget","800","onmask"," ","1","Ontogenetic","true","experimental"
"","null","html-keyboard-response","123","257679","0.0-11.0-0.11","pWuQceoXIT","5efaa42dff658c8fb708b6a6","6617fad957f7c6a12ea16e26","6622c975ebe87f15b0789971","fixation cross","null","","","","","","","","","","","",""
"","null","html-keyboard-response","124","258490","0.0-11.0-1.11","pWuQceoXIT","5efaa42dff658c8fb708b6a6","6617fad957f7c6a12ea16e26","6622c975ebe87f15b0789971","
        <div id=""grid-container"">
        <!-- Grid items will be dynamically added here -->
    </div>    ","null","","","","","","","","","","","",""
"","1630","html-keyboard-response","125","259321","0.0-11.0-2.11","pWuQceoXIT","5efaa42dff658c8fb708b6a6","6617fad957f7c6a12ea16e26","6622c975ebe87f15b0789971","mask grid","p","","","","","Ontogenetic_Distractor_Nonthreat_target","800","onmask","p","5","Ontogenetic","true","experimental"
"","null","html-keyboard-response","126","260047","0.0-11.0-0.12","pWuQceoXIT","5efaa42dff658c8fb708b6a6","6617fad957f7c6a12ea16e26","6622c975ebe87f15b0789971","fixation cross","null","","","","","","","","","","","",""
"","null","html-keyboard-response","127","260848","0.0-11.0-1.12","pWuQceoXIT","5efaa42dff658c8fb708b6a6","6617fad957f7c6a12ea16e26","6622c975ebe87f15b0789971","
        <div id=""grid-container"">
        <!-- Grid items will be dynamically added here -->
    </div>    ","null","","","","","","","","","","","",""
"","1719","html-keyboard-response","128","261768","0.0-11.0-2.12","pWuQceoXIT","5efaa42dff658c8fb708b6a6","6617fad957f7c6a12ea16e26","6622c975ebe87f15b0789971","mask grid","p","","","","","Ontogenetic_Distractor_Nonthreat_target","800","onmask","p","6","Ontogenetic","true","experimental"
"","null","html-keyboard-response","129","262480","0.0-11.0-0.13","pWuQceoXIT","5efaa42dff658c8fb708b6a6","6617fad957f7c6a12ea16e26","6622c975ebe87f15b0789971","fixation cross","null","","","","","","","","","","","",""
"","null","html-keyboard-response","130","263289","0.0-11.0-1.13","pWuQceoXIT","5efaa42dff658c8fb708b6a6","6617fad957f7c6a12ea16e26","6622c975ebe87f15b0789971","
        <div id=""grid-container"">
        <!-- Grid items will be dynamically added here -->
    </div>    ","null","","","","","","","","","","","",""
"","1743","html-keyboard-response","131","264232","0.0-11.0-2.13","pWuQceoXIT","5efaa42dff658c8fb708b6a6","6617fad957f7c6a12ea16e26","6622c975ebe87f15b0789971","mask grid","p","","","","","Ontogenetic_Distractor_Nonthreat_target","800","onmask","p","7","Ontogenetic","true","experimental"
"","null","html-keyboard-response","132","264940","0.0-11.0-0.14","pWuQceoXIT","5efaa42dff658c8fb708b6a6","6617fad957f7c6a12ea16e26","6622c975ebe87f15b0789971","fixation cross","null","","","","","","","","","","","",""
"","null","html-keyboard-response","133","265753","0.0-11.0-1.14","pWuQceoXIT","5efaa42dff658c8fb708b6a6","6617fad957f7c6a12ea16e26","6622c975ebe87f15b0789971","
        <div id=""grid-container"">
        <!-- Grid items will be dynamically added here -->
    </div>    ","null","","","","","","","","","","","",""
"","1831","html-keyboard-response","134","266785","0.0-11.0-2.14","pWuQceoXIT","5efaa42dff658c8fb708b6a6","6617fad957f7c6a12ea16e26","6622c975ebe87f15b0789971","mask grid","p","","","","","Ontogenetic_Distractor_Nonthreat_target","800","onmask","p","4","Ontogenetic","true","experimental"
"","null","html-keyboard-response","135","267497","0.0-11.0-0.15","pWuQceoXIT","5efaa42dff658c8fb708b6a6","6617fad957f7c6a12ea16e26","6622c975ebe87f15b0789971","fixation cross","null","","","","","","","","","","","",""
"","null","html-keyboard-response","136","268306","0.0-11.0-1.15","pWuQceoXIT","5efaa42dff658c8fb708b6a6","6617fad957f7c6a12ea16e26","6622c975ebe87f15b0789971","
        <div id=""grid-container"">
        <!-- Grid items will be dynamically added here -->
    </div>    ","null","","","","","","","","","","","",""
"","2087","html-keyboard-response","137","269594","0.0-11.0-2.15","pWuQceoXIT","5efaa42dff658c8fb708b6a6","6617fad957f7c6a12ea16e26","6622c975ebe87f15b0789971","mask grid","p","","","","","Ontogenetic_Distractor_Nonthreat_target","800","onmask","p","1","Ontogenetic","true","experimental"
"","null","html-keyboard-response","138","270298","0.0-11.0-0.16","pWuQceoXIT","5efaa42dff658c8fb708b6a6","6617fad957f7c6a12ea16e26","6622c975ebe87f15b0789971","fixation cross","null","","","","","","","","","","","",""
"","null","html-keyboard-response","139","271111","0.0-11.0-1.16","pWuQceoXIT","5efaa42dff658c8fb708b6a6","6617fad957f7c6a12ea16e26","6622c975ebe87f15b0789971","
        <div id=""grid-container"">
        <!-- Grid items will be dynamically added here -->
    </div>    ","null","","","","","","","","","","","",""
"","2257","html-keyboard-response","140","272569","0.0-11.0-2.16","pWuQceoXIT","5efaa42dff658c8fb708b6a6","6617fad957f7c6a12ea16e26","6622c975ebe87f15b0789971","mask grid","p","","","","","Ontogenetic_Distractor_Nonthreat_target","800","onmask","p","5","Ontogenetic","true","experimental"
"","null","html-keyboard-response","141","273274","0.0-11.0-0.17","pWuQceoXIT","5efaa42dff658c8fb708b6a6","6617fad957f7c6a12ea16e26","6622c975ebe87f15b0789971","fixation cross","null","","","","","","","","","","","",""
"","null","html-keyboard-response","142","274086","0.0-11.0-1.17","pWuQceoXIT","5efaa42dff658c8fb708b6a6","6617fad957f7c6a12ea16e26","6622c975ebe87f15b0789971","
        <div id=""grid-container"">
        <!-- Grid items will be dynamically added here -->
    </div>    ","null","","","","","","","","","","","",""
"","1515","html-keyboard-response","143","274802","0.0-11.0-2.17","pWuQceoXIT","5efaa42dff658c8fb708b6a6","6617fad957f7c6a12ea16e26","6622c975ebe87f15b0789971","mask grid","q","","","","","Ontogenetic_Distractor_Threat_target","800","onmask","q","2","Ontogenetic","true","experimental"
"","null","html-keyboard-response","144","275512","0.0-11.0-0.18","pWuQceoXIT","5efaa42dff658c8fb708b6a6","6617fad957f7c6a12ea16e26","6622c975ebe87f15b0789971","fixation cross","null","","","","","","","","","","","",""
"","null","html-keyboard-response","145","276319","0.0-11.0-1.18","pWuQceoXIT","5efaa42dff658c8fb708b6a6","6617fad957f7c6a12ea16e26","6622c975ebe87f15b0789971","
        <div id=""grid-container"">
        <!-- Grid items will be dynamically added here -->
    </div>    ","null","","","","","","","","","","","",""
"","1891","html-keyboard-response","146","277410","0.0-11.0-2.18","pWuQceoXIT","5efaa42dff658c8fb708b6a6","6617fad957f7c6a12ea16e26","6622c975ebe87f15b0789971","mask grid","q","","","","","Ontogenetic_Distractor_Threat_target","800","onmask","q","7","Ontogenetic","true","experimental"
"","null","html-keyboard-response","147","278138","0.0-11.0-0.19","pWuQceoXIT","5efaa42dff658c8fb708b6a6","6617fad957f7c6a12ea16e26","6622c975ebe87f15b0789971","fixation cross","null","","","","","","","","","","","",""
"","null","html-keyboard-response","148","278950","0.0-11.0-1.19","pWuQceoXIT","5efaa42dff658c8fb708b6a6","6617fad957f7c6a12ea16e26","6622c975ebe87f15b0789971","
        <div id=""grid-container"">
        <!-- Grid items will be dynamically added here -->
    </div>    ","null","","","","","","","","","","","",""
"","1621","html-keyboard-response","149","279771","0.0-11.0-2.19","pWuQceoXIT","5efaa42dff658c8fb708b6a6","6617fad957f7c6a12ea16e26","6622c975ebe87f15b0789971","mask grid","q","","","","","Ontogenetic_Distractor_Threat_target","800","onmask","q","1","Ontogenetic","true","experimental"
"","null","html-keyboard-response","150","280478","0.0-11.0-0.20","pWuQceoXIT","5efaa42dff658c8fb708b6a6","6617fad957f7c6a12ea16e26","6622c975ebe87f15b0789971","fixation cross","null","","","","","","","","","","","",""
"","null","html-keyboard-response","151","281282","0.0-11.0-1.20","pWuQceoXIT","5efaa42dff658c8fb708b6a6","6617fad957f7c6a12ea16e26","6622c975ebe87f15b0789971","
        <div id=""grid-container"">
        <!-- Grid items will be dynamically added here -->
    </div>    ","null","","","","","","","","","","","",""
"","1425","html-keyboard-response","152","281907","0.0-11.0-2.20","pWuQceoXIT","5efaa42dff658c8fb708b6a6","6617fad957f7c6a12ea16e26","6622c975ebe87f15b0789971","mask grid","q","","","","","Ontogenetic_Distractor_Threat_target","800","onmask","q","5","Ontogenetic","true","experimental"
"","null","html-keyboard-response","153","282623","0.0-11.0-0.21","pWuQceoXIT","5efaa42dff658c8fb708b6a6","6617fad957f7c6a12ea16e26","6622c975ebe87f15b0789971","fixation cross","null","","","","","","","","","","","",""
"","null","html-keyboard-response","154","283457","0.0-11.0-1.21","pWuQceoXIT","5efaa42dff658c8fb708b6a6","6617fad957f7c6a12ea16e26","6622c975ebe87f15b0789971","
        <div id=""grid-container"">
        <!-- Grid items will be dynamically added here -->
    </div>    ","null","","","","","","","","","","","",""
"","2091","html-keyboard-response","155","284747","0.0-11.0-2.21","pWuQceoXIT","5efaa42dff658c8fb708b6a6","6617fad957f7c6a12ea16e26","6622c975ebe87f15b0789971","mask grid"," ","","","","","Ontogenetic_Distractor_Threat_target","800","onmask","q","4","Ontogenetic","false","experimental"
"","null","html-keyboard-response","156","285469","0.0-11.0-0.22","pWuQceoXIT","5efaa42dff658c8fb708b6a6","6617fad957f7c6a12ea16e26","6622c975ebe87f15b0789971","fixation cross","null","","","","","","","","","","","",""
"","null","html-keyboard-response","157","286281","0.0-11.0-1.22","pWuQceoXIT","5efaa42dff658c8fb708b6a6","6617fad957f7c6a12ea16e26","6622c975ebe87f15b0789971","
        <div id=""grid-container"">
        <!-- Grid items will be dynamically added here -->
    </div>    ","null","","","","","","","","","","","",""
"","1536","html-keyboard-response","158","287019","0.0-11.0-2.22","pWuQceoXIT","5efaa42dff658c8fb708b6a6","6617fad957f7c6a12ea16e26","6622c975ebe87f15b0789971","mask grid","p","","","","","Ontogenetic_Distractor_Nonthreat_target","800","onmask","p","1","Ontogenetic","true","experimental"
"","null","html-keyboard-response","159","287730","0.0-11.0-0.23","pWuQceoXIT","5efaa42dff658c8fb708b6a6","6617fad957f7c6a12ea16e26","6622c975ebe87f15b0789971","fixation cross","null","","","","","","","","","","","",""
"","null","html-keyboard-response","160","288540","0.0-11.0-1.23","pWuQceoXIT","5efaa42dff658c8fb708b6a6","6617fad957f7c6a12ea16e26","6622c975ebe87f15b0789971","
        <div id=""grid-container"">
        <!-- Grid items will be dynamically added here -->
    </div>    ","null","","","","","","","","","","","",""
"","1631","html-keyboard-response","161","289371","0.0-11.0-2.23","pWuQceoXIT","5efaa42dff658c8fb708b6a6","6617fad957f7c6a12ea16e26","6622c975ebe87f15b0789971","mask grid","q","","","","","Ontogenetic_Distractor_Threat_target","800","onmask","q","3","Ontogenetic","true","experimental"
"","null","html-keyboard-response","162","290075","0.0-11.0-0.24","pWuQceoXIT","5efaa42dff658c8fb708b6a6","6617fad957f7c6a12ea16e26","6622c975ebe87f15b0789971","fixation cross","null","","","","","","","","","","","",""
"","null","html-keyboard-response","163","290885","0.0-11.0-1.24","pWuQceoXIT","5efaa42dff658c8fb708b6a6","6617fad957f7c6a12ea16e26","6622c975ebe87f15b0789971","
        <div id=""grid-container"">
        <!-- Grid items will be dynamically added here -->
    </div>    ","null","","","","","","","","","","","",""
"","2929","html-keyboard-response","164","293013","0.0-11.0-2.24","pWuQceoXIT","5efaa42dff658c8fb708b6a6","6617fad957f7c6a12ea16e26","6622c975ebe87f15b0789971","mask grid","p","","","","","Ontogenetic_Distractor_Nonthreat_target","800","onmask","p","4","Ontogenetic","true","experimental"
"","null","html-keyboard-response","165","293730","0.0-11.0-0.25","pWuQceoXIT","5efaa42dff658c8fb708b6a6","6617fad957f7c6a12ea16e26","6622c975ebe87f15b0789971","fixation cross","null","","","","","","","","","","","",""
"","null","html-keyboard-response","166","294531","0.0-11.0-1.25","pWuQceoXIT","5efaa42dff658c8fb708b6a6","6617fad957f7c6a12ea16e26","6622c975ebe87f15b0789971","
        <div id=""grid-container"">
        <!-- Grid items will be dynamically added here -->
    </div>    ","null","","","","","","","","","","","",""
"","1664","html-keyboard-response","167","295396","0.0-11.0-2.25","pWuQceoXIT","5efaa42dff658c8fb708b6a6","6617fad957f7c6a12ea16e26","6622c975ebe87f15b0789971","mask grid","q","","","","","Ontogenetic_Distractor_Threat_target","800","onmask","q","4","Ontogenetic","true","experimental"
"","null","html-keyboard-response","168","296103","0.0-11.0-0.26","pWuQceoXIT","5efaa42dff658c8fb708b6a6","6617fad957f7c6a12ea16e26","6622c975ebe87f15b0789971","fixation cross","null","","","","","","","","","","","",""
"","null","html-keyboard-response","169","296914","0.0-11.0-1.26","pWuQceoXIT","5efaa42dff658c8fb708b6a6","6617fad957f7c6a12ea16e26","6622c975ebe87f15b0789971","
        <div id=""grid-container"">
        <!-- Grid items will be dynamically added here -->
    </div>    ","null","","","","","","","","","","","",""
"","1379","html-keyboard-response","170","297493","0.0-11.0-2.26","pWuQceoXIT","5efaa42dff658c8fb708b6a6","6617fad957f7c6a12ea16e26","6622c975ebe87f15b0789971","mask grid","p","","","","","Ontogenetic_Distractor_Nonthreat_target","800","onmask","p","2","Ontogenetic","true","experimental"
"","null","html-keyboard-response","171","298195","0.0-11.0-0.27","pWuQceoXIT","5efaa42dff658c8fb708b6a6","6617fad957f7c6a12ea16e26","6622c975ebe87f15b0789971","fixation cross","null","","","","","","","","","","","",""
"","null","html-keyboard-response","172","299002","0.0-11.0-1.27","pWuQceoXIT","5efaa42dff658c8fb708b6a6","6617fad957f7c6a12ea16e26","6622c975ebe87f15b0789971","
        <div id=""grid-container"">
        <!-- Grid items will be dynamically added here -->
    </div>    ","null","","","","","","","","","","","",""
"","1634","html-keyboard-response","173","299836","0.0-11.0-2.27","pWuQceoXIT","5efaa42dff658c8fb708b6a6","6617fad957f7c6a12ea16e26","6622c975ebe87f15b0789971","mask grid","p","","","","","Ontogenetic_Distractor_Nonthreat_target","800","onmask","p","9","Ontogenetic","true","experimental"
"","null","html-keyboard-response","174","300568","0.0-11.0-0.28","pWuQceoXIT","5efaa42dff658c8fb708b6a6","6617fad957f7c6a12ea16e26","6622c975ebe87f15b0789971","fixation cross","null","","","","","","","","","","","",""
"","null","html-keyboard-response","175","301368","0.0-11.0-1.28","pWuQceoXIT","5efaa42dff658c8fb708b6a6","6617fad957f7c6a12ea16e26","6622c975ebe87f15b0789971","
        <div id=""grid-container"">
        <!-- Grid items will be dynamically added here -->
    </div>    ","null","","","","","","","","","","","",""
"","1605","html-keyboard-response","176","302173","0.0-11.0-2.28","pWuQceoXIT","5efaa42dff658c8fb708b6a6","6617fad957f7c6a12ea16e26","6622c975ebe87f15b0789971","mask grid","p","","","","","Ontogenetic_Distractor_Nonthreat_target","800","onmask","p","7","Ontogenetic","true","experimental"
"","null","html-keyboard-response","177","302881","0.0-11.0-0.29","pWuQceoXIT","5efaa42dff658c8fb708b6a6","6617fad957f7c6a12ea16e26","6622c975ebe87f15b0789971","fixation cross","null","","","","","","","","","","","",""
"","null","html-keyboard-response","178","303692","0.0-11.0-1.29","pWuQceoXIT","5efaa42dff658c8fb708b6a6","6617fad957f7c6a12ea16e26","6622c975ebe87f15b0789971","
        <div id=""grid-container"">
        <!-- Grid items will be dynamically added here -->
    </div>    ","null","","","","","","","","","","","",""
"","1657","html-keyboard-response","179","304550","0.0-11.0-2.29","pWuQceoXIT","5efaa42dff658c8fb708b6a6","6617fad957f7c6a12ea16e26","6622c975ebe87f15b0789971","mask grid"," ","","","","","Ontogenetic_Distractor_notarget","800","onmask"," ","8","Ontogenetic","true","experimental"
"","null","html-keyboard-response","180","305259","0.0-11.0-0.30","pWuQceoXIT","5efaa42dff658c8fb708b6a6","6617fad957f7c6a12ea16e26","6622c975ebe87f15b0789971","fixation cross","null","","","","","","","","","","","",""
"","null","html-keyboard-response","181","306060","0.0-11.0-1.30","pWuQceoXIT","5efaa42dff658c8fb708b6a6","6617fad957f7c6a12ea16e26","6622c975ebe87f15b0789971","
        <div id=""grid-container"">
        <!-- Grid items will be dynamically added here -->
    </div>    ","null","","","","","","","","","","","",""
"","1522","html-keyboard-response","182","306782","0.0-11.0-2.30","pWuQceoXIT","5efaa42dff658c8fb708b6a6","6617fad957f7c6a12ea16e26","6622c975ebe87f15b0789971","mask grid","q","","","","","Ontogenetic_Distractor_Threat_target","800","onmask","q","2","Ontogenetic","true","experimental"
"","null","html-keyboard-response","183","307490","0.0-11.0-0.31","pWuQceoXIT","5efaa42dff658c8fb708b6a6","6617fad957f7c6a12ea16e26","6622c975ebe87f15b0789971","fixation cross","null","","","","","","","","","","","",""
"","null","html-keyboard-response","184","308295","0.0-11.0-1.31","pWuQceoXIT","5efaa42dff658c8fb708b6a6","6617fad957f7c6a12ea16e26","6622c975ebe87f15b0789971","
        <div id=""grid-container"">
        <!-- Grid items will be dynamically added here -->
    </div>    ","null","","","","","","","","","","","",""
"","1631","html-keyboard-response","185","309127","0.0-11.0-2.31","pWuQceoXIT","5efaa42dff658c8fb708b6a6","6617fad957f7c6a12ea16e26","6622c975ebe87f15b0789971","mask grid","q","","","","","Ontogenetic_Distractor_Threat_target","800","onmask","q","1","Ontogenetic","true","experimental"
"","null","html-keyboard-response","186","309831","0.0-11.0-0.32","pWuQceoXIT","5efaa42dff658c8fb708b6a6","6617fad957f7c6a12ea16e26","6622c975ebe87f15b0789971","fixation cross","null","","","","","","","","","","","",""
"","null","html-keyboard-response","187","310643","0.0-11.0-1.32","pWuQceoXIT","5efaa42dff658c8fb708b6a6","6617fad957f7c6a12ea16e26","6622c975ebe87f15b0789971","
        <div id=""grid-container"">
        <!-- Grid items will be dynamically added here -->
    </div>    ","null","","","","","","","","","","","",""
"","1923","html-keyboard-response","188","311767","0.0-11.0-2.32","pWuQceoXIT","5efaa42dff658c8fb708b6a6","6617fad957f7c6a12ea16e26","6622c975ebe87f15b0789971","mask grid","p","","","","","Ontogenetic_Distractor_Nonthreat_target","800","onmask","p","1","Ontogenetic","true","experimental"
"","null","html-keyboard-response","189","312474","0.0-11.0-0.33","pWuQceoXIT","5efaa42dff658c8fb708b6a6","6617fad957f7c6a12ea16e26","6622c975ebe87f15b0789971","fixation cross","null","","","","","","","","","","","",""
"","null","html-keyboard-response","190","313307","0.0-11.0-1.33","pWuQceoXIT","5efaa42dff658c8fb708b6a6","6617fad957f7c6a12ea16e26","6622c975ebe87f15b0789971","
        <div id=""grid-container"">
        <!-- Grid items will be dynamically added here -->
    </div>    ","null","","","","","","","","","","","",""
"","1899","html-keyboard-response","191","314407","0.0-11.0-2.33","pWuQceoXIT","5efaa42dff658c8fb708b6a6","6617fad957f7c6a12ea16e26","6622c975ebe87f15b0789971","mask grid","p","","","","","Ontogenetic_Distractor_Nonthreat_target","800","onmask","p","1","Ontogenetic","true","experimental"
"","null","html-keyboard-response","192","315131","0.0-11.0-0.34","pWuQceoXIT","5efaa42dff658c8fb708b6a6","6617fad957f7c6a12ea16e26","6622c975ebe87f15b0789971","fixation cross","null","","","","","","","","","","","",""
"","null","html-keyboard-response","193","315941","0.0-11.0-1.34","pWuQceoXIT","5efaa42dff658c8fb708b6a6","6617fad957f7c6a12ea16e26","6622c975ebe87f15b0789971","
        <div id=""grid-container"">
        <!-- Grid items will be dynamically added here -->
    </div>    ","null","","","","","","","","","","","",""
"","1626","html-keyboard-response","194","316768","0.0-11.0-2.34","pWuQceoXIT","5efaa42dff658c8fb708b6a6","6617fad957f7c6a12ea16e26","6622c975ebe87f15b0789971","mask grid","q","","","","","Ontogenetic_Distractor_Threat_target","800","onmask","q","5","Ontogenetic","true","experimental"
"","null","html-keyboard-response","195","317490","0.0-11.0-0.35","pWuQceoXIT","5efaa42dff658c8fb708b6a6","6617fad957f7c6a12ea16e26","6622c975ebe87f15b0789971","fixation cross","null","","","","","","","","","","","",""
"","null","html-keyboard-response","196","318325","0.0-11.0-1.35","pWuQceoXIT","5efaa42dff658c8fb708b6a6","6617fad957f7c6a12ea16e26","6622c975ebe87f15b0789971","
        <div id=""grid-container"">
        <!-- Grid items will be dynamically added here -->
    </div>    ","null","","","","","","","","","","","",""
"","1602","html-keyboard-response","197","319127","0.0-11.0-2.35","pWuQceoXIT","5efaa42dff658c8fb708b6a6","6617fad957f7c6a12ea16e26","6622c975ebe87f15b0789971","mask grid","p","","","","","Ontogenetic_Distractor_Nonthreat_target","800","onmask","p","9","Ontogenetic","true","experimental"
"","null","html-keyboard-response","198","319829","0.0-11.0-0.36","pWuQceoXIT","5efaa42dff658c8fb708b6a6","6617fad957f7c6a12ea16e26","6622c975ebe87f15b0789971","fixation cross","null","","","","","","","","","","","",""
"","null","html-keyboard-response","199","320642","0.0-11.0-1.36","pWuQceoXIT","5efaa42dff658c8fb708b6a6","6617fad957f7c6a12ea16e26","6622c975ebe87f15b0789971","
        <div id=""grid-container"">
        <!-- Grid items will be dynamically added here -->
    </div>    ","null","","","","","","","","","","","",""
"","2030","html-keyboard-response","200","321872","0.0-11.0-2.36","pWuQceoXIT","5efaa42dff658c8fb708b6a6","6617fad957f7c6a12ea16e26","6622c975ebe87f15b0789971","mask grid","p","","","","","Ontogenetic_Distractor_Nonthreat_target","800","onmask","p","9","Ontogenetic","true","experimental"
"","null","html-keyboard-response","201","322580","0.0-11.0-0.37","pWuQceoXIT","5efaa42dff658c8fb708b6a6","6617fad957f7c6a12ea16e26","6622c975ebe87f15b0789971","fixation cross","null","","","","","","","","","","","",""
"","null","html-keyboard-response","202","323383","0.0-11.0-1.37","pWuQceoXIT","5efaa42dff658c8fb708b6a6","6617fad957f7c6a12ea16e26","6622c975ebe87f15b0789971","
        <div id=""grid-container"">
        <!-- Grid items will be dynamically added here -->
    </div>    ","null","","","","","","","","","","","",""
"","1698","html-keyboard-response","203","324280","0.0-11.0-2.37","pWuQceoXIT","5efaa42dff658c8fb708b6a6","6617fad957f7c6a12ea16e26","6622c975ebe87f15b0789971","mask grid","q","","","","","Ontogenetic_Distractor_Threat_target","800","onmask","q","7","Ontogenetic","true","experimental"
"","null","html-keyboard-response","204","324996","0.0-11.0-0.38","pWuQceoXIT","5efaa42dff658c8fb708b6a6","6617fad957f7c6a12ea16e26","6622c975ebe87f15b0789971","fixation cross","null","","","","","","","","","","","",""
"","null","html-keyboard-response","205","325802","0.0-11.0-1.38","pWuQceoXIT","5efaa42dff658c8fb708b6a6","6617fad957f7c6a12ea16e26","6622c975ebe87f15b0789971","
        <div id=""grid-container"">
        <!-- Grid items will be dynamically added here -->
    </div>    ","null","","","","","","","","","","","",""
"","1622","html-keyboard-response","206","326624","0.0-11.0-2.38","pWuQceoXIT","5efaa42dff658c8fb708b6a6","6617fad957f7c6a12ea16e26","6622c975ebe87f15b0789971","mask grid","q","","","","","Ontogenetic_Distractor_Threat_target","800","onmask","q","9","Ontogenetic","true","experimental"
"","null","html-keyboard-response","207","327334","0.0-11.0-0.39","pWuQceoXIT","5efaa42dff658c8fb708b6a6","6617fad957f7c6a12ea16e26","6622c975ebe87f15b0789971","fixation cross","null","","","","","","","","","","","",""
"","null","html-keyboard-response","208","328147","0.0-11.0-1.39","pWuQceoXIT","5efaa42dff658c8fb708b6a6","6617fad957f7c6a12ea16e26","6622c975ebe87f15b0789971","
        <div id=""grid-container"">
        <!-- Grid items will be dynamically added here -->
    </div>    ","null","","","","","","","","","","","",""
"","1333","html-keyboard-response","209","328681","0.0-11.0-2.39","pWuQceoXIT","5efaa42dff658c8fb708b6a6","6617fad957f7c6a12ea16e26","6622c975ebe87f15b0789971","mask grid","p","","","","","Ontogenetic_Distractor_Nonthreat_target","800","onmask","p","6","Ontogenetic","true","experimental"
"","12491","html-keyboard-response","210","341387","0.0-12.0","pWuQceoXIT","5efaa42dff658c8fb708b6a6","6617fad957f7c6a12ea16e26","6622c975ebe87f15b0789971","break screen"," ","","","","","","","","","","","",""
"","null","html-keyboard-response","211","343897","0.0-13.0-0.0","pWuQceoXIT","5efaa42dff658c8fb708b6a6","6617fad957f7c6a12ea16e26","6622c975ebe87f15b0789971","fixation cross","null","","","","","","","","","","","",""
"","2418","html-keyboard-response","212","346315","0.0-13.0-1.0","pWuQceoXIT","5efaa42dff658c8fb708b6a6","6617fad957f7c6a12ea16e26","6622c975ebe87f15b0789971","image grid","p","","","","","Phylogenetic_Distractor_Nonthreat_target","2500","ongrid","p","5","Phylogenetic","true","experimental"
"","null","html-keyboard-response","213","346478","0.0-13.0-2.0","pWuQceoXIT","5efaa42dff658c8fb708b6a6","6617fad957f7c6a12ea16e26","6622c975ebe87f15b0789971","
    <div id=""grid-container"">
        <!-- Grid items will be dynamically added here -->
    </div>    ","null","","","","","","","","","","","",""
"","null","html-keyboard-response","214","347182","0.0-13.0-0.1","pWuQceoXIT","5efaa42dff658c8fb708b6a6","6617fad957f7c6a12ea16e26","6622c975ebe87f15b0789971","fixation cross","null","","","","","","","","","","","",""
"","1612","html-keyboard-response","215","348795","0.0-13.0-1.1","pWuQceoXIT","5efaa42dff658c8fb708b6a6","6617fad957f7c6a12ea16e26","6622c975ebe87f15b0789971","image grid","p","","","","","Phylogenetic_Distractor_notarget","2500","ongrid"," ","6","Phylogenetic","false","experimental"
"","null","html-keyboard-response","216","348954","0.0-13.0-2.1","pWuQceoXIT","5efaa42dff658c8fb708b6a6","6617fad957f7c6a12ea16e26","6622c975ebe87f15b0789971","
    <div id=""grid-container"">
        <!-- Grid items will be dynamically added here -->
    </div>    ","null","","","","","","","","","","","",""
"","null","html-keyboard-response","217","349659","0.0-13.0-0.2","pWuQceoXIT","5efaa42dff658c8fb708b6a6","6617fad957f7c6a12ea16e26","6622c975ebe87f15b0789971","fixation cross","null","","","","","","","","","","","",""
"","1607","html-keyboard-response","218","351268","0.0-13.0-1.2","pWuQceoXIT","5efaa42dff658c8fb708b6a6","6617fad957f7c6a12ea16e26","6622c975ebe87f15b0789971","image grid","q","","","","","Phylogenetic_Distractor_Nonthreat_target","2500","ongrid","p","9","Phylogenetic","false","experimental"
"","null","html-keyboard-response","219","351433","0.0-13.0-2.2","pWuQceoXIT","5efaa42dff658c8fb708b6a6","6617fad957f7c6a12ea16e26","6622c975ebe87f15b0789971","
    <div id=""grid-container"">
        <!-- Grid items will be dynamically added here -->
    </div>    ","null","","","","","","","","","","","",""
"","null","html-keyboard-response","220","352143","0.0-13.0-0.3","pWuQceoXIT","5efaa42dff658c8fb708b6a6","6617fad957f7c6a12ea16e26","6622c975ebe87f15b0789971","fixation cross","null","","","","","","","","","","","",""
"","1547","html-keyboard-response","221","353692","0.0-13.0-1.3","pWuQceoXIT","5efaa42dff658c8fb708b6a6","6617fad957f7c6a12ea16e26","6622c975ebe87f15b0789971","image grid","q","","","","","Phylogenetic_Distractor_Threat_target","2500","ongrid","q","4","Phylogenetic","true","experimental"
"","null","html-keyboard-response","222","353853","0.0-13.0-2.3","pWuQceoXIT","5efaa42dff658c8fb708b6a6","6617fad957f7c6a12ea16e26","6622c975ebe87f15b0789971","
    <div id=""grid-container"">
        <!-- Grid items will be dynamically added here -->
    </div>    ","null","","","","","","","","","","","",""
"","null","html-keyboard-response","223","354564","0.0-13.0-0.4","pWuQceoXIT","5efaa42dff658c8fb708b6a6","6617fad957f7c6a12ea16e26","6622c975ebe87f15b0789971","fixation cross","null","","","","","","","","","","","",""
"","1056","html-keyboard-response","224","355620","0.0-13.0-1.4","pWuQceoXIT","5efaa42dff658c8fb708b6a6","6617fad957f7c6a12ea16e26","6622c975ebe87f15b0789971","image grid","q","","","","","Phylogenetic_Distractor_Threat_target","2500","ongrid","q","4","Phylogenetic","true","experimental"
"","null","html-keyboard-response","225","355780","0.0-13.0-2.4","pWuQceoXIT","5efaa42dff658c8fb708b6a6","6617fad957f7c6a12ea16e26","6622c975ebe87f15b0789971","
    <div id=""grid-container"">
        <!-- Grid items will be dynamically added here -->
    </div>    ","null","","","","","","","","","","","",""
"","null","html-keyboard-response","226","356486","0.0-13.0-0.5","pWuQceoXIT","5efaa42dff658c8fb708b6a6","6617fad957f7c6a12ea16e26","6622c975ebe87f15b0789971","fixation cross","null","","","","","","","","","","","",""
"","1116","html-keyboard-response","227","357603","0.0-13.0-1.5","pWuQceoXIT","5efaa42dff658c8fb708b6a6","6617fad957f7c6a12ea16e26","6622c975ebe87f15b0789971","image grid","q","","","","","Phylogenetic_Distractor_Threat_target","2500","ongrid","q","1","Phylogenetic","true","experimental"
"","null","html-keyboard-response","228","357759","0.0-13.0-2.5","pWuQceoXIT","5efaa42dff658c8fb708b6a6","6617fad957f7c6a12ea16e26","6622c975ebe87f15b0789971","
    <div id=""grid-container"">
        <!-- Grid items will be dynamically added here -->
    </div>    ","null","","","","","","","","","","","",""
"","null","html-keyboard-response","229","358468","0.0-13.0-0.6","pWuQceoXIT","5efaa42dff658c8fb708b6a6","6617fad957f7c6a12ea16e26","6622c975ebe87f15b0789971","fixation cross","null","","","","","","","","","","","",""
"","840","html-keyboard-response","230","359308","0.0-13.0-1.6","pWuQceoXIT","5efaa42dff658c8fb708b6a6","6617fad957f7c6a12ea16e26","6622c975ebe87f15b0789971","image grid","q","","","","","Phylogenetic_Distractor_Threat_target","2500","ongrid","q","4","Phylogenetic","true","experimental"
"","null","html-keyboard-response","231","359461","0.0-13.0-2.6","pWuQceoXIT","5efaa42dff658c8fb708b6a6","6617fad957f7c6a12ea16e26","6622c975ebe87f15b0789971","
    <div id=""grid-container"">
        <!-- Grid items will be dynamically added here -->
    </div>    ","null","","","","","","","","","","","",""
"","null","html-keyboard-response","232","360176","0.0-13.0-0.7","pWuQceoXIT","5efaa42dff658c8fb708b6a6","6617fad957f7c6a12ea16e26","6622c975ebe87f15b0789971","fixation cross","null","","","","","","","","","","","",""
"","2412","html-keyboard-response","233","362589","0.0-13.0-1.7","pWuQceoXIT","5efaa42dff658c8fb708b6a6","6617fad957f7c6a12ea16e26","6622c975ebe87f15b0789971","image grid","p","","","","","Phylogenetic_Distractor_Nonthreat_target","2500","ongrid","p","9","Phylogenetic","true","experimental"
"","null","html-keyboard-response","234","362746","0.0-13.0-2.7","pWuQceoXIT","5efaa42dff658c8fb708b6a6","6617fad957f7c6a12ea16e26","6622c975ebe87f15b0789971","
    <div id=""grid-container"">
        <!-- Grid items will be dynamically added here -->
    </div>    ","null","","","","","","","","","","","",""
"","null","html-keyboard-response","235","363451","0.0-13.0-0.8","pWuQceoXIT","5efaa42dff658c8fb708b6a6","6617fad957f7c6a12ea16e26","6622c975ebe87f15b0789971","fixation cross","null","","","","","","","","","","","",""
"","1642","html-keyboard-response","236","365093","0.0-13.0-1.8","pWuQceoXIT","5efaa42dff658c8fb708b6a6","6617fad957f7c6a12ea16e26","6622c975ebe87f15b0789971","image grid","p","","","","","Phylogenetic_Distractor_Nonthreat_target","2500","ongrid","p","7","Phylogenetic","true","experimental"
"","null","html-keyboard-response","237","365249","0.0-13.0-2.8","pWuQceoXIT","5efaa42dff658c8fb708b6a6","6617fad957f7c6a12ea16e26","6622c975ebe87f15b0789971","
    <div id=""grid-container"">
        <!-- Grid items will be dynamically added here -->
    </div>    ","null","","","","","","","","","","","",""
"","null","html-keyboard-response","238","365953","0.0-13.0-0.9","pWuQceoXIT","5efaa42dff658c8fb708b6a6","6617fad957f7c6a12ea16e26","6622c975ebe87f15b0789971","fixation cross","null","","","","","","","","","","","",""
"","1875","html-keyboard-response","239","367829","0.0-13.0-1.9","pWuQceoXIT","5efaa42dff658c8fb708b6a6","6617fad957f7c6a12ea16e26","6622c975ebe87f15b0789971","image grid"," ","","","","","Phylogenetic_Distractor_Nonthreat_target","2500","ongrid","p","2","Phylogenetic","false","experimental"
"","null","html-keyboard-response","240","367990","0.0-13.0-2.9","pWuQceoXIT","5efaa42dff658c8fb708b6a6","6617fad957f7c6a12ea16e26","6622c975ebe87f15b0789971","
    <div id=""grid-container"">
        <!-- Grid items will be dynamically added here -->
    </div>    ","null","","","","","","","","","","","",""
"","null","html-keyboard-response","241","368705","0.0-13.0-0.10","pWuQceoXIT","5efaa42dff658c8fb708b6a6","6617fad957f7c6a12ea16e26","6622c975ebe87f15b0789971","fixation cross","null","","","","","","","","","","","",""
"","1396","html-keyboard-response","242","370102","0.0-13.0-1.10","pWuQceoXIT","5efaa42dff658c8fb708b6a6","6617fad957f7c6a12ea16e26","6622c975ebe87f15b0789971","image grid","q","","","","","Phylogenetic_Distractor_Threat_target","2500","ongrid","q","1","Phylogenetic","true","experimental"
"","null","html-keyboard-response","243","370254","0.0-13.0-2.10","pWuQceoXIT","5efaa42dff658c8fb708b6a6","6617fad957f7c6a12ea16e26","6622c975ebe87f15b0789971","
    <div id=""grid-container"">
        <!-- Grid items will be dynamically added here -->
    </div>    ","null","","","","","","","","","","","",""
"","null","html-keyboard-response","244","370963","0.0-13.0-0.11","pWuQceoXIT","5efaa42dff658c8fb708b6a6","6617fad957f7c6a12ea16e26","6622c975ebe87f15b0789971","fixation cross","null","","","","","","","","","","","",""
"","1132","html-keyboard-response","245","372094","0.0-13.0-1.11","pWuQceoXIT","5efaa42dff658c8fb708b6a6","6617fad957f7c6a12ea16e26","6622c975ebe87f15b0789971","image grid","q","","","","","Phylogenetic_Distractor_Threat_target","2500","ongrid","q","5","Phylogenetic","true","experimental"
"","null","html-keyboard-response","246","372258","0.0-13.0-2.11","pWuQceoXIT","5efaa42dff658c8fb708b6a6","6617fad957f7c6a12ea16e26","6622c975ebe87f15b0789971","
    <div id=""grid-container"">
        <!-- Grid items will be dynamically added here -->
    </div>    ","null","","","","","","","","","","","",""
"","null","html-keyboard-response","247","372968","0.0-13.0-0.12","pWuQceoXIT","5efaa42dff658c8fb708b6a6","6617fad957f7c6a12ea16e26","6622c975ebe87f15b0789971","fixation cross","null","","","","","","","","","","","",""
"","1222","html-keyboard-response","248","374190","0.0-13.0-1.12","pWuQceoXIT","5efaa42dff658c8fb708b6a6","6617fad957f7c6a12ea16e26","6622c975ebe87f15b0789971","image grid","q","","","","","Phylogenetic_Distractor_Threat_target","2500","ongrid","q","9","Phylogenetic","true","experimental"
"","null","html-keyboard-response","249","374350","0.0-13.0-2.12","pWuQceoXIT","5efaa42dff658c8fb708b6a6","6617fad957f7c6a12ea16e26","6622c975ebe87f15b0789971","
    <div id=""grid-container"">
        <!-- Grid items will be dynamically added here -->
    </div>    ","null","","","","","","","","","","","",""
"","null","html-keyboard-response","250","375064","0.0-13.0-0.13","pWuQceoXIT","5efaa42dff658c8fb708b6a6","6617fad957f7c6a12ea16e26","6622c975ebe87f15b0789971","fixation cross","null","","","","","","","","","","","",""
"","1575","html-keyboard-response","251","376639","0.0-13.0-1.13","pWuQceoXIT","5efaa42dff658c8fb708b6a6","6617fad957f7c6a12ea16e26","6622c975ebe87f15b0789971","image grid","p","","","","","Phylogenetic_Distractor_Nonthreat_target","2500","ongrid","p","5","Phylogenetic","true","experimental"
"","null","html-keyboard-response","252","376803","0.0-13.0-2.13","pWuQceoXIT","5efaa42dff658c8fb708b6a6","6617fad957f7c6a12ea16e26","6622c975ebe87f15b0789971","
    <div id=""grid-container"">
        <!-- Grid items will be dynamically added here -->
    </div>    ","null","","","","","","","","","","","",""
"","null","html-keyboard-response","253","377507","0.0-13.0-0.14","pWuQceoXIT","5efaa42dff658c8fb708b6a6","6617fad957f7c6a12ea16e26","6622c975ebe87f15b0789971","fixation cross","null","","","","","","","","","","","",""
"","null","html-keyboard-response","254","380015","0.0-13.0-1.14","pWuQceoXIT","5efaa42dff658c8fb708b6a6","6617fad957f7c6a12ea16e26","6622c975ebe87f15b0789971","
        <div id=""grid-container"">
        <!-- Grid items will be dynamically added here -->
    </div>    ","null","","","","","","","","","","","",""
"","2509","html-keyboard-response","255","380024","0.0-13.0-2.14","pWuQceoXIT","5efaa42dff658c8fb708b6a6","6617fad957f7c6a12ea16e26","6622c975ebe87f15b0789971","mask grid","p","","","","","Phylogenetic_Distractor_Nonthreat_target","2500","onmask","p","7","Phylogenetic","true","experimental"
"","null","html-keyboard-response","256","380748","0.0-13.0-0.15","pWuQceoXIT","5efaa42dff658c8fb708b6a6","6617fad957f7c6a12ea16e26","6622c975ebe87f15b0789971","fixation cross","null","","","","","","","","","","","",""
"","1588","html-keyboard-response","257","382335","0.0-13.0-1.15","pWuQceoXIT","5efaa42dff658c8fb708b6a6","6617fad957f7c6a12ea16e26","6622c975ebe87f15b0789971","image grid","q","","","","","Phylogenetic_Distractor_Nonthreat_target","2500","ongrid","p","7","Phylogenetic","false","experimental"
"","null","html-keyboard-response","258","382491","0.0-13.0-2.15","pWuQceoXIT","5efaa42dff658c8fb708b6a6","6617fad957f7c6a12ea16e26","6622c975ebe87f15b0789971","
    <div id=""grid-container"">
        <!-- Grid items will be dynamically added here -->
    </div>    ","null","","","","","","","","","","","",""
"","null","html-keyboard-response","259","383195","0.0-13.0-0.16","pWuQceoXIT","5efaa42dff658c8fb708b6a6","6617fad957f7c6a12ea16e26","6622c975ebe87f15b0789971","fixation cross","null","","","","","","","","","","","",""
"","1059","html-keyboard-response","260","384255","0.0-13.0-1.16","pWuQceoXIT","5efaa42dff658c8fb708b6a6","6617fad957f7c6a12ea16e26","6622c975ebe87f15b0789971","image grid","q","","","","","Phylogenetic_Distractor_Threat_target","2500","ongrid","q","1","Phylogenetic","true","experimental"
"","null","html-keyboard-response","261","384408","0.0-13.0-2.16","pWuQceoXIT","5efaa42dff658c8fb708b6a6","6617fad957f7c6a12ea16e26","6622c975ebe87f15b0789971","
    <div id=""grid-container"">
        <!-- Grid items will be dynamically added here -->
    </div>    ","null","","","","","","","","","","","",""
"","null","html-keyboard-response","262","385120","0.0-13.0-0.17","pWuQceoXIT","5efaa42dff658c8fb708b6a6","6617fad957f7c6a12ea16e26","6622c975ebe87f15b0789971","fixation cross","null","","","","","","","","","","","",""
"","1592","html-keyboard-response","263","386712","0.0-13.0-1.17","pWuQceoXIT","5efaa42dff658c8fb708b6a6","6617fad957f7c6a12ea16e26","6622c975ebe87f15b0789971","image grid","p","","","","","Phylogenetic_Distractor_Nonthreat_target","2500","ongrid","p","7","Phylogenetic","true","experimental"
"","null","html-keyboard-response","264","386867","0.0-13.0-2.17","pWuQceoXIT","5efaa42dff658c8fb708b6a6","6617fad957f7c6a12ea16e26","6622c975ebe87f15b0789971","
    <div id=""grid-container"">
        <!-- Grid items will be dynamically added here -->
    </div>    ","null","","","","","","","","","","","",""
"","null","html-keyboard-response","265","387570","0.0-13.0-0.18","pWuQceoXIT","5efaa42dff658c8fb708b6a6","6617fad957f7c6a12ea16e26","6622c975ebe87f15b0789971","fixation cross","null","","","","","","","","","","","",""
"","1501","html-keyboard-response","266","389072","0.0-13.0-1.18","pWuQceoXIT","5efaa42dff658c8fb708b6a6","6617fad957f7c6a12ea16e26","6622c975ebe87f15b0789971","image grid","q","","","","","Phylogenetic_Distractor_Threat_target","2500","ongrid","q","9","Phylogenetic","true","experimental"
"","null","html-keyboard-response","267","389237","0.0-13.0-2.18","pWuQceoXIT","5efaa42dff658c8fb708b6a6","6617fad957f7c6a12ea16e26","6622c975ebe87f15b0789971","
    <div id=""grid-container"">
        <!-- Grid items will be dynamically added here -->
    </div>    ","null","","","","","","","","","","","",""
"","null","html-keyboard-response","268","389945","0.0-13.0-0.19","pWuQceoXIT","5efaa42dff658c8fb708b6a6","6617fad957f7c6a12ea16e26","6622c975ebe87f15b0789971","fixation cross","null","","","","","","","","","","","",""
"","1655","html-keyboard-response","269","391601","0.0-13.0-1.19","pWuQceoXIT","5efaa42dff658c8fb708b6a6","6617fad957f7c6a12ea16e26","6622c975ebe87f15b0789971","image grid","p","","","","","Phylogenetic_Distractor_Nonthreat_target","2500","ongrid","p","8","Phylogenetic","true","experimental"
"","null","html-keyboard-response","270","391754","0.0-13.0-2.19","pWuQceoXIT","5efaa42dff658c8fb708b6a6","6617fad957f7c6a12ea16e26","6622c975ebe87f15b0789971","
    <div id=""grid-container"">
        <!-- Grid items will be dynamically added here -->
    </div>    ","null","","","","","","","","","","","",""
"","null","html-keyboard-response","271","392457","0.0-13.0-0.20","pWuQceoXIT","5efaa42dff658c8fb708b6a6","6617fad957f7c6a12ea16e26","6622c975ebe87f15b0789971","fixation cross","null","","","","","","","","","","","",""
"","1096","html-keyboard-response","272","393553","0.0-13.0-1.20","pWuQceoXIT","5efaa42dff658c8fb708b6a6","6617fad957f7c6a12ea16e26","6622c975ebe87f15b0789971","image grid","q","","","","","Phylogenetic_Distractor_Threat_target","2500","ongrid","q","6","Phylogenetic","true","experimental"
"","null","html-keyboard-response","273","393710","0.0-13.0-2.20","pWuQceoXIT","5efaa42dff658c8fb708b6a6","6617fad957f7c6a12ea16e26","6622c975ebe87f15b0789971","
    <div id=""grid-container"">
        <!-- Grid items will be dynamically added here -->
    </div>    ","null","","","","","","","","","","","",""
"","null","html-keyboard-response","274","394424","0.0-13.0-0.21","pWuQceoXIT","5efaa42dff658c8fb708b6a6","6617fad957f7c6a12ea16e26","6622c975ebe87f15b0789971","fixation cross","null","","","","","","","","","","","",""
"","1602","html-keyboard-response","275","396026","0.0-13.0-1.21","pWuQceoXIT","5efaa42dff658c8fb708b6a6","6617fad957f7c6a12ea16e26","6622c975ebe87f15b0789971","image grid","p","","","","","Phylogenetic_Distractor_Nonthreat_target","2500","ongrid","p","5","Phylogenetic","true","experimental"
"","null","html-keyboard-response","276","396180","0.0-13.0-2.21","pWuQceoXIT","5efaa42dff658c8fb708b6a6","6617fad957f7c6a12ea16e26","6622c975ebe87f15b0789971","
    <div id=""grid-container"">
        <!-- Grid items will be dynamically added here -->
    </div>    ","null","","","","","","","","","","","",""
"","null","html-keyboard-response","277","396890","0.0-13.0-0.22","pWuQceoXIT","5efaa42dff658c8fb708b6a6","6617fad957f7c6a12ea16e26","6622c975ebe87f15b0789971","fixation cross","null","","","","","","","","","","","",""
"","1487","html-keyboard-response","278","398377","0.0-13.0-1.22","pWuQceoXIT","5efaa42dff658c8fb708b6a6","6617fad957f7c6a12ea16e26","6622c975ebe87f15b0789971","image grid","q","","","","","Phylogenetic_Distractor_Threat_target","2500","ongrid","q","4","Phylogenetic","true","experimental"
"","null","html-keyboard-response","279","398534","0.0-13.0-2.22","pWuQceoXIT","5efaa42dff658c8fb708b6a6","6617fad957f7c6a12ea16e26","6622c975ebe87f15b0789971","
    <div id=""grid-container"">
        <!-- Grid items will be dynamically added here -->
    </div>    ","null","","","","","","","","","","","",""
"","null","html-keyboard-response","280","399249","0.0-13.0-0.23","pWuQceoXIT","5efaa42dff658c8fb708b6a6","6617fad957f7c6a12ea16e26","6622c975ebe87f15b0789971","fixation cross","null","","","","","","","","","","","",""
"","1633","html-keyboard-response","281","400881","0.0-13.0-1.23","pWuQceoXIT","5efaa42dff658c8fb708b6a6","6617fad957f7c6a12ea16e26","6622c975ebe87f15b0789971","image grid","p","","","","","Phylogenetic_Distractor_Nonthreat_target","2500","ongrid","p","9","Phylogenetic","true","experimental"
"","null","html-keyboard-response","282","401037","0.0-13.0-2.23","pWuQceoXIT","5efaa42dff658c8fb708b6a6","6617fad957f7c6a12ea16e26","6622c975ebe87f15b0789971","
    <div id=""grid-container"">
        <!-- Grid items will be dynamically added here -->
    </div>    ","null","","","","","","","","","","","",""
"","null","html-keyboard-response","283","401754","0.0-13.0-0.24","pWuQceoXIT","5efaa42dff658c8fb708b6a6","6617fad957f7c6a12ea16e26","6622c975ebe87f15b0789971","fixation cross","null","","","","","","","","","","","",""
"","null","html-keyboard-response","284","404256","0.0-13.0-1.24","pWuQceoXIT","5efaa42dff658c8fb708b6a6","6617fad957f7c6a12ea16e26","6622c975ebe87f15b0789971","
        <div id=""grid-container"">
        <!-- Grid items will be dynamically added here -->
    </div>    ","null","","","","","","","","","","","",""
"","3231","html-keyboard-response","285","404986","0.0-13.0-2.24","pWuQceoXIT","5efaa42dff658c8fb708b6a6","6617fad957f7c6a12ea16e26","6622c975ebe87f15b0789971","mask grid"," ","","","","","Phylogenetic_Distractor_notarget","2500","onmask"," ","7","Phylogenetic","true","experimental"
"","null","html-keyboard-response","286","405706","0.0-13.0-0.25","pWuQceoXIT","5efaa42dff658c8fb708b6a6","6617fad957f7c6a12ea16e26","6622c975ebe87f15b0789971","fixation cross","null","","","","","","","","","","","",""
"","985","html-keyboard-response","287","406690","0.0-13.0-1.25","pWuQceoXIT","5efaa42dff658c8fb708b6a6","6617fad957f7c6a12ea16e26","6622c975ebe87f15b0789971","image grid","p","","","","","Phylogenetic_Distractor_Nonthreat_target","2500","ongrid","p","9","Phylogenetic","true","experimental"
"","null","html-keyboard-response","288","406848","0.0-13.0-2.25","pWuQceoXIT","5efaa42dff658c8fb708b6a6","6617fad957f7c6a12ea16e26","6622c975ebe87f15b0789971","
    <div id=""grid-container"">
        <!-- Grid items will be dynamically added here -->
    </div>    ","null","","","","","","","","","","","",""
"","null","html-keyboard-response","289","407555","0.0-13.0-0.26","pWuQceoXIT","5efaa42dff658c8fb708b6a6","6617fad957f7c6a12ea16e26","6622c975ebe87f15b0789971","fixation cross","null","","","","","","","","","","","",""
"","1192","html-keyboard-response","290","408748","0.0-13.0-1.26","pWuQceoXIT","5efaa42dff658c8fb708b6a6","6617fad957f7c6a12ea16e26","6622c975ebe87f15b0789971","image grid","q","","","","","Phylogenetic_Distractor_Threat_target","2500","ongrid","q","3","Phylogenetic","true","experimental"
"","null","html-keyboard-response","291","408907","0.0-13.0-2.26","pWuQceoXIT","5efaa42dff658c8fb708b6a6","6617fad957f7c6a12ea16e26","6622c975ebe87f15b0789971","
    <div id=""grid-container"">
        <!-- Grid items will be dynamically added here -->
    </div>    ","null","","","","","","","","","","","",""
"","null","html-keyboard-response","292","409615","0.0-13.0-0.27","pWuQceoXIT","5efaa42dff658c8fb708b6a6","6617fad957f7c6a12ea16e26","6622c975ebe87f15b0789971","fixation cross","null","","","","","","","","","","","",""
"","1348","html-keyboard-response","293","410963","0.0-13.0-1.27","pWuQceoXIT","5efaa42dff658c8fb708b6a6","6617fad957f7c6a12ea16e26","6622c975ebe87f15b0789971","image grid","p","","","","","Phylogenetic_Distractor_Nonthreat_target","2500","ongrid","p","7","Phylogenetic","true","experimental"
"","null","html-keyboard-response","294","411116","0.0-13.0-2.27","pWuQceoXIT","5efaa42dff658c8fb708b6a6","6617fad957f7c6a12ea16e26","6622c975ebe87f15b0789971","
    <div id=""grid-container"">
        <!-- Grid items will be dynamically added here -->
    </div>    ","null","","","","","","","","","","","",""
"","null","html-keyboard-response","295","411826","0.0-13.0-0.28","pWuQceoXIT","5efaa42dff658c8fb708b6a6","6617fad957f7c6a12ea16e26","6622c975ebe87f15b0789971","fixation cross","null","","","","","","","","","","","",""
"","953","html-keyboard-response","296","412780","0.0-13.0-1.28","pWuQceoXIT","5efaa42dff658c8fb708b6a6","6617fad957f7c6a12ea16e26","6622c975ebe87f15b0789971","image grid","q","","","","","Phylogenetic_Distractor_Threat_target","2500","ongrid","q","1","Phylogenetic","true","experimental"
"","null","html-keyboard-response","297","412946","0.0-13.0-2.28","pWuQceoXIT","5efaa42dff658c8fb708b6a6","6617fad957f7c6a12ea16e26","6622c975ebe87f15b0789971","
    <div id=""grid-container"">
        <!-- Grid items will be dynamically added here -->
    </div>    ","null","","","","","","","","","","","",""
"","null","html-keyboard-response","298","413651","0.0-13.0-0.29","pWuQceoXIT","5efaa42dff658c8fb708b6a6","6617fad957f7c6a12ea16e26","6622c975ebe87f15b0789971","fixation cross","null","","","","","","","","","","","",""
"","1647","html-keyboard-response","299","415300","0.0-13.0-1.29","pWuQceoXIT","5efaa42dff658c8fb708b6a6","6617fad957f7c6a12ea16e26","6622c975ebe87f15b0789971","image grid","p","","","","","Phylogenetic_Distractor_Nonthreat_target","2500","ongrid","p","6","Phylogenetic","true","experimental"
"","null","html-keyboard-response","300","415452","0.0-13.0-2.29","pWuQceoXIT","5efaa42dff658c8fb708b6a6","6617fad957f7c6a12ea16e26","6622c975ebe87f15b0789971","
    <div id=""grid-container"">
        <!-- Grid items will be dynamically added here -->
    </div>    ","null","","","","","","","","","","","",""
"","null","html-keyboard-response","301","416156","0.0-13.0-0.30","pWuQceoXIT","5efaa42dff658c8fb708b6a6","6617fad957f7c6a12ea16e26","6622c975ebe87f15b0789971","fixation cross","null","","","","","","","","","","","",""
"","919","html-keyboard-response","302","417076","0.0-13.0-1.30","pWuQceoXIT","5efaa42dff658c8fb708b6a6","6617fad957f7c6a12ea16e26","6622c975ebe87f15b0789971","image grid","q","","","","","Phylogenetic_Distractor_Threat_target","2500","ongrid","q","8","Phylogenetic","true","experimental"
"","null","html-keyboard-response","303","417231","0.0-13.0-2.30","pWuQceoXIT","5efaa42dff658c8fb708b6a6","6617fad957f7c6a12ea16e26","6622c975ebe87f15b0789971","
    <div id=""grid-container"">
        <!-- Grid items will be dynamically added here -->
    </div>    ","null","","","","","","","","","","","",""
"","null","html-keyboard-response","304","417947","0.0-13.0-0.31","pWuQceoXIT","5efaa42dff658c8fb708b6a6","6617fad957f7c6a12ea16e26","6622c975ebe87f15b0789971","fixation cross","null","","","","","","","","","","","",""
"","1825","html-keyboard-response","305","419772","0.0-13.0-1.31","pWuQceoXIT","5efaa42dff658c8fb708b6a6","6617fad957f7c6a12ea16e26","6622c975ebe87f15b0789971","image grid","p","","","","","Phylogenetic_Distractor_Nonthreat_target","2500","ongrid","p","4","Phylogenetic","true","experimental"
"","null","html-keyboard-response","306","419933","0.0-13.0-2.31","pWuQceoXIT","5efaa42dff658c8fb708b6a6","6617fad957f7c6a12ea16e26","6622c975ebe87f15b0789971","
    <div id=""grid-container"">
        <!-- Grid items will be dynamically added here -->
    </div>    ","null","","","","","","","","","","","",""
"","null","html-keyboard-response","307","420635","0.0-13.0-0.32","pWuQceoXIT","5efaa42dff658c8fb708b6a6","6617fad957f7c6a12ea16e26","6622c975ebe87f15b0789971","fixation cross","null","","","","","","","","","","","",""
"","1162","html-keyboard-response","308","421796","0.0-13.0-1.32","pWuQceoXIT","5efaa42dff658c8fb708b6a6","6617fad957f7c6a12ea16e26","6622c975ebe87f15b0789971","image grid","p","","","","","Phylogenetic_Distractor_Nonthreat_target","2500","ongrid","p","1","Phylogenetic","true","experimental"
"","null","html-keyboard-response","309","421952","0.0-13.0-2.32","pWuQceoXIT","5efaa42dff658c8fb708b6a6","6617fad957f7c6a12ea16e26","6622c975ebe87f15b0789971","
    <div id=""grid-container"">
        <!-- Grid items will be dynamically added here -->
    </div>    ","null","","","","","","","","","","","",""
"","null","html-keyboard-response","310","422656","0.0-13.0-0.33","pWuQceoXIT","5efaa42dff658c8fb708b6a6","6617fad957f7c6a12ea16e26","6622c975ebe87f15b0789971","fixation cross","null","","","","","","","","","","","",""
"","2165","html-keyboard-response","311","424822","0.0-13.0-1.33","pWuQceoXIT","5efaa42dff658c8fb708b6a6","6617fad957f7c6a12ea16e26","6622c975ebe87f15b0789971","image grid"," ","","","","","Phylogenetic_Distractor_notarget","2500","ongrid"," ","3","Phylogenetic","true","experimental"
"","null","html-keyboard-response","312","424978","0.0-13.0-2.33","pWuQceoXIT","5efaa42dff658c8fb708b6a6","6617fad957f7c6a12ea16e26","6622c975ebe87f15b0789971","
    <div id=""grid-container"">
        <!-- Grid items will be dynamically added here -->
    </div>    ","null","","","","","","","","","","","",""
"","null","html-keyboard-response","313","425688","0.0-13.0-0.34","pWuQceoXIT","5efaa42dff658c8fb708b6a6","6617fad957f7c6a12ea16e26","6622c975ebe87f15b0789971","fixation cross","null","","","","","","","","","","","",""
"","934","html-keyboard-response","314","426622","0.0-13.0-1.34","pWuQceoXIT","5efaa42dff658c8fb708b6a6","6617fad957f7c6a12ea16e26","6622c975ebe87f15b0789971","image grid","q","","","","","Phylogenetic_Distractor_Threat_target","2500","ongrid","q","3","Phylogenetic","true","experimental"
"","null","html-keyboard-response","315","426774","0.0-13.0-2.34","pWuQceoXIT","5efaa42dff658c8fb708b6a6","6617fad957f7c6a12ea16e26","6622c975ebe87f15b0789971","
    <div id=""grid-container"">
        <!-- Grid items will be dynamically added here -->
    </div>    ","null","","","","","","","","","","","",""
"","null","html-keyboard-response","316","427480","0.0-13.0-0.35","pWuQceoXIT","5efaa42dff658c8fb708b6a6","6617fad957f7c6a12ea16e26","6622c975ebe87f15b0789971","fixation cross","null","","","","","","","","","","","",""
"","1148","html-keyboard-response","317","428629","0.0-13.0-1.35","pWuQceoXIT","5efaa42dff658c8fb708b6a6","6617fad957f7c6a12ea16e26","6622c975ebe87f15b0789971","image grid","q","","","","","Phylogenetic_Distractor_Threat_target","2500","ongrid","q","1","Phylogenetic","true","experimental"
"","null","html-keyboard-response","318","428784","0.0-13.0-2.35","pWuQceoXIT","5efaa42dff658c8fb708b6a6","6617fad957f7c6a12ea16e26","6622c975ebe87f15b0789971","
    <div id=""grid-container"">
        <!-- Grid items will be dynamically added here -->
    </div>    ","null","","","","","","","","","","","",""
"","null","html-keyboard-response","319","429489","0.0-13.0-0.36","pWuQceoXIT","5efaa42dff658c8fb708b6a6","6617fad957f7c6a12ea16e26","6622c975ebe87f15b0789971","fixation cross","null","","","","","","","","","","","",""
"","1484","html-keyboard-response","320","430974","0.0-13.0-1.36","pWuQceoXIT","5efaa42dff658c8fb708b6a6","6617fad957f7c6a12ea16e26","6622c975ebe87f15b0789971","image grid","p","","","","","Phylogenetic_Distractor_Nonthreat_target","2500","ongrid","p","9","Phylogenetic","true","experimental"
"","null","html-keyboard-response","321","431131","0.0-13.0-2.36","pWuQceoXIT","5efaa42dff658c8fb708b6a6","6617fad957f7c6a12ea16e26","6622c975ebe87f15b0789971","
    <div id=""grid-container"">
        <!-- Grid items will be dynamically added here -->
    </div>    ","null","","","","","","","","","","","",""
"","null","html-keyboard-response","322","431838","0.0-13.0-0.37","pWuQceoXIT","5efaa42dff658c8fb708b6a6","6617fad957f7c6a12ea16e26","6622c975ebe87f15b0789971","fixation cross","null","","","","","","","","","","","",""
"","904","html-keyboard-response","323","432741","0.0-13.0-1.37","pWuQceoXIT","5efaa42dff658c8fb708b6a6","6617fad957f7c6a12ea16e26","6622c975ebe87f15b0789971","image grid","q","","","","","Phylogenetic_Distractor_Threat_target","2500","ongrid","q","6","Phylogenetic","true","experimental"
"","null","html-keyboard-response","324","432904","0.0-13.0-2.37","pWuQceoXIT","5efaa42dff658c8fb708b6a6","6617fad957f7c6a12ea16e26","6622c975ebe87f15b0789971","
    <div id=""grid-container"">
        <!-- Grid items will be dynamically added here -->
    </div>    ","null","","","","","","","","","","","",""
"","null","html-keyboard-response","325","433615","0.0-13.0-0.38","pWuQceoXIT","5efaa42dff658c8fb708b6a6","6617fad957f7c6a12ea16e26","6622c975ebe87f15b0789971","fixation cross","null","","","","","","","","","","","",""
"","903","html-keyboard-response","326","434518","0.0-13.0-1.38","pWuQceoXIT","5efaa42dff658c8fb708b6a6","6617fad957f7c6a12ea16e26","6622c975ebe87f15b0789971","image grid","q","","","","","Phylogenetic_Distractor_Threat_target","2500","ongrid","q","5","Phylogenetic","true","experimental"
"","null","html-keyboard-response","327","434673","0.0-13.0-2.38","pWuQceoXIT","5efaa42dff658c8fb708b6a6","6617fad957f7c6a12ea16e26","6622c975ebe87f15b0789971","
    <div id=""grid-container"">
        <!-- Grid items will be dynamically added here -->
    </div>    ","null","","","","","","","","","","","",""
"","null","html-keyboard-response","328","435384","0.0-13.0-0.39","pWuQceoXIT","5efaa42dff658c8fb708b6a6","6617fad957f7c6a12ea16e26","6622c975ebe87f15b0789971","fixation cross","null","","","","","","","","","","","",""
"","1910","html-keyboard-response","329","437294","0.0-13.0-1.39","pWuQceoXIT","5efaa42dff658c8fb708b6a6","6617fad957f7c6a12ea16e26","6622c975ebe87f15b0789971","image grid"," ","","","","","Phylogenetic_Distractor_notarget","2500","ongrid"," ","5","Phylogenetic","true","experimental"
"","null","html-keyboard-response","330","437459","0.0-13.0-2.39","pWuQceoXIT","5efaa42dff658c8fb708b6a6","6617fad957f7c6a12ea16e26","6622c975ebe87f15b0789971","
    <div id=""grid-container"">
        <!-- Grid items will be dynamically added here -->
    </div>    ","null","","","","","","","","","","","",""
"","13009","html-keyboard-response","331","450673","0.0-14.0","pWuQceoXIT","5efaa42dff658c8fb708b6a6","6617fad957f7c6a12ea16e26","6622c975ebe87f15b0789971","break screen"," ","","","","","","","","","","","",""
"","null","html-keyboard-response","332","453197","0.0-15.0-0.0","pWuQceoXIT","5efaa42dff658c8fb708b6a6","6617fad957f7c6a12ea16e26","6622c975ebe87f15b0789971","fixation cross","null","","","","","","","","","","","",""
"","null","html-keyboard-response","333","454006","0.0-15.0-1.0","pWuQceoXIT","5efaa42dff658c8fb708b6a6","6617fad957f7c6a12ea16e26","6622c975ebe87f15b0789971","
        <div id=""grid-container"">
        <!-- Grid items will be dynamically added here -->
    </div>    ","null","","","","","","","","","","","",""
"","1641","html-keyboard-response","334","454849","0.0-15.0-2.0","pWuQceoXIT","5efaa42dff658c8fb708b6a6","6617fad957f7c6a12ea16e26","6622c975ebe87f15b0789971","mask grid","q","","","","","Ontogenetic_Distractor_Threat_target","800","onmask","q","6","Ontogenetic","true","experimental"
"","null","html-keyboard-response","335","455560","0.0-15.0-0.1","pWuQceoXIT","5efaa42dff658c8fb708b6a6","6617fad957f7c6a12ea16e26","6622c975ebe87f15b0789971","fixation cross","null","","","","","","","","","","","",""
"","null","html-keyboard-response","336","456368","0.0-15.0-1.1","pWuQceoXIT","5efaa42dff658c8fb708b6a6","6617fad957f7c6a12ea16e26","6622c975ebe87f15b0789971","
        <div id=""grid-container"">
        <!-- Grid items will be dynamically added here -->
    </div>    ","null","","","","","","","","","","","",""
"","1992","html-keyboard-response","337","457560","0.0-15.0-2.1","pWuQceoXIT","5efaa42dff658c8fb708b6a6","6617fad957f7c6a12ea16e26","6622c975ebe87f15b0789971","mask grid","q","","","","","Ontogenetic_Distractor_Threat_target","800","onmask","q","1","Ontogenetic","true","experimental"
"","null","html-keyboard-response","338","458272","0.0-15.0-0.2","pWuQceoXIT","5efaa42dff658c8fb708b6a6","6617fad957f7c6a12ea16e26","6622c975ebe87f15b0789971","fixation cross","null","","","","","","","","","","","",""
"","null","html-keyboard-response","339","459073","0.0-15.0-1.2","pWuQceoXIT","5efaa42dff658c8fb708b6a6","6617fad957f7c6a12ea16e26","6622c975ebe87f15b0789971","
        <div id=""grid-container"">
        <!-- Grid items will be dynamically added here -->
    </div>    ","null","","","","","","","","","","","",""
"","1473","html-keyboard-response","340","459745","0.0-15.0-2.2","pWuQceoXIT","5efaa42dff658c8fb708b6a6","6617fad957f7c6a12ea16e26","6622c975ebe87f15b0789971","mask grid","q","","","","","Ontogenetic_Distractor_Threat_target","800","onmask","q","8","Ontogenetic","true","experimental"
"","null","html-keyboard-response","341","460461","0.0-15.0-0.3","pWuQceoXIT","5efaa42dff658c8fb708b6a6","6617fad957f7c6a12ea16e26","6622c975ebe87f15b0789971","fixation cross","null","","","","","","","","","","","",""
"","null","html-keyboard-response","342","461275","0.0-15.0-1.3","pWuQceoXIT","5efaa42dff658c8fb708b6a6","6617fad957f7c6a12ea16e26","6622c975ebe87f15b0789971","
        <div id=""grid-container"">
        <!-- Grid items will be dynamically added here -->
    </div>    ","null","","","","","","","","","","","",""
"","1672","html-keyboard-response","343","462146","0.0-15.0-2.3","pWuQceoXIT","5efaa42dff658c8fb708b6a6","6617fad957f7c6a12ea16e26","6622c975ebe87f15b0789971","mask grid","p","","","","","Ontogenetic_Distractor_Nonthreat_target","800","onmask","p","7","Ontogenetic","true","experimental"
"","null","html-keyboard-response","344","462864","0.0-15.0-0.4","pWuQceoXIT","5efaa42dff658c8fb708b6a6","6617fad957f7c6a12ea16e26","6622c975ebe87f15b0789971","fixation cross","null","","","","","","","","","","","",""
"","null","html-keyboard-response","345","463668","0.0-15.0-1.4","pWuQceoXIT","5efaa42dff658c8fb708b6a6","6617fad957f7c6a12ea16e26","6622c975ebe87f15b0789971","
        <div id=""grid-container"">
        <!-- Grid items will be dynamically added here -->
    </div>    ","null","","","","","","","","","","","",""
"","1870","html-keyboard-response","346","464739","0.0-15.0-2.4","pWuQceoXIT","5efaa42dff658c8fb708b6a6","6617fad957f7c6a12ea16e26","6622c975ebe87f15b0789971","mask grid"," ","","","","","Ontogenetic_Distractor_notarget","800","onmask"," ","4","Ontogenetic","true","experimental"
"","null","html-keyboard-response","347","465460","0.0-15.0-0.5","pWuQceoXIT","5efaa42dff658c8fb708b6a6","6617fad957f7c6a12ea16e26","6622c975ebe87f15b0789971","fixation cross","null","","","","","","","","","","","",""
"","null","html-keyboard-response","348","466270","0.0-15.0-1.5","pWuQceoXIT","5efaa42dff658c8fb708b6a6","6617fad957f7c6a12ea16e26","6622c975ebe87f15b0789971","
        <div id=""grid-container"">
        <!-- Grid items will be dynamically added here -->
    </div>    ","null","","","","","","","","","","","",""
"","900","html-keyboard-response","349","466369","0.0-15.0-2.5","pWuQceoXIT","5efaa42dff658c8fb708b6a6","6617fad957f7c6a12ea16e26","6622c975ebe87f15b0789971","mask grid","p","","","","","Ontogenetic_Distractor_Nonthreat_target","800","onmask","p","3","Ontogenetic","true","experimental"
"","null","html-keyboard-response","350","467100","0.0-15.0-0.6","pWuQceoXIT","5efaa42dff658c8fb708b6a6","6617fad957f7c6a12ea16e26","6622c975ebe87f15b0789971","fixation cross","null","","","","","","","","","","","",""
"","null","html-keyboard-response","351","467912","0.0-15.0-1.6","pWuQceoXIT","5efaa42dff658c8fb708b6a6","6617fad957f7c6a12ea16e26","6622c975ebe87f15b0789971","
        <div id=""grid-container"">
        <!-- Grid items will be dynamically added here -->
    </div>    ","null","","","","","","","","","","","",""
"","1418","html-keyboard-response","352","468530","0.0-15.0-2.6","pWuQceoXIT","5efaa42dff658c8fb708b6a6","6617fad957f7c6a12ea16e26","6622c975ebe87f15b0789971","mask grid","q","","","","","Ontogenetic_Distractor_Threat_target","800","onmask","q","8","Ontogenetic","true","experimental"
"","null","html-keyboard-response","353","469243","0.0-15.0-0.7","pWuQceoXIT","5efaa42dff658c8fb708b6a6","6617fad957f7c6a12ea16e26","6622c975ebe87f15b0789971","fixation cross","null","","","","","","","","","","","",""
"","790","html-keyboard-response","354","470034","0.0-15.0-1.7","pWuQceoXIT","5efaa42dff658c8fb708b6a6","6617fad957f7c6a12ea16e26","6622c975ebe87f15b0789971","image grid","p","","","","","Ontogenetic_Distractor_Nonthreat_target","800","ongrid","p","9","Ontogenetic","true","experimental"
"","null","html-keyboard-response","355","470185","0.0-15.0-2.7","pWuQceoXIT","5efaa42dff658c8fb708b6a6","6617fad957f7c6a12ea16e26","6622c975ebe87f15b0789971","
    <div id=""grid-container"">
        <!-- Grid items will be dynamically added here -->
    </div>    ","null","","","","","","","","","","","",""
"","null","html-keyboard-response","356","470893","0.0-15.0-0.8","pWuQceoXIT","5efaa42dff658c8fb708b6a6","6617fad957f7c6a12ea16e26","6622c975ebe87f15b0789971","fixation cross","null","","","","","","","","","","","",""
"","null","html-keyboard-response","357","471700","0.0-15.0-1.8","pWuQceoXIT","5efaa42dff658c8fb708b6a6","6617fad957f7c6a12ea16e26","6622c975ebe87f15b0789971","
        <div id=""grid-container"">
        <!-- Grid items will be dynamically added here -->
    </div>    ","null","","","","","","","","","","","",""
"","863","html-keyboard-response","358","471762","0.0-15.0-2.8","pWuQceoXIT","5efaa42dff658c8fb708b6a6","6617fad957f7c6a12ea16e26","6622c975ebe87f15b0789971","mask grid","p","","","","","Ontogenetic_Distractor_Nonthreat_target","800","onmask","p","2","Ontogenetic","true","experimental"
"","null","html-keyboard-response","359","472475","0.0-15.0-0.9","pWuQceoXIT","5efaa42dff658c8fb708b6a6","6617fad957f7c6a12ea16e26","6622c975ebe87f15b0789971","fixation cross","null","","","","","","","","","","","",""
"","null","html-keyboard-response","360","473278","0.0-15.0-1.9","pWuQceoXIT","5efaa42dff658c8fb708b6a6","6617fad957f7c6a12ea16e26","6622c975ebe87f15b0789971","
        <div id=""grid-container"">
        <!-- Grid items will be dynamically added here -->
    </div>    ","null","","","","","","","","","","","",""
"","835","html-keyboard-response","361","473315","0.0-15.0-2.9","pWuQceoXIT","5efaa42dff658c8fb708b6a6","6617fad957f7c6a12ea16e26","6622c975ebe87f15b0789971","mask grid","p","","","","","Ontogenetic_Distractor_Nonthreat_target","800","onmask","p","8","Ontogenetic","true","experimental"
"","null","html-keyboard-response","362","474018","0.0-15.0-0.10","pWuQceoXIT","5efaa42dff658c8fb708b6a6","6617fad957f7c6a12ea16e26","6622c975ebe87f15b0789971","fixation cross","null","","","","","","","","","","","",""
"","785","html-keyboard-response","363","474803","0.0-15.0-1.10","pWuQceoXIT","5efaa42dff658c8fb708b6a6","6617fad957f7c6a12ea16e26","6622c975ebe87f15b0789971","image grid","q","","","","","Ontogenetic_Distractor_Threat_target","800","ongrid","q","2","Ontogenetic","true","experimental"
"","null","html-keyboard-response","364","474961","0.0-15.0-2.10","pWuQceoXIT","5efaa42dff658c8fb708b6a6","6617fad957f7c6a12ea16e26","6622c975ebe87f15b0789971","
    <div id=""grid-container"">
        <!-- Grid items will be dynamically added here -->
    </div>    ","null","","","","","","","","","","","",""
"","null","html-keyboard-response","365","475669","0.0-15.0-0.11","pWuQceoXIT","5efaa42dff658c8fb708b6a6","6617fad957f7c6a12ea16e26","6622c975ebe87f15b0789971","fixation cross","null","","","","","","","","","","","",""
"","null","html-keyboard-response","366","476470","0.0-15.0-1.11","pWuQceoXIT","5efaa42dff658c8fb708b6a6","6617fad957f7c6a12ea16e26","6622c975ebe87f15b0789971","
        <div id=""grid-container"">
        <!-- Grid items will be dynamically added here -->
    </div>    ","null","","","","","","","","","","","",""
"","1246","html-keyboard-response","367","476915","0.0-15.0-2.11","pWuQceoXIT","5efaa42dff658c8fb708b6a6","6617fad957f7c6a12ea16e26","6622c975ebe87f15b0789971","mask grid","p","","","","","Ontogenetic_Distractor_Nonthreat_target","800","onmask","p","9","Ontogenetic","true","experimental"
"","null","html-keyboard-response","368","477681","0.0-15.0-0.12","pWuQceoXIT","5efaa42dff658c8fb708b6a6","6617fad957f7c6a12ea16e26","6622c975ebe87f15b0789971","fixation cross","null","","","","","","","","","","","",""
"","null","html-keyboard-response","369","478486","0.0-15.0-1.12","pWuQceoXIT","5efaa42dff658c8fb708b6a6","6617fad957f7c6a12ea16e26","6622c975ebe87f15b0789971","
        <div id=""grid-container"">
        <!-- Grid items will be dynamically added here -->
    </div>    ","null","","","","","","","","","","","",""
