"success","rt","trial_type","trial_index","time_elapsed","internal_node_id","unique_identifier","subject_id","study_id","session_id","stimulus","response","timeout","failed_images","failed_audio","failed_video","task","time_manipulation","respondedwhen","correctresponse","targetimagelocation","blocktype","correct","roundtype"
"true","5079","fullscreen","0","6083","0.0-0.0","KNIBpt1Fgk","59b1986ac05bb50001eb3a5f","6617fad957f7c6a12ea16e26","6622d009922a0fc246071b3b","","","","","","","","","","","","","",""
"","5024","html-keyboard-response","1","11111","0.0-1.0","KNIBpt1Fgk","59b1986ac05bb50001eb3a5f","6617fad957f7c6a12ea16e26","6622d009922a0fc246071b3b","instruction screen 0"," ","","","","","","","","","","","",""
"true","","preload","2","12624","0.0-2.0","KNIBpt1Fgk","59b1986ac05bb50001eb3a5f","6617fad957f7c6a12ea16e26","6622d009922a0fc246071b3b","","","false","[]","[]","[]","","","","","","","",""
"","6650","html-keyboard-response","3","19275","0.0-3.0","KNIBpt1Fgk","59b1986ac05bb50001eb3a5f","6617fad957f7c6a12ea16e26","6622d009922a0fc246071b3b","instruction screen 1","enter","","","","","","","","","","","",""
"","8184","html-keyboard-response","4","27469","0.0-4.0","KNIBpt1Fgk","59b1986ac05bb50001eb3a5f","6617fad957f7c6a12ea16e26","6622d009922a0fc246071b3b","instruction screen 2","q","","","","","","","","","","","",""
"","3137","html-keyboard-response","5","30615","0.0-5.0","KNIBpt1Fgk","59b1986ac05bb50001eb3a5f","6617fad957f7c6a12ea16e26","6622d009922a0fc246071b3b","instruction screen 3","p","","","","","","","","","","","",""
"","2175","html-keyboard-response","6","32799","0.0-6.0","KNIBpt1Fgk","59b1986ac05bb50001eb3a5f","6617fad957f7c6a12ea16e26","6622d009922a0fc246071b3b","instruction screen 4"," ","","","","","","","","","","","",""
"","5799","html-keyboard-response","7","38606","0.0-7.0","KNIBpt1Fgk","59b1986ac05bb50001eb3a5f","6617fad957f7c6a12ea16e26","6622d009922a0fc246071b3b","instruction screen 5"," ","","","","","","","","","","","",""
"","null","html-keyboard-response","8","39118","0.0-8.0","KNIBpt1Fgk","59b1986ac05bb50001eb3a5f","6617fad957f7c6a12ea16e26","6622d009922a0fc246071b3b","fixation cross","null","","","","","","","","","","","",""
"","null","html-keyboard-response","9","39620","0.0-9.0-0.0","KNIBpt1Fgk","59b1986ac05bb50001eb3a5f","6617fad957f7c6a12ea16e26","6622d009922a0fc246071b3b","fixation cross","null","","","","","","","","","","","",""
"","582","html-keyboard-response","10","40203","0.0-9.0-1.0","KNIBpt1Fgk","59b1986ac05bb50001eb3a5f","6617fad957f7c6a12ea16e26","6622d009922a0fc246071b3b","image grid","q","","","","","Phylogenetic_Distractor_Nonthreat_target","3000","ongrid","p","2","Phylogenetic","false","practice"
"","null","html-keyboard-response","11","40356","0.0-9.0-2.0","KNIBpt1Fgk","59b1986ac05bb50001eb3a5f","6617fad957f7c6a12ea16e26","6622d009922a0fc246071b3b","
    <div id=""grid-container"">
        <!-- Grid items will be dynamically added here -->
    </div>    ","null","","","","","","","","","","","",""
"","null","html-keyboard-response","12","41561","0.0-9.0-3.0","KNIBpt1Fgk","59b1986ac05bb50001eb3a5f","6617fad957f7c6a12ea16e26","6622d009922a0fc246071b3b","feedback screen","null","","","","","","","","","","","",""
"","null","html-keyboard-response","13","42072","0.0-9.0-0.1","KNIBpt1Fgk","59b1986ac05bb50001eb3a5f","6617fad957f7c6a12ea16e26","6622d009922a0fc246071b3b","fixation cross","null","","","","","","","","","","","",""
"","559","html-keyboard-response","14","42631","0.0-9.0-1.1","KNIBpt1Fgk","59b1986ac05bb50001eb3a5f","6617fad957f7c6a12ea16e26","6622d009922a0fc246071b3b","image grid","q","","","","","Ontogenetic_Distractor_notarget","2900","ongrid"," ","6","Phylogenetic","false","practice"
"","null","html-keyboard-response","15","42784","0.0-9.0-2.1","KNIBpt1Fgk","59b1986ac05bb50001eb3a5f","6617fad957f7c6a12ea16e26","6622d009922a0fc246071b3b","
    <div id=""grid-container"">
        <!-- Grid items will be dynamically added here -->
    </div>    ","null","","","","","","","","","","","",""
"","null","html-keyboard-response","16","43989","0.0-9.0-3.1","KNIBpt1Fgk","59b1986ac05bb50001eb3a5f","6617fad957f7c6a12ea16e26","6622d009922a0fc246071b3b","feedback screen","null","","","","","","","","","","","",""
"","null","html-keyboard-response","17","44502","0.0-9.0-0.2","KNIBpt1Fgk","59b1986ac05bb50001eb3a5f","6617fad957f7c6a12ea16e26","6622d009922a0fc246071b3b","fixation cross","null","","","","","","","","","","","",""
"","536","html-keyboard-response","18","45038","0.0-9.0-1.2","KNIBpt1Fgk","59b1986ac05bb50001eb3a5f","6617fad957f7c6a12ea16e26","6622d009922a0fc246071b3b","image grid","p","","","","","Ontogenetic_Distractor_Nonthreat_target","2800","ongrid","p","7","Phylogenetic","true","practice"
"","null","html-keyboard-response","19","45191","0.0-9.0-2.2","KNIBpt1Fgk","59b1986ac05bb50001eb3a5f","6617fad957f7c6a12ea16e26","6622d009922a0fc246071b3b","
    <div id=""grid-container"">
        <!-- Grid items will be dynamically added here -->
    </div>    ","null","","","","","","","","","","","",""
"","null","html-keyboard-response","20","46396","0.0-9.0-3.2","KNIBpt1Fgk","59b1986ac05bb50001eb3a5f","6617fad957f7c6a12ea16e26","6622d009922a0fc246071b3b","feedback screen","null","","","","","","","","","","","",""
"","null","html-keyboard-response","21","46908","0.0-9.0-0.3","KNIBpt1Fgk","59b1986ac05bb50001eb3a5f","6617fad957f7c6a12ea16e26","6622d009922a0fc246071b3b","fixation cross","null","","","","","","","","","","","",""
"","494","html-keyboard-response","22","47403","0.0-9.0-1.3","KNIBpt1Fgk","59b1986ac05bb50001eb3a5f","6617fad957f7c6a12ea16e26","6622d009922a0fc246071b3b","image grid","q","","","","","Ontogenetic_Distractor_Threat_target","2700","ongrid","q","7","Phylogenetic","true","practice"
"","18","html-keyboard-response","23","47555","0.0-9.0-2.3","KNIBpt1Fgk","59b1986ac05bb50001eb3a5f","6617fad957f7c6a12ea16e26","6622d009922a0fc246071b3b","
    <div id=""grid-container"">
        <!-- Grid items will be dynamically added here -->
    </div>    ","p","","","","","","","","","","","",""
"","null","html-keyboard-response","24","48759","0.0-9.0-3.3","KNIBpt1Fgk","59b1986ac05bb50001eb3a5f","6617fad957f7c6a12ea16e26","6622d009922a0fc246071b3b","feedback screen","null","","","","","","","","","","","",""
"","null","html-keyboard-response","25","49269","0.0-9.0-0.4","KNIBpt1Fgk","59b1986ac05bb50001eb3a5f","6617fad957f7c6a12ea16e26","6622d009922a0fc246071b3b","fixation cross","null","","","","","","","","","","","",""
"","430","html-keyboard-response","26","49700","0.0-9.0-1.4","KNIBpt1Fgk","59b1986ac05bb50001eb3a5f","6617fad957f7c6a12ea16e26","6622d009922a0fc246071b3b","image grid","p","","","","","Ontogenetic_Distractor_Threat_target","2600","ongrid","q","8","Phylogenetic","false","practice"
"","null","html-keyboard-response","27","49853","0.0-9.0-2.4","KNIBpt1Fgk","59b1986ac05bb50001eb3a5f","6617fad957f7c6a12ea16e26","6622d009922a0fc246071b3b","
    <div id=""grid-container"">
        <!-- Grid items will be dynamically added here -->
    </div>    ","null","","","","","","","","","","","",""
"","null","html-keyboard-response","28","51058","0.0-9.0-3.4","KNIBpt1Fgk","59b1986ac05bb50001eb3a5f","6617fad957f7c6a12ea16e26","6622d009922a0fc246071b3b","feedback screen","null","","","","","","","","","","","",""
"","null","html-keyboard-response","29","51569","0.0-9.0-0.5","KNIBpt1Fgk","59b1986ac05bb50001eb3a5f","6617fad957f7c6a12ea16e26","6622d009922a0fc246071b3b","fixation cross","null","","","","","","","","","","","",""
"","579","html-keyboard-response","30","52149","0.0-9.0-1.5","KNIBpt1Fgk","59b1986ac05bb50001eb3a5f","6617fad957f7c6a12ea16e26","6622d009922a0fc246071b3b","image grid","p","","","","","Ontogenetic_Distractor_Threat_target","2500","ongrid","q","7","Phylogenetic","false","practice"
"","null","html-keyboard-response","31","52301","0.0-9.0-2.5","KNIBpt1Fgk","59b1986ac05bb50001eb3a5f","6617fad957f7c6a12ea16e26","6622d009922a0fc246071b3b","
    <div id=""grid-container"">
        <!-- Grid items will be dynamically added here -->
    </div>    ","null","","","","","","","","","","","",""
"","null","html-keyboard-response","32","53506","0.0-9.0-3.5","KNIBpt1Fgk","59b1986ac05bb50001eb3a5f","6617fad957f7c6a12ea16e26","6622d009922a0fc246071b3b","feedback screen","null","","","","","","","","","","","",""
"","null","html-keyboard-response","33","54015","0.0-9.0-0.6","KNIBpt1Fgk","59b1986ac05bb50001eb3a5f","6617fad957f7c6a12ea16e26","6622d009922a0fc246071b3b","fixation cross","null","","","","","","","","","","","",""
"","452","html-keyboard-response","34","54468","0.0-9.0-1.6","KNIBpt1Fgk","59b1986ac05bb50001eb3a5f","6617fad957f7c6a12ea16e26","6622d009922a0fc246071b3b","image grid","q","","","","","Phylogenetic_Distractor_notarget","2400","ongrid"," ","7","Phylogenetic","false","practice"
"","null","html-keyboard-response","35","54620","0.0-9.0-2.6","KNIBpt1Fgk","59b1986ac05bb50001eb3a5f","6617fad957f7c6a12ea16e26","6622d009922a0fc246071b3b","
    <div id=""grid-container"">
        <!-- Grid items will be dynamically added here -->
    </div>    ","null","","","","","","","","","","","",""
"","null","html-keyboard-response","36","55823","0.0-9.0-3.6","KNIBpt1Fgk","59b1986ac05bb50001eb3a5f","6617fad957f7c6a12ea16e26","6622d009922a0fc246071b3b","feedback screen","null","","","","","","","","","","","",""
"","null","html-keyboard-response","37","56336","0.0-9.0-0.7","KNIBpt1Fgk","59b1986ac05bb50001eb3a5f","6617fad957f7c6a12ea16e26","6622d009922a0fc246071b3b","fixation cross","null","","","","","","","","","","","",""
"","514","html-keyboard-response","38","56851","0.0-9.0-1.7","KNIBpt1Fgk","59b1986ac05bb50001eb3a5f","6617fad957f7c6a12ea16e26","6622d009922a0fc246071b3b","image grid","p","","","","","Ontogenetic_Distractor_notarget","2300","ongrid"," ","6","Phylogenetic","false","practice"
"","null","html-keyboard-response","39","57003","0.0-9.0-2.7","KNIBpt1Fgk","59b1986ac05bb50001eb3a5f","6617fad957f7c6a12ea16e26","6622d009922a0fc246071b3b","
    <div id=""grid-container"">
        <!-- Grid items will be dynamically added here -->
    </div>    ","null","","","","","","","","","","","",""
"","null","html-keyboard-response","40","58207","0.0-9.0-3.7","KNIBpt1Fgk","59b1986ac05bb50001eb3a5f","6617fad957f7c6a12ea16e26","6622d009922a0fc246071b3b","feedback screen","null","","","","","","","","","","","",""
"","null","html-keyboard-response","41","58719","0.0-9.0-0.8","KNIBpt1Fgk","59b1986ac05bb50001eb3a5f","6617fad957f7c6a12ea16e26","6622d009922a0fc246071b3b","fixation cross","null","","","","","","","","","","","",""
"","562","html-keyboard-response","42","59281","0.0-9.0-1.8","KNIBpt1Fgk","59b1986ac05bb50001eb3a5f","6617fad957f7c6a12ea16e26","6622d009922a0fc246071b3b","image grid","p","","","","","Phylogenetic_Distractor_Nonthreat_target","2200","ongrid","p","7","Phylogenetic","true","practice"
"","null","html-keyboard-response","43","59433","0.0-9.0-2.8","KNIBpt1Fgk","59b1986ac05bb50001eb3a5f","6617fad957f7c6a12ea16e26","6622d009922a0fc246071b3b","
    <div id=""grid-container"">
        <!-- Grid items will be dynamically added here -->
    </div>    ","null","","","","","","","","","","","",""
"","null","html-keyboard-response","44","60638","0.0-9.0-3.8","KNIBpt1Fgk","59b1986ac05bb50001eb3a5f","6617fad957f7c6a12ea16e26","6622d009922a0fc246071b3b","feedback screen","null","","","","","","","","","","","",""
"","null","html-keyboard-response","45","61149","0.0-9.0-0.9","KNIBpt1Fgk","59b1986ac05bb50001eb3a5f","6617fad957f7c6a12ea16e26","6622d009922a0fc246071b3b","fixation cross","null","","","","","","","","","","","",""
"","520","html-keyboard-response","46","61669","0.0-9.0-1.9","KNIBpt1Fgk","59b1986ac05bb50001eb3a5f","6617fad957f7c6a12ea16e26","6622d009922a0fc246071b3b","image grid","p","","","","","Phylogenetic_Distractor_Threat_target","2100","ongrid","q","3","Phylogenetic","false","practice"
"","null","html-keyboard-response","47","61821","0.0-9.0-2.9","KNIBpt1Fgk","59b1986ac05bb50001eb3a5f","6617fad957f7c6a12ea16e26","6622d009922a0fc246071b3b","
    <div id=""grid-container"">
        <!-- Grid items will be dynamically added here -->
    </div>    ","null","","","","","","","","","","","",""
"","null","html-keyboard-response","48","63025","0.0-9.0-3.9","KNIBpt1Fgk","59b1986ac05bb50001eb3a5f","6617fad957f7c6a12ea16e26","6622d009922a0fc246071b3b","feedback screen","null","","","","","","","","","","","",""
"","null","html-keyboard-response","49","63536","0.0-9.0-0.10","KNIBpt1Fgk","59b1986ac05bb50001eb3a5f","6617fad957f7c6a12ea16e26","6622d009922a0fc246071b3b","fixation cross","null","","","","","","","","","","","",""
"","356","html-keyboard-response","50","63893","0.0-9.0-1.10","KNIBpt1Fgk","59b1986ac05bb50001eb3a5f","6617fad957f7c6a12ea16e26","6622d009922a0fc246071b3b","image grid","q","","","","","Phylogenetic_Distractor_Threat_target","2000","ongrid","q","2","Phylogenetic","true","practice"
"","null","html-keyboard-response","51","64045","0.0-9.0-2.10","KNIBpt1Fgk","59b1986ac05bb50001eb3a5f","6617fad957f7c6a12ea16e26","6622d009922a0fc246071b3b","
    <div id=""grid-container"">
        <!-- Grid items will be dynamically added here -->
    </div>    ","null","","","","","","","","","","","",""
"","null","html-keyboard-response","52","65250","0.0-9.0-3.10","KNIBpt1Fgk","59b1986ac05bb50001eb3a5f","6617fad957f7c6a12ea16e26","6622d009922a0fc246071b3b","feedback screen","null","","","","","","","","","","","",""
"","null","html-keyboard-response","53","65762","0.0-9.0-0.11","KNIBpt1Fgk","59b1986ac05bb50001eb3a5f","6617fad957f7c6a12ea16e26","6622d009922a0fc246071b3b","fixation cross","null","","","","","","","","","","","",""
"","448","html-keyboard-response","54","66211","0.0-9.0-1.11","KNIBpt1Fgk","59b1986ac05bb50001eb3a5f","6617fad957f7c6a12ea16e26","6622d009922a0fc246071b3b","image grid","p","","","","","Phylogenetic_Distractor_Nonthreat_target","1900","ongrid","p","5","Phylogenetic","true","practice"
"","null","html-keyboard-response","55","66364","0.0-9.0-2.11","KNIBpt1Fgk","59b1986ac05bb50001eb3a5f","6617fad957f7c6a12ea16e26","6622d009922a0fc246071b3b","
    <div id=""grid-container"">
        <!-- Grid items will be dynamically added here -->
    </div>    ","null","","","","","","","","","","","",""
"","null","html-keyboard-response","56","67568","0.0-9.0-3.11","KNIBpt1Fgk","59b1986ac05bb50001eb3a5f","6617fad957f7c6a12ea16e26","6622d009922a0fc246071b3b","feedback screen","null","","","","","","","","","","","",""
"","null","html-keyboard-response","57","68080","0.0-9.0-0.12","KNIBpt1Fgk","59b1986ac05bb50001eb3a5f","6617fad957f7c6a12ea16e26","6622d009922a0fc246071b3b","fixation cross","null","","","","","","","","","","","",""
"","515","html-keyboard-response","58","68596","0.0-9.0-1.12","KNIBpt1Fgk","59b1986ac05bb50001eb3a5f","6617fad957f7c6a12ea16e26","6622d009922a0fc246071b3b","image grid","p","","","","","Ontogenetic_Distractor_Nonthreat_target","1800","ongrid","p","1","Phylogenetic","true","practice"
"","null","html-keyboard-response","59","68749","0.0-9.0-2.12","KNIBpt1Fgk","59b1986ac05bb50001eb3a5f","6617fad957f7c6a12ea16e26","6622d009922a0fc246071b3b","
    <div id=""grid-container"">
        <!-- Grid items will be dynamically added here -->
    </div>    ","null","","","","","","","","","","","",""
"","null","html-keyboard-response","60","69953","0.0-9.0-3.12","KNIBpt1Fgk","59b1986ac05bb50001eb3a5f","6617fad957f7c6a12ea16e26","6622d009922a0fc246071b3b","feedback screen","null","","","","","","","","","","","",""
"","null","html-keyboard-response","61","70458","0.0-9.0-0.13","KNIBpt1Fgk","59b1986ac05bb50001eb3a5f","6617fad957f7c6a12ea16e26","6622d009922a0fc246071b3b","fixation cross","null","","","","","","","","","","","",""
"","455","html-keyboard-response","62","70914","0.0-9.0-1.13","KNIBpt1Fgk","59b1986ac05bb50001eb3a5f","6617fad957f7c6a12ea16e26","6622d009922a0fc246071b3b","image grid","q","","","","","Phylogenetic_Distractor_Threat_target","1700","ongrid","q","5","Phylogenetic","true","practice"
"","null","html-keyboard-response","63","71067","0.0-9.0-2.13","KNIBpt1Fgk","59b1986ac05bb50001eb3a5f","6617fad957f7c6a12ea16e26","6622d009922a0fc246071b3b","
    <div id=""grid-container"">
        <!-- Grid items will be dynamically added here -->
    </div>    ","null","","","","","","","","","","","",""
"","null","html-keyboard-response","64","72271","0.0-9.0-3.13","KNIBpt1Fgk","59b1986ac05bb50001eb3a5f","6617fad957f7c6a12ea16e26","6622d009922a0fc246071b3b","feedback screen","null","","","","","","","","","","","",""
"","null","html-keyboard-response","65","72783","0.0-9.0-0.14","KNIBpt1Fgk","59b1986ac05bb50001eb3a5f","6617fad957f7c6a12ea16e26","6622d009922a0fc246071b3b","fixation cross","null","","","","","","","","","","","",""
"","428","html-keyboard-response","66","73211","0.0-9.0-1.14","KNIBpt1Fgk","59b1986ac05bb50001eb3a5f","6617fad957f7c6a12ea16e26","6622d009922a0fc246071b3b","image grid","q","","","","","Ontogenetic_Distractor_Threat_target","1600","ongrid","q","8","Phylogenetic","true","practice"
"","null","html-keyboard-response","67","73364","0.0-9.0-2.14","KNIBpt1Fgk","59b1986ac05bb50001eb3a5f","6617fad957f7c6a12ea16e26","6622d009922a0fc246071b3b","
    <div id=""grid-container"">
        <!-- Grid items will be dynamically added here -->
    </div>    ","null","","","","","","","","","","","",""
"","null","html-keyboard-response","68","74567","0.0-9.0-3.14","KNIBpt1Fgk","59b1986ac05bb50001eb3a5f","6617fad957f7c6a12ea16e26","6622d009922a0fc246071b3b","feedback screen","null","","","","","","","","","","","",""
"","null","html-keyboard-response","69","75078","0.0-9.0-0.15","KNIBpt1Fgk","59b1986ac05bb50001eb3a5f","6617fad957f7c6a12ea16e26","6622d009922a0fc246071b3b","fixation cross","null","","","","","","","","","","","",""
"","336","html-keyboard-response","70","75415","0.0-9.0-1.15","KNIBpt1Fgk","59b1986ac05bb50001eb3a5f","6617fad957f7c6a12ea16e26","6622d009922a0fc246071b3b","image grid","p","","","","","Ontogenetic_Distractor_Nonthreat_target","1500","ongrid","p","1","Phylogenetic","true","practice"
"","null","html-keyboard-response","71","75567","0.0-9.0-2.15","KNIBpt1Fgk","59b1986ac05bb50001eb3a5f","6617fad957f7c6a12ea16e26","6622d009922a0fc246071b3b","
    <div id=""grid-container"">
        <!-- Grid items will be dynamically added here -->
    </div>    ","null","","","","","","","","","","","",""
"","null","html-keyboard-response","72","76772","0.0-9.0-3.15","KNIBpt1Fgk","59b1986ac05bb50001eb3a5f","6617fad957f7c6a12ea16e26","6622d009922a0fc246071b3b","feedback screen","null","","","","","","","","","","","",""
"","null","html-keyboard-response","73","77284","0.0-9.0-0.16","KNIBpt1Fgk","59b1986ac05bb50001eb3a5f","6617fad957f7c6a12ea16e26","6622d009922a0fc246071b3b","fixation cross","null","","","","","","","","","","","",""
"","378","html-keyboard-response","74","77663","0.0-9.0-1.16","KNIBpt1Fgk","59b1986ac05bb50001eb3a5f","6617fad957f7c6a12ea16e26","6622d009922a0fc246071b3b","image grid","p","","","","","Ontogenetic_Distractor_Nonthreat_target","1400","ongrid","p","1","Phylogenetic","true","practice"
"","null","html-keyboard-response","75","77814","0.0-9.0-2.16","KNIBpt1Fgk","59b1986ac05bb50001eb3a5f","6617fad957f7c6a12ea16e26","6622d009922a0fc246071b3b","
    <div id=""grid-container"">
        <!-- Grid items will be dynamically added here -->
    </div>    ","null","","","","","","","","","","","",""
"","null","html-keyboard-response","76","79019","0.0-9.0-3.16","KNIBpt1Fgk","59b1986ac05bb50001eb3a5f","6617fad957f7c6a12ea16e26","6622d009922a0fc246071b3b","feedback screen","null","","","","","","","","","","","",""
"","null","html-keyboard-response","77","79529","0.0-9.0-0.17","KNIBpt1Fgk","59b1986ac05bb50001eb3a5f","6617fad957f7c6a12ea16e26","6622d009922a0fc246071b3b","fixation cross","null","","","","","","","","","","","",""
"","430","html-keyboard-response","78","79960","0.0-9.0-1.17","KNIBpt1Fgk","59b1986ac05bb50001eb3a5f","6617fad957f7c6a12ea16e26","6622d009922a0fc246071b3b","image grid","p","","","","","Phylogenetic_Distractor_Nonthreat_target","1300","ongrid","p","8","Phylogenetic","true","practice"
"","null","html-keyboard-response","79","80113","0.0-9.0-2.17","KNIBpt1Fgk","59b1986ac05bb50001eb3a5f","6617fad957f7c6a12ea16e26","6622d009922a0fc246071b3b","
    <div id=""grid-container"">
        <!-- Grid items will be dynamically added here -->
    </div>    ","null","","","","","","","","","","","",""
"","null","html-keyboard-response","80","81316","0.0-9.0-3.17","KNIBpt1Fgk","59b1986ac05bb50001eb3a5f","6617fad957f7c6a12ea16e26","6622d009922a0fc246071b3b","feedback screen","null","","","","","","","","","","","",""
"","null","html-keyboard-response","81","81826","0.0-9.0-0.18","KNIBpt1Fgk","59b1986ac05bb50001eb3a5f","6617fad957f7c6a12ea16e26","6622d009922a0fc246071b3b","fixation cross","null","","","","","","","","","","","",""
"","379","html-keyboard-response","82","82205","0.0-9.0-1.18","KNIBpt1Fgk","59b1986ac05bb50001eb3a5f","6617fad957f7c6a12ea16e26","6622d009922a0fc246071b3b","image grid","p","","","","","Phylogenetic_Distractor_Threat_target","1200","ongrid","q","3","Phylogenetic","false","practice"
"","null","html-keyboard-response","83","82358","0.0-9.0-2.18","KNIBpt1Fgk","59b1986ac05bb50001eb3a5f","6617fad957f7c6a12ea16e26","6622d009922a0fc246071b3b","
    <div id=""grid-container"">
        <!-- Grid items will be dynamically added here -->
    </div>    ","null","","","","","","","","","","","",""
"","null","html-keyboard-response","84","83563","0.0-9.0-3.18","KNIBpt1Fgk","59b1986ac05bb50001eb3a5f","6617fad957f7c6a12ea16e26","6622d009922a0fc246071b3b","feedback screen","null","","","","","","","","","","","",""
"","null","html-keyboard-response","85","84074","0.0-9.0-0.19","KNIBpt1Fgk","59b1986ac05bb50001eb3a5f","6617fad957f7c6a12ea16e26","6622d009922a0fc246071b3b","fixation cross","null","","","","","","","","","","","",""
"","342","html-keyboard-response","86","84417","0.0-9.0-1.19","KNIBpt1Fgk","59b1986ac05bb50001eb3a5f","6617fad957f7c6a12ea16e26","6622d009922a0fc246071b3b","image grid","q","","","","","Phylogenetic_Distractor_notarget","1100","ongrid"," ","1","Phylogenetic","false","practice"
"","null","html-keyboard-response","87","84569","0.0-9.0-2.19","KNIBpt1Fgk","59b1986ac05bb50001eb3a5f","6617fad957f7c6a12ea16e26","6622d009922a0fc246071b3b","
    <div id=""grid-container"">
        <!-- Grid items will be dynamically added here -->
    </div>    ","null","","","","","","","","","","","",""
"","null","html-keyboard-response","88","85773","0.0-9.0-3.19","KNIBpt1Fgk","59b1986ac05bb50001eb3a5f","6617fad957f7c6a12ea16e26","6622d009922a0fc246071b3b","feedback screen","null","","","","","","","","","","","",""
"","1878","html-keyboard-response","89","87699","0.0-10.0","KNIBpt1Fgk","59b1986ac05bb50001eb3a5f","6617fad957f7c6a12ea16e26","6622d009922a0fc246071b3b","pre-experimental_briefing"," ","","","","","","","","","","","",""
"","null","html-keyboard-response","90","90203","0.0-11.0-0.0","KNIBpt1Fgk","59b1986ac05bb50001eb3a5f","6617fad957f7c6a12ea16e26","6622d009922a0fc246071b3b","fixation cross","null","","","","","","","","","","","",""
"","219","html-keyboard-response","91","90423","0.0-11.0-1.0","KNIBpt1Fgk","59b1986ac05bb50001eb3a5f","6617fad957f7c6a12ea16e26","6622d009922a0fc246071b3b","image grid","p","","","","","Phylogenetic_Distractor_Threat_target","800","ongrid","q","7","Phylogenetic","false","experimental"
"","null","html-keyboard-response","92","90576","0.0-11.0-2.0","KNIBpt1Fgk","59b1986ac05bb50001eb3a5f","6617fad957f7c6a12ea16e26","6622d009922a0fc246071b3b","
    <div id=""grid-container"">
        <!-- Grid items will be dynamically added here -->
    </div>    ","null","","","","","","","","","","","",""
"","null","html-keyboard-response","93","91280","0.0-11.0-0.1","KNIBpt1Fgk","59b1986ac05bb50001eb3a5f","6617fad957f7c6a12ea16e26","6622d009922a0fc246071b3b","fixation cross","null","","","","","","","","","","","",""
"","356","html-keyboard-response","94","91636","0.0-11.0-1.1","KNIBpt1Fgk","59b1986ac05bb50001eb3a5f","6617fad957f7c6a12ea16e26","6622d009922a0fc246071b3b","image grid","p","","","","","Phylogenetic_Distractor_Threat_target","800","ongrid","q","9","Phylogenetic","false","experimental"
"","null","html-keyboard-response","95","91789","0.0-11.0-2.1","KNIBpt1Fgk","59b1986ac05bb50001eb3a5f","6617fad957f7c6a12ea16e26","6622d009922a0fc246071b3b","
    <div id=""grid-container"">
        <!-- Grid items will be dynamically added here -->
    </div>    ","null","","","","","","","","","","","",""
"","null","html-keyboard-response","96","92493","0.0-11.0-0.2","KNIBpt1Fgk","59b1986ac05bb50001eb3a5f","6617fad957f7c6a12ea16e26","6622d009922a0fc246071b3b","fixation cross","null","","","","","","","","","","","",""
"","334","html-keyboard-response","97","92829","0.0-11.0-1.2","KNIBpt1Fgk","59b1986ac05bb50001eb3a5f","6617fad957f7c6a12ea16e26","6622d009922a0fc246071b3b","image grid","q","","","","","Phylogenetic_Distractor_Nonthreat_target","800","ongrid","p","7","Phylogenetic","false","experimental"
"","98","html-keyboard-response","98","92981","0.0-11.0-2.2","KNIBpt1Fgk","59b1986ac05bb50001eb3a5f","6617fad957f7c6a12ea16e26","6622d009922a0fc246071b3b","
    <div id=""grid-container"">
        <!-- Grid items will be dynamically added here -->
    </div>    ","p","","","","","","","","","","","",""
"","null","html-keyboard-response","99","93685","0.0-11.0-0.3","KNIBpt1Fgk","59b1986ac05bb50001eb3a5f","6617fad957f7c6a12ea16e26","6622d009922a0fc246071b3b","fixation cross","null","","","","","","","","","","","",""
"","292","html-keyboard-response","100","93978","0.0-11.0-1.3","KNIBpt1Fgk","59b1986ac05bb50001eb3a5f","6617fad957f7c6a12ea16e26","6622d009922a0fc246071b3b","image grid","p","","","","","Phylogenetic_Distractor_Nonthreat_target","800","ongrid","p","3","Phylogenetic","true","experimental"
"","null","html-keyboard-response","101","94131","0.0-11.0-2.3","KNIBpt1Fgk","59b1986ac05bb50001eb3a5f","6617fad957f7c6a12ea16e26","6622d009922a0fc246071b3b","
    <div id=""grid-container"">
        <!-- Grid items will be dynamically added here -->
    </div>    ","null","","","","","","","","","","","",""
"","null","html-keyboard-response","102","94835","0.0-11.0-0.4","KNIBpt1Fgk","59b1986ac05bb50001eb3a5f","6617fad957f7c6a12ea16e26","6622d009922a0fc246071b3b","fixation cross","null","","","","","","","","","","","",""
"","310","html-keyboard-response","103","95145","0.0-11.0-1.4","KNIBpt1Fgk","59b1986ac05bb50001eb3a5f","6617fad957f7c6a12ea16e26","6622d009922a0fc246071b3b","image grid","p","","","","","Phylogenetic_Distractor_Threat_target","800","ongrid","q","4","Phylogenetic","false","experimental"
"","null","html-keyboard-response","104","95297","0.0-11.0-2.4","KNIBpt1Fgk","59b1986ac05bb50001eb3a5f","6617fad957f7c6a12ea16e26","6622d009922a0fc246071b3b","
    <div id=""grid-container"">
        <!-- Grid items will be dynamically added here -->
    </div>    ","null","","","","","","","","","","","",""
"","null","html-keyboard-response","105","96000","0.0-11.0-0.5","KNIBpt1Fgk","59b1986ac05bb50001eb3a5f","6617fad957f7c6a12ea16e26","6622d009922a0fc246071b3b","fixation cross","null","","","","","","","","","","","",""
"","314","html-keyboard-response","106","96316","0.0-11.0-1.5","KNIBpt1Fgk","59b1986ac05bb50001eb3a5f","6617fad957f7c6a12ea16e26","6622d009922a0fc246071b3b","image grid","p","","","","","Phylogenetic_Distractor_Threat_target","800","ongrid","q","2","Phylogenetic","false","experimental"
"","null","html-keyboard-response","107","96468","0.0-11.0-2.5","KNIBpt1Fgk","59b1986ac05bb50001eb3a5f","6617fad957f7c6a12ea16e26","6622d009922a0fc246071b3b","
    <div id=""grid-container"">
        <!-- Grid items will be dynamically added here -->
    </div>    ","null","","","","","","","","","","","",""
"","null","html-keyboard-response","108","97173","0.0-11.0-0.6","KNIBpt1Fgk","59b1986ac05bb50001eb3a5f","6617fad957f7c6a12ea16e26","6622d009922a0fc246071b3b","fixation cross","null","","","","","","","","","","","",""
"","402","html-keyboard-response","109","97577","0.0-11.0-1.6","KNIBpt1Fgk","59b1986ac05bb50001eb3a5f","6617fad957f7c6a12ea16e26","6622d009922a0fc246071b3b","image grid","p","","","","","Phylogenetic_Distractor_Nonthreat_target","800","ongrid","p","1","Phylogenetic","true","experimental"
"","null","html-keyboard-response","110","97729","0.0-11.0-2.6","KNIBpt1Fgk","59b1986ac05bb50001eb3a5f","6617fad957f7c6a12ea16e26","6622d009922a0fc246071b3b","
    <div id=""grid-container"">
        <!-- Grid items will be dynamically added here -->
    </div>    ","null","","","","","","","","","","","",""
"","null","html-keyboard-response","111","98433","0.0-11.0-0.7","KNIBpt1Fgk","59b1986ac05bb50001eb3a5f","6617fad957f7c6a12ea16e26","6622d009922a0fc246071b3b","fixation cross","null","","","","","","","","","","","",""
"","448","html-keyboard-response","112","98881","0.0-11.0-1.7","KNIBpt1Fgk","59b1986ac05bb50001eb3a5f","6617fad957f7c6a12ea16e26","6622d009922a0fc246071b3b","image grid","p","","","","","Phylogenetic_Distractor_Nonthreat_target","800","ongrid","p","1","Phylogenetic","true","experimental"
"","null","html-keyboard-response","113","99034","0.0-11.0-2.7","KNIBpt1Fgk","59b1986ac05bb50001eb3a5f","6617fad957f7c6a12ea16e26","6622d009922a0fc246071b3b","
    <div id=""grid-container"">
        <!-- Grid items will be dynamically added here -->
    </div>    ","null","","","","","","","","","","","",""
"","null","html-keyboard-response","114","99738","0.0-11.0-0.8","KNIBpt1Fgk","59b1986ac05bb50001eb3a5f","6617fad957f7c6a12ea16e26","6622d009922a0fc246071b3b","fixation cross","null","","","","","","","","","","","",""
"","469","html-keyboard-response","115","100209","0.0-11.0-1.8","KNIBpt1Fgk","59b1986ac05bb50001eb3a5f","6617fad957f7c6a12ea16e26","6622d009922a0fc246071b3b","image grid","p","","","","","Phylogenetic_Distractor_Threat_target","800","ongrid","q","3","Phylogenetic","false","experimental"
"","null","html-keyboard-response","116","100362","0.0-11.0-2.8","KNIBpt1Fgk","59b1986ac05bb50001eb3a5f","6617fad957f7c6a12ea16e26","6622d009922a0fc246071b3b","
    <div id=""grid-container"">
        <!-- Grid items will be dynamically added here -->
    </div>    ","null","","","","","","","","","","","",""
"","null","html-keyboard-response","117","101066","0.0-11.0-0.9","KNIBpt1Fgk","59b1986ac05bb50001eb3a5f","6617fad957f7c6a12ea16e26","6622d009922a0fc246071b3b","fixation cross","null","","","","","","","","","","","",""
"","558","html-keyboard-response","118","101625","0.0-11.0-1.9","KNIBpt1Fgk","59b1986ac05bb50001eb3a5f","6617fad957f7c6a12ea16e26","6622d009922a0fc246071b3b","image grid","p","","","","","Phylogenetic_Distractor_Nonthreat_target","800","ongrid","p","9","Phylogenetic","true","experimental"
"","null","html-keyboard-response","119","101778","0.0-11.0-2.9","KNIBpt1Fgk","59b1986ac05bb50001eb3a5f","6617fad957f7c6a12ea16e26","6622d009922a0fc246071b3b","
    <div id=""grid-container"">
        <!-- Grid items will be dynamically added here -->
    </div>    ","null","","","","","","","","","","","",""
"","null","html-keyboard-response","120","102482","0.0-11.0-0.10","KNIBpt1Fgk","59b1986ac05bb50001eb3a5f","6617fad957f7c6a12ea16e26","6622d009922a0fc246071b3b","fixation cross","null","","","","","","","","","","","",""
"","495","html-keyboard-response","121","102978","0.0-11.0-1.10","KNIBpt1Fgk","59b1986ac05bb50001eb3a5f","6617fad957f7c6a12ea16e26","6622d009922a0fc246071b3b","image grid","p","","","","","Phylogenetic_Distractor_Threat_target","800","ongrid","q","2","Phylogenetic","false","experimental"
"","null","html-keyboard-response","122","103131","0.0-11.0-2.10","KNIBpt1Fgk","59b1986ac05bb50001eb3a5f","6617fad957f7c6a12ea16e26","6622d009922a0fc246071b3b","
    <div id=""grid-container"">
        <!-- Grid items will be dynamically added here -->
    </div>    ","null","","","","","","","","","","","",""
"","null","html-keyboard-response","123","103835","0.0-11.0-0.11","KNIBpt1Fgk","59b1986ac05bb50001eb3a5f","6617fad957f7c6a12ea16e26","6622d009922a0fc246071b3b","fixation cross","null","","","","","","","","","","","",""
"","558","html-keyboard-response","124","104394","0.0-11.0-1.11","KNIBpt1Fgk","59b1986ac05bb50001eb3a5f","6617fad957f7c6a12ea16e26","6622d009922a0fc246071b3b","image grid","p","","","","","Phylogenetic_Distractor_Nonthreat_target","800","ongrid","p","4","Phylogenetic","true","experimental"
"","null","html-keyboard-response","125","104547","0.0-11.0-2.11","KNIBpt1Fgk","59b1986ac05bb50001eb3a5f","6617fad957f7c6a12ea16e26","6622d009922a0fc246071b3b","
    <div id=""grid-container"">
        <!-- Grid items will be dynamically added here -->
    </div>    ","null","","","","","","","","","","","",""
"","null","html-keyboard-response","126","105251","0.0-11.0-0.12","KNIBpt1Fgk","59b1986ac05bb50001eb3a5f","6617fad957f7c6a12ea16e26","6622d009922a0fc246071b3b","fixation cross","null","","","","","","","","","","","",""
"","495","html-keyboard-response","127","105747","0.0-11.0-1.12","KNIBpt1Fgk","59b1986ac05bb50001eb3a5f","6617fad957f7c6a12ea16e26","6622d009922a0fc246071b3b","image grid","q","","","","","Phylogenetic_Distractor_Threat_target","800","ongrid","q","2","Phylogenetic","true","experimental"
"","null","html-keyboard-response","128","105899","0.0-11.0-2.12","KNIBpt1Fgk","59b1986ac05bb50001eb3a5f","6617fad957f7c6a12ea16e26","6622d009922a0fc246071b3b","
    <div id=""grid-container"">
        <!-- Grid items will be dynamically added here -->
    </div>    ","null","","","","","","","","","","","",""
"","null","html-keyboard-response","129","106604","0.0-11.0-0.13","KNIBpt1Fgk","59b1986ac05bb50001eb3a5f","6617fad957f7c6a12ea16e26","6622d009922a0fc246071b3b","fixation cross","null","","","","","","","","","","","",""
"","578","html-keyboard-response","130","107183","0.0-11.0-1.13","KNIBpt1Fgk","59b1986ac05bb50001eb3a5f","6617fad957f7c6a12ea16e26","6622d009922a0fc246071b3b","image grid","p","","","","","Phylogenetic_Distractor_Nonthreat_target","800","ongrid","p","1","Phylogenetic","true","experimental"
"","null","html-keyboard-response","131","107336","0.0-11.0-2.13","KNIBpt1Fgk","59b1986ac05bb50001eb3a5f","6617fad957f7c6a12ea16e26","6622d009922a0fc246071b3b","
    <div id=""grid-container"">
        <!-- Grid items will be dynamically added here -->
    </div>    ","null","","","","","","","","","","","",""
"","null","html-keyboard-response","132","108040","0.0-11.0-0.14","KNIBpt1Fgk","59b1986ac05bb50001eb3a5f","6617fad957f7c6a12ea16e26","6622d009922a0fc246071b3b","fixation cross","null","","","","","","","","","","","",""
"","584","html-keyboard-response","133","108624","0.0-11.0-1.14","KNIBpt1Fgk","59b1986ac05bb50001eb3a5f","6617fad957f7c6a12ea16e26","6622d009922a0fc246071b3b","image grid","p","","","","","Phylogenetic_Distractor_Threat_target","800","ongrid","q","3","Phylogenetic","false","experimental"
"","null","html-keyboard-response","134","108777","0.0-11.0-2.14","KNIBpt1Fgk","59b1986ac05bb50001eb3a5f","6617fad957f7c6a12ea16e26","6622d009922a0fc246071b3b","
    <div id=""grid-container"">
        <!-- Grid items will be dynamically added here -->
    </div>    ","null","","","","","","","","","","","",""
"","null","html-keyboard-response","135","109481","0.0-11.0-0.15","KNIBpt1Fgk","59b1986ac05bb50001eb3a5f","6617fad957f7c6a12ea16e26","6622d009922a0fc246071b3b","fixation cross","null","","","","","","","","","","","",""
"","649","html-keyboard-response","136","110131","0.0-11.0-1.15","KNIBpt1Fgk","59b1986ac05bb50001eb3a5f","6617fad957f7c6a12ea16e26","6622d009922a0fc246071b3b","image grid","p","","","","","Phylogenetic_Distractor_Nonthreat_target","800","ongrid","p","8","Phylogenetic","true","experimental"
"","null","html-keyboard-response","137","110283","0.0-11.0-2.15","KNIBpt1Fgk","59b1986ac05bb50001eb3a5f","6617fad957f7c6a12ea16e26","6622d009922a0fc246071b3b","
    <div id=""grid-container"">
        <!-- Grid items will be dynamically added here -->
    </div>    ","null","","","","","","","","","","","",""
"","null","html-keyboard-response","138","110986","0.0-11.0-0.16","KNIBpt1Fgk","59b1986ac05bb50001eb3a5f","6617fad957f7c6a12ea16e26","6622d009922a0fc246071b3b","fixation cross","null","","","","","","","","","","","",""
"","514","html-keyboard-response","139","111501","0.0-11.0-1.16","KNIBpt1Fgk","59b1986ac05bb50001eb3a5f","6617fad957f7c6a12ea16e26","6622d009922a0fc246071b3b","image grid","p","","","","","Phylogenetic_Distractor_notarget","800","ongrid"," ","6","Phylogenetic","false","experimental"
"","null","html-keyboard-response","140","111653","0.0-11.0-2.16","KNIBpt1Fgk","59b1986ac05bb50001eb3a5f","6617fad957f7c6a12ea16e26","6622d009922a0fc246071b3b","
    <div id=""grid-container"">
        <!-- Grid items will be dynamically added here -->
    </div>    ","null","","","","","","","","","","","",""
"","null","html-keyboard-response","141","112357","0.0-11.0-0.17","KNIBpt1Fgk","59b1986ac05bb50001eb3a5f","6617fad957f7c6a12ea16e26","6622d009922a0fc246071b3b","fixation cross","null","","","","","","","","","","","",""
"","430","html-keyboard-response","142","112788","0.0-11.0-1.17","KNIBpt1Fgk","59b1986ac05bb50001eb3a5f","6617fad957f7c6a12ea16e26","6622d009922a0fc246071b3b","image grid","p","","","","","Phylogenetic_Distractor_Threat_target","800","ongrid","q","5","Phylogenetic","false","experimental"
"","null","html-keyboard-response","143","112941","0.0-11.0-2.17","KNIBpt1Fgk","59b1986ac05bb50001eb3a5f","6617fad957f7c6a12ea16e26","6622d009922a0fc246071b3b","
    <div id=""grid-container"">
        <!-- Grid items will be dynamically added here -->
    </div>    ","null","","","","","","","","","","","",""
"","null","html-keyboard-response","144","113645","0.0-11.0-0.18","KNIBpt1Fgk","59b1986ac05bb50001eb3a5f","6617fad957f7c6a12ea16e26","6622d009922a0fc246071b3b","fixation cross","null","","","","","","","","","","","",""
"","333","html-keyboard-response","145","113979","0.0-11.0-1.18","KNIBpt1Fgk","59b1986ac05bb50001eb3a5f","6617fad957f7c6a12ea16e26","6622d009922a0fc246071b3b","image grid","q","","","","","Phylogenetic_Distractor_Threat_target","800","ongrid","q","1","Phylogenetic","true","experimental"
"","null","html-keyboard-response","146","114132","0.0-11.0-2.18","KNIBpt1Fgk","59b1986ac05bb50001eb3a5f","6617fad957f7c6a12ea16e26","6622d009922a0fc246071b3b","
    <div id=""grid-container"">
        <!-- Grid items will be dynamically added here -->
    </div>    ","null","","","","","","","","","","","",""
"","null","html-keyboard-response","147","114836","0.0-11.0-0.19","KNIBpt1Fgk","59b1986ac05bb50001eb3a5f","6617fad957f7c6a12ea16e26","6622d009922a0fc246071b3b","fixation cross","null","","","","","","","","","","","",""
"","201","html-keyboard-response","148","115038","0.0-11.0-1.19","KNIBpt1Fgk","59b1986ac05bb50001eb3a5f","6617fad957f7c6a12ea16e26","6622d009922a0fc246071b3b","image grid","p","","","","","Phylogenetic_Distractor_Threat_target","800","ongrid","q","1","Phylogenetic","false","experimental"
"","null","html-keyboard-response","149","115190","0.0-11.0-2.19","KNIBpt1Fgk","59b1986ac05bb50001eb3a5f","6617fad957f7c6a12ea16e26","6622d009922a0fc246071b3b","
    <div id=""grid-container"">
        <!-- Grid items will be dynamically added here -->
    </div>    ","null","","","","","","","","","","","",""
"","null","html-keyboard-response","150","115894","0.0-11.0-0.20","KNIBpt1Fgk","59b1986ac05bb50001eb3a5f","6617fad957f7c6a12ea16e26","6622d009922a0fc246071b3b","fixation cross","null","","","","","","","","","","","",""
"","294","html-keyboard-response","151","116189","0.0-11.0-1.20","KNIBpt1Fgk","59b1986ac05bb50001eb3a5f","6617fad957f7c6a12ea16e26","6622d009922a0fc246071b3b","image grid","p","","","","","Phylogenetic_Distractor_Nonthreat_target","800","ongrid","p","5","Phylogenetic","true","experimental"
"","null","html-keyboard-response","152","116341","0.0-11.0-2.20","KNIBpt1Fgk","59b1986ac05bb50001eb3a5f","6617fad957f7c6a12ea16e26","6622d009922a0fc246071b3b","
    <div id=""grid-container"">
        <!-- Grid items will be dynamically added here -->
    </div>    ","null","","","","","","","","","","","",""
"","null","html-keyboard-response","153","117045","0.0-11.0-0.21","KNIBpt1Fgk","59b1986ac05bb50001eb3a5f","6617fad957f7c6a12ea16e26","6622d009922a0fc246071b3b","fixation cross","null","","","","","","","","","","","",""
"","241","html-keyboard-response","154","117287","0.0-11.0-1.21","KNIBpt1Fgk","59b1986ac05bb50001eb3a5f","6617fad957f7c6a12ea16e26","6622d009922a0fc246071b3b","image grid","q","","","","","Phylogenetic_Distractor_Threat_target","800","ongrid","q","5","Phylogenetic","true","experimental"
"","null","html-keyboard-response","155","117440","0.0-11.0-2.21","KNIBpt1Fgk","59b1986ac05bb50001eb3a5f","6617fad957f7c6a12ea16e26","6622d009922a0fc246071b3b","
    <div id=""grid-container"">
        <!-- Grid items will be dynamically added here -->
    </div>    ","null","","","","","","","","","","","",""
"","null","html-keyboard-response","156","118144","0.0-11.0-0.22","KNIBpt1Fgk","59b1986ac05bb50001eb3a5f","6617fad957f7c6a12ea16e26","6622d009922a0fc246071b3b","fixation cross","null","","","","","","","","","","","",""
"","355","html-keyboard-response","157","118499","0.0-11.0-1.22","KNIBpt1Fgk","59b1986ac05bb50001eb3a5f","6617fad957f7c6a12ea16e26","6622d009922a0fc246071b3b","image grid","q","","","","","Phylogenetic_Distractor_Nonthreat_target","800","ongrid","p","6","Phylogenetic","false","experimental"
"","null","html-keyboard-response","158","118652","0.0-11.0-2.22","KNIBpt1Fgk","59b1986ac05bb50001eb3a5f","6617fad957f7c6a12ea16e26","6622d009922a0fc246071b3b","
    <div id=""grid-container"">
        <!-- Grid items will be dynamically added here -->
    </div>    ","null","","","","","","","","","","","",""
"","null","html-keyboard-response","159","119356","0.0-11.0-0.23","KNIBpt1Fgk","59b1986ac05bb50001eb3a5f","6617fad957f7c6a12ea16e26","6622d009922a0fc246071b3b","fixation cross","null","","","","","","","","","","","",""
"","202","html-keyboard-response","160","119558","0.0-11.0-1.23","KNIBpt1Fgk","59b1986ac05bb50001eb3a5f","6617fad957f7c6a12ea16e26","6622d009922a0fc246071b3b","image grid","p","","","","","Phylogenetic_Distractor_Threat_target","800","ongrid","q","8","Phylogenetic","false","experimental"
"","null","html-keyboard-response","161","119711","0.0-11.0-2.23","KNIBpt1Fgk","59b1986ac05bb50001eb3a5f","6617fad957f7c6a12ea16e26","6622d009922a0fc246071b3b","
    <div id=""grid-container"">
        <!-- Grid items will be dynamically added here -->
    </div>    ","null","","","","","","","","","","","",""
"","null","html-keyboard-response","162","120415","0.0-11.0-0.24","KNIBpt1Fgk","59b1986ac05bb50001eb3a5f","6617fad957f7c6a12ea16e26","6622d009922a0fc246071b3b","fixation cross","null","","","","","","","","","","","",""
"","313","html-keyboard-response","163","120729","0.0-11.0-1.24","KNIBpt1Fgk","59b1986ac05bb50001eb3a5f","6617fad957f7c6a12ea16e26","6622d009922a0fc246071b3b","image grid","q","","","","","Phylogenetic_Distractor_notarget","800","ongrid"," ","3","Phylogenetic","false","experimental"
"","null","html-keyboard-response","164","120882","0.0-11.0-2.24","KNIBpt1Fgk","59b1986ac05bb50001eb3a5f","6617fad957f7c6a12ea16e26","6622d009922a0fc246071b3b","
    <div id=""grid-container"">
        <!-- Grid items will be dynamically added here -->
    </div>    ","null","","","","","","","","","","","",""
"","null","html-keyboard-response","165","121586","0.0-11.0-0.25","KNIBpt1Fgk","59b1986ac05bb50001eb3a5f","6617fad957f7c6a12ea16e26","6622d009922a0fc246071b3b","fixation cross","null","","","","","","","","","","","",""
"","220","html-keyboard-response","166","121807","0.0-11.0-1.25","KNIBpt1Fgk","59b1986ac05bb50001eb3a5f","6617fad957f7c6a12ea16e26","6622d009922a0fc246071b3b","image grid","p","","","","","Phylogenetic_Distractor_Nonthreat_target","800","ongrid","p","1","Phylogenetic","true","experimental"
"","null","html-keyboard-response","167","121959","0.0-11.0-2.25","KNIBpt1Fgk","59b1986ac05bb50001eb3a5f","6617fad957f7c6a12ea16e26","6622d009922a0fc246071b3b","
    <div id=""grid-container"">
        <!-- Grid items will be dynamically added here -->
    </div>    ","null","","","","","","","","","","","",""
"","null","html-keyboard-response","168","122663","0.0-11.0-0.26","KNIBpt1Fgk","59b1986ac05bb50001eb3a5f","6617fad957f7c6a12ea16e26","6622d009922a0fc246071b3b","fixation cross","null","","","","","","","","","","","",""
"","383","html-keyboard-response","169","123047","0.0-11.0-1.26","KNIBpt1Fgk","59b1986ac05bb50001eb3a5f","6617fad957f7c6a12ea16e26","6622d009922a0fc246071b3b","image grid","q","","","","","Phylogenetic_Distractor_Nonthreat_target","800","ongrid","p","2","Phylogenetic","false","experimental"
"","null","html-keyboard-response","170","123199","0.0-11.0-2.26","KNIBpt1Fgk","59b1986ac05bb50001eb3a5f","6617fad957f7c6a12ea16e26","6622d009922a0fc246071b3b","
    <div id=""grid-container"">
        <!-- Grid items will be dynamically added here -->
    </div>    ","null","","","","","","","","","","","",""
"","null","html-keyboard-response","171","123903","0.0-11.0-0.27","KNIBpt1Fgk","59b1986ac05bb50001eb3a5f","6617fad957f7c6a12ea16e26","6622d009922a0fc246071b3b","fixation cross","null","","","","","","","","","","","",""
"","357","html-keyboard-response","172","124261","0.0-11.0-1.27","KNIBpt1Fgk","59b1986ac05bb50001eb3a5f","6617fad957f7c6a12ea16e26","6622d009922a0fc246071b3b","image grid","p","","","","","Phylogenetic_Distractor_Threat_target","800","ongrid","q","2","Phylogenetic","false","experimental"
"","null","html-keyboard-response","173","124414","0.0-11.0-2.27","KNIBpt1Fgk","59b1986ac05bb50001eb3a5f","6617fad957f7c6a12ea16e26","6622d009922a0fc246071b3b","
    <div id=""grid-container"">
        <!-- Grid items will be dynamically added here -->
    </div>    ","null","","","","","","","","","","","",""
"","null","html-keyboard-response","174","125118","0.0-11.0-0.28","KNIBpt1Fgk","59b1986ac05bb50001eb3a5f","6617fad957f7c6a12ea16e26","6622d009922a0fc246071b3b","fixation cross","null","","","","","","","","","","","",""
"","244","html-keyboard-response","175","125363","0.0-11.0-1.28","KNIBpt1Fgk","59b1986ac05bb50001eb3a5f","6617fad957f7c6a12ea16e26","6622d009922a0fc246071b3b","image grid","q","","","","","Phylogenetic_Distractor_Nonthreat_target","800","ongrid","p","4","Phylogenetic","false","experimental"
"","null","html-keyboard-response","176","125515","0.0-11.0-2.28","KNIBpt1Fgk","59b1986ac05bb50001eb3a5f","6617fad957f7c6a12ea16e26","6622d009922a0fc246071b3b","
    <div id=""grid-container"">
        <!-- Grid items will be dynamically added here -->
    </div>    ","null","","","","","","","","","","","",""
"","null","html-keyboard-response","177","126220","0.0-11.0-0.29","KNIBpt1Fgk","59b1986ac05bb50001eb3a5f","6617fad957f7c6a12ea16e26","6622d009922a0fc246071b3b","fixation cross","null","","","","","","","","","","","",""
"","249","html-keyboard-response","178","126470","0.0-11.0-1.29","KNIBpt1Fgk","59b1986ac05bb50001eb3a5f","6617fad957f7c6a12ea16e26","6622d009922a0fc246071b3b","image grid","q","","","","","Phylogenetic_Distractor_Threat_target","800","ongrid","q","9","Phylogenetic","true","experimental"
"","null","html-keyboard-response","179","126623","0.0-11.0-2.29","KNIBpt1Fgk","59b1986ac05bb50001eb3a5f","6617fad957f7c6a12ea16e26","6622d009922a0fc246071b3b","
    <div id=""grid-container"">
        <!-- Grid items will be dynamically added here -->
    </div>    ","null","","","","","","","","","","","",""
"","null","html-keyboard-response","180","127327","0.0-11.0-0.30","KNIBpt1Fgk","59b1986ac05bb50001eb3a5f","6617fad957f7c6a12ea16e26","6622d009922a0fc246071b3b","fixation cross","null","","","","","","","","","","","",""
"","287","html-keyboard-response","181","127614","0.0-11.0-1.30","KNIBpt1Fgk","59b1986ac05bb50001eb3a5f","6617fad957f7c6a12ea16e26","6622d009922a0fc246071b3b","image grid","p","","","","","Phylogenetic_Distractor_Threat_target","800","ongrid","q","7","Phylogenetic","false","experimental"
"","null","html-keyboard-response","182","127767","0.0-11.0-2.30","KNIBpt1Fgk","59b1986ac05bb50001eb3a5f","6617fad957f7c6a12ea16e26","6622d009922a0fc246071b3b","
    <div id=""grid-container"">
        <!-- Grid items will be dynamically added here -->
    </div>    ","null","","","","","","","","","","","",""
"","null","html-keyboard-response","183","128471","0.0-11.0-0.31","KNIBpt1Fgk","59b1986ac05bb50001eb3a5f","6617fad957f7c6a12ea16e26","6622d009922a0fc246071b3b","fixation cross","null","","","","","","","","","","","",""
"","245","html-keyboard-response","184","128716","0.0-11.0-1.31","KNIBpt1Fgk","59b1986ac05bb50001eb3a5f","6617fad957f7c6a12ea16e26","6622d009922a0fc246071b3b","image grid","p","","","","","Phylogenetic_Distractor_Nonthreat_target","800","ongrid","p","1","Phylogenetic","true","experimental"
"","null","html-keyboard-response","185","128870","0.0-11.0-2.31","KNIBpt1Fgk","59b1986ac05bb50001eb3a5f","6617fad957f7c6a12ea16e26","6622d009922a0fc246071b3b","
    <div id=""grid-container"">
        <!-- Grid items will be dynamically added here -->
    </div>    ","null","","","","","","","","","","","",""
"","null","html-keyboard-response","186","129574","0.0-11.0-0.32","KNIBpt1Fgk","59b1986ac05bb50001eb3a5f","6617fad957f7c6a12ea16e26","6622d009922a0fc246071b3b","fixation cross","null","","","","","","","","","","","",""
"","178","html-keyboard-response","187","129752","0.0-11.0-1.32","KNIBpt1Fgk","59b1986ac05bb50001eb3a5f","6617fad957f7c6a12ea16e26","6622d009922a0fc246071b3b","image grid","q","","","","","Phylogenetic_Distractor_Threat_target","800","ongrid","q","9","Phylogenetic","true","experimental"
"","null","html-keyboard-response","188","129905","0.0-11.0-2.32","KNIBpt1Fgk","59b1986ac05bb50001eb3a5f","6617fad957f7c6a12ea16e26","6622d009922a0fc246071b3b","
    <div id=""grid-container"">
        <!-- Grid items will be dynamically added here -->
    </div>    ","null","","","","","","","","","","","",""
"","null","html-keyboard-response","189","130608","0.0-11.0-0.33","KNIBpt1Fgk","59b1986ac05bb50001eb3a5f","6617fad957f7c6a12ea16e26","6622d009922a0fc246071b3b","fixation cross","null","","","","","","","","","","","",""
"","269","html-keyboard-response","190","130878","0.0-11.0-1.33","KNIBpt1Fgk","59b1986ac05bb50001eb3a5f","6617fad957f7c6a12ea16e26","6622d009922a0fc246071b3b","image grid","q","","","","","Phylogenetic_Distractor_Nonthreat_target","800","ongrid","p","3","Phylogenetic","false","experimental"
"","null","html-keyboard-response","191","131031","0.0-11.0-2.33","KNIBpt1Fgk","59b1986ac05bb50001eb3a5f","6617fad957f7c6a12ea16e26","6622d009922a0fc246071b3b","
    <div id=""grid-container"">
        <!-- Grid items will be dynamically added here -->
    </div>    ","null","","","","","","","","","","","",""
"","null","html-keyboard-response","192","131735","0.0-11.0-0.34","KNIBpt1Fgk","59b1986ac05bb50001eb3a5f","6617fad957f7c6a12ea16e26","6622d009922a0fc246071b3b","fixation cross","null","","","","","","","","","","","",""
"","357","html-keyboard-response","193","132093","0.0-11.0-1.34","KNIBpt1Fgk","59b1986ac05bb50001eb3a5f","6617fad957f7c6a12ea16e26","6622d009922a0fc246071b3b","image grid","p","","","","","Phylogenetic_Distractor_Nonthreat_target","800","ongrid","p","4","Phylogenetic","true","experimental"
"","null","html-keyboard-response","194","132245","0.0-11.0-2.34","KNIBpt1Fgk","59b1986ac05bb50001eb3a5f","6617fad957f7c6a12ea16e26","6622d009922a0fc246071b3b","
    <div id=""grid-container"">
        <!-- Grid items will be dynamically added here -->
    </div>    ","null","","","","","","","","","","","",""
"","null","html-keyboard-response","195","132949","0.0-11.0-0.35","KNIBpt1Fgk","59b1986ac05bb50001eb3a5f","6617fad957f7c6a12ea16e26","6622d009922a0fc246071b3b","fixation cross","null","","","","","","","","","","","",""
"","334","html-keyboard-response","196","133284","0.0-11.0-1.35","KNIBpt1Fgk","59b1986ac05bb50001eb3a5f","6617fad957f7c6a12ea16e26","6622d009922a0fc246071b3b","image grid","p","","","","","Phylogenetic_Distractor_notarget","800","ongrid"," ","2","Phylogenetic","false","experimental"
"","null","html-keyboard-response","197","133437","0.0-11.0-2.35","KNIBpt1Fgk","59b1986ac05bb50001eb3a5f","6617fad957f7c6a12ea16e26","6622d009922a0fc246071b3b","
    <div id=""grid-container"">
        <!-- Grid items will be dynamically added here -->
    </div>    ","null","","","","","","","","","","","",""
"","null","html-keyboard-response","198","134141","0.0-11.0-0.36","KNIBpt1Fgk","59b1986ac05bb50001eb3a5f","6617fad957f7c6a12ea16e26","6622d009922a0fc246071b3b","fixation cross","null","","","","","","","","","","","",""
"","178","html-keyboard-response","199","134319","0.0-11.0-1.36","KNIBpt1Fgk","59b1986ac05bb50001eb3a5f","6617fad957f7c6a12ea16e26","6622d009922a0fc246071b3b","image grid","q","","","","","Phylogenetic_Distractor_notarget","800","ongrid"," ","1","Phylogenetic","false","experimental"
"","null","html-keyboard-response","200","134471","0.0-11.0-2.36","KNIBpt1Fgk","59b1986ac05bb50001eb3a5f","6617fad957f7c6a12ea16e26","6622d009922a0fc246071b3b","
    <div id=""grid-container"">
        <!-- Grid items will be dynamically added here -->
    </div>    ","null","","","","","","","","","","","",""
"","null","html-keyboard-response","201","135174","0.0-11.0-0.37","KNIBpt1Fgk","59b1986ac05bb50001eb3a5f","6617fad957f7c6a12ea16e26","6622d009922a0fc246071b3b","fixation cross","null","","","","","","","","","","","",""
"","199","html-keyboard-response","202","135374","0.0-11.0-1.37","KNIBpt1Fgk","59b1986ac05bb50001eb3a5f","6617fad957f7c6a12ea16e26","6622d009922a0fc246071b3b","image grid","p","","","","","Phylogenetic_Distractor_Nonthreat_target","800","ongrid","p","9","Phylogenetic","true","experimental"
"","null","html-keyboard-response","203","135526","0.0-11.0-2.37","KNIBpt1Fgk","59b1986ac05bb50001eb3a5f","6617fad957f7c6a12ea16e26","6622d009922a0fc246071b3b","
    <div id=""grid-container"">
        <!-- Grid items will be dynamically added here -->
    </div>    ","null","","","","","","","","","","","",""
"","null","html-keyboard-response","204","136230","0.0-11.0-0.38","KNIBpt1Fgk","59b1986ac05bb50001eb3a5f","6617fad957f7c6a12ea16e26","6622d009922a0fc246071b3b","fixation cross","null","","","","","","","","","","","",""
"","251","html-keyboard-response","205","136482","0.0-11.0-1.38","KNIBpt1Fgk","59b1986ac05bb50001eb3a5f","6617fad957f7c6a12ea16e26","6622d009922a0fc246071b3b","image grid","p","","","","","Phylogenetic_Distractor_Threat_target","800","ongrid","q","5","Phylogenetic","false","experimental"
"","null","html-keyboard-response","206","136635","0.0-11.0-2.38","KNIBpt1Fgk","59b1986ac05bb50001eb3a5f","6617fad957f7c6a12ea16e26","6622d009922a0fc246071b3b","
    <div id=""grid-container"">
        <!-- Grid items will be dynamically added here -->
    </div>    ","null","","","","","","","","","","","",""
"","null","html-keyboard-response","207","137339","0.0-11.0-0.39","KNIBpt1Fgk","59b1986ac05bb50001eb3a5f","6617fad957f7c6a12ea16e26","6622d009922a0fc246071b3b","fixation cross","null","","","","","","","","","","","",""
"","174","html-keyboard-response","208","137514","0.0-11.0-1.39","KNIBpt1Fgk","59b1986ac05bb50001eb3a5f","6617fad957f7c6a12ea16e26","6622d009922a0fc246071b3b","image grid","q","","","","","Phylogenetic_Distractor_Nonthreat_target","800","ongrid","p","8","Phylogenetic","false","experimental"
"","null","html-keyboard-response","209","137667","0.0-11.0-2.39","KNIBpt1Fgk","59b1986ac05bb50001eb3a5f","6617fad957f7c6a12ea16e26","6622d009922a0fc246071b3b","
    <div id=""grid-container"">
        <!-- Grid items will be dynamically added here -->
    </div>    ","null","","","","","","","","","","","",""
"","1493","html-keyboard-response","210","139406","0.0-12.0","KNIBpt1Fgk","59b1986ac05bb50001eb3a5f","6617fad957f7c6a12ea16e26","6622d009922a0fc246071b3b","break screen"," ","","","","","","","","","","","",""
"","null","html-keyboard-response","211","141910","0.0-13.0-0.0","KNIBpt1Fgk","59b1986ac05bb50001eb3a5f","6617fad957f7c6a12ea16e26","6622d009922a0fc246071b3b","fixation cross","null","","","","","","","","","","","",""
"","237","html-keyboard-response","212","142148","0.0-13.0-1.0","KNIBpt1Fgk","59b1986ac05bb50001eb3a5f","6617fad957f7c6a12ea16e26","6622d009922a0fc246071b3b","image grid","p","","","","","Ontogenetic_Distractor_Threat_target","2500","ongrid","q","9","Ontogenetic","false","experimental"
"","null","html-keyboard-response","213","142301","0.0-13.0-2.0","KNIBpt1Fgk","59b1986ac05bb50001eb3a5f","6617fad957f7c6a12ea16e26","6622d009922a0fc246071b3b","
    <div id=""grid-container"">
        <!-- Grid items will be dynamically added here -->
    </div>    ","null","","","","","","","","","","","",""
"","null","html-keyboard-response","214","143005","0.0-13.0-0.1","KNIBpt1Fgk","59b1986ac05bb50001eb3a5f","6617fad957f7c6a12ea16e26","6622d009922a0fc246071b3b","fixation cross","null","","","","","","","","","","","",""
"","403","html-keyboard-response","215","143409","0.0-13.0-1.1","KNIBpt1Fgk","59b1986ac05bb50001eb3a5f","6617fad957f7c6a12ea16e26","6622d009922a0fc246071b3b","image grid","q","","","","","Ontogenetic_Distractor_Nonthreat_target","2500","ongrid","p","3","Ontogenetic","false","experimental"
"","null","html-keyboard-response","216","143562","0.0-13.0-2.1","KNIBpt1Fgk","59b1986ac05bb50001eb3a5f","6617fad957f7c6a12ea16e26","6622d009922a0fc246071b3b","
    <div id=""grid-container"">
        <!-- Grid items will be dynamically added here -->
    </div>    ","null","","","","","","","","","","","",""
"","null","html-keyboard-response","217","144267","0.0-13.0-0.2","KNIBpt1Fgk","59b1986ac05bb50001eb3a5f","6617fad957f7c6a12ea16e26","6622d009922a0fc246071b3b","fixation cross","null","","","","","","","","","","","",""
"","85","html-keyboard-response","218","144353","0.0-13.0-1.2","KNIBpt1Fgk","59b1986ac05bb50001eb3a5f","6617fad957f7c6a12ea16e26","6622d009922a0fc246071b3b","image grid","q","","","","","Ontogenetic_Distractor_Threat_target","2500","ongrid","q","3","Ontogenetic","true","experimental"
"","null","html-keyboard-response","219","144506","0.0-13.0-2.2","KNIBpt1Fgk","59b1986ac05bb50001eb3a5f","6617fad957f7c6a12ea16e26","6622d009922a0fc246071b3b","
    <div id=""grid-container"">
        <!-- Grid items will be dynamically added here -->
    </div>    ","null","","","","","","","","","","","",""
"","null","html-keyboard-response","220","145210","0.0-13.0-0.3","KNIBpt1Fgk","59b1986ac05bb50001eb3a5f","6617fad957f7c6a12ea16e26","6622d009922a0fc246071b3b","fixation cross","null","","","","","","","","","","","",""
"","201","html-keyboard-response","221","145411","0.0-13.0-1.3","KNIBpt1Fgk","59b1986ac05bb50001eb3a5f","6617fad957f7c6a12ea16e26","6622d009922a0fc246071b3b","image grid","p","","","","","Ontogenetic_Distractor_Nonthreat_target","2500","ongrid","p","9","Ontogenetic","true","experimental"
"","null","html-keyboard-response","222","145564","0.0-13.0-2.3","KNIBpt1Fgk","59b1986ac05bb50001eb3a5f","6617fad957f7c6a12ea16e26","6622d009922a0fc246071b3b","
    <div id=""grid-container"">
        <!-- Grid items will be dynamically added here -->
    </div>    ","null","","","","","","","","","","","",""
"","null","html-keyboard-response","223","146269","0.0-13.0-0.4","KNIBpt1Fgk","59b1986ac05bb50001eb3a5f","6617fad957f7c6a12ea16e26","6622d009922a0fc246071b3b","fixation cross","null","","","","","","","","","","","",""
"","109","html-keyboard-response","224","146379","0.0-13.0-1.4","KNIBpt1Fgk","59b1986ac05bb50001eb3a5f","6617fad957f7c6a12ea16e26","6622d009922a0fc246071b3b","image grid","p","","","","","Ontogenetic_Distractor_Threat_target","2500","ongrid","q","7","Ontogenetic","false","experimental"
"","null","html-keyboard-response","225","146531","0.0-13.0-2.4","KNIBpt1Fgk","59b1986ac05bb50001eb3a5f","6617fad957f7c6a12ea16e26","6622d009922a0fc246071b3b","
    <div id=""grid-container"">
        <!-- Grid items will be dynamically added here -->
    </div>    ","null","","","","","","","","","","","",""
"","null","html-keyboard-response","226","147235","0.0-13.0-0.5","KNIBpt1Fgk","59b1986ac05bb50001eb3a5f","6617fad957f7c6a12ea16e26","6622d009922a0fc246071b3b","fixation cross","null","","","","","","","","","","","",""
"","203","html-keyboard-response","227","147439","0.0-13.0-1.5","KNIBpt1Fgk","59b1986ac05bb50001eb3a5f","6617fad957f7c6a12ea16e26","6622d009922a0fc246071b3b","image grid","q","","","","","Ontogenetic_Distractor_Threat_target","2500","ongrid","q","4","Ontogenetic","true","experimental"
"","null","html-keyboard-response","228","147592","0.0-13.0-2.5","KNIBpt1Fgk","59b1986ac05bb50001eb3a5f","6617fad957f7c6a12ea16e26","6622d009922a0fc246071b3b","
    <div id=""grid-container"">
        <!-- Grid items will be dynamically added here -->
    </div>    ","null","","","","","","","","","","","",""
"","null","html-keyboard-response","229","148295","0.0-13.0-0.6","KNIBpt1Fgk","59b1986ac05bb50001eb3a5f","6617fad957f7c6a12ea16e26","6622d009922a0fc246071b3b","fixation cross","null","","","","","","","","","","","",""
"","108","html-keyboard-response","230","148404","0.0-13.0-1.6","KNIBpt1Fgk","59b1986ac05bb50001eb3a5f","6617fad957f7c6a12ea16e26","6622d009922a0fc246071b3b","image grid","p","","","","","Ontogenetic_Distractor_Threat_target","2500","ongrid","q","3","Ontogenetic","false","experimental"
"","null","html-keyboard-response","231","148557","0.0-13.0-2.6","KNIBpt1Fgk","59b1986ac05bb50001eb3a5f","6617fad957f7c6a12ea16e26","6622d009922a0fc246071b3b","
    <div id=""grid-container"">
        <!-- Grid items will be dynamically added here -->
    </div>    ","null","","","","","","","","","","","",""
"","null","html-keyboard-response","232","149261","0.0-13.0-0.7","KNIBpt1Fgk","59b1986ac05bb50001eb3a5f","6617fad957f7c6a12ea16e26","6622d009922a0fc246071b3b","fixation cross","null","","","","","","","","","","","",""
"","98","html-keyboard-response","233","149360","0.0-13.0-1.7","KNIBpt1Fgk","59b1986ac05bb50001eb3a5f","6617fad957f7c6a12ea16e26","6622d009922a0fc246071b3b","image grid","p","","","","","Ontogenetic_Distractor_Threat_target","2500","ongrid","q","8","Ontogenetic","false","experimental"
"","null","html-keyboard-response","234","149512","0.0-13.0-2.7","KNIBpt1Fgk","59b1986ac05bb50001eb3a5f","6617fad957f7c6a12ea16e26","6622d009922a0fc246071b3b","
    <div id=""grid-container"">
        <!-- Grid items will be dynamically added here -->
    </div>    ","null","","","","","","","","","","","",""
"","null","html-keyboard-response","235","150217","0.0-13.0-0.8","KNIBpt1Fgk","59b1986ac05bb50001eb3a5f","6617fad957f7c6a12ea16e26","6622d009922a0fc246071b3b","fixation cross","null","","","","","","","","","","","",""
"","121","html-keyboard-response","236","150338","0.0-13.0-1.8","KNIBpt1Fgk","59b1986ac05bb50001eb3a5f","6617fad957f7c6a12ea16e26","6622d009922a0fc246071b3b","image grid","q","","","","","Ontogenetic_Distractor_Nonthreat_target","2500","ongrid","p","3","Ontogenetic","false","experimental"
"","null","html-keyboard-response","237","150491","0.0-13.0-2.8","KNIBpt1Fgk","59b1986ac05bb50001eb3a5f","6617fad957f7c6a12ea16e26","6622d009922a0fc246071b3b","
    <div id=""grid-container"">
        <!-- Grid items will be dynamically added here -->
    </div>    ","null","","","","","","","","","","","",""
"","null","html-keyboard-response","238","151196","0.0-13.0-0.9","KNIBpt1Fgk","59b1986ac05bb50001eb3a5f","6617fad957f7c6a12ea16e26","6622d009922a0fc246071b3b","fixation cross","null","","","","","","","","","","","",""
"","111","html-keyboard-response","239","151307","0.0-13.0-1.9","KNIBpt1Fgk","59b1986ac05bb50001eb3a5f","6617fad957f7c6a12ea16e26","6622d009922a0fc246071b3b","image grid","q","","","","","Ontogenetic_Distractor_Nonthreat_target","2500","ongrid","p","7","Ontogenetic","false","experimental"
"","null","html-keyboard-response","240","151460","0.0-13.0-2.9","KNIBpt1Fgk","59b1986ac05bb50001eb3a5f","6617fad957f7c6a12ea16e26","6622d009922a0fc246071b3b","
    <div id=""grid-container"">
        <!-- Grid items will be dynamically added here -->
    </div>    ","null","","","","","","","","","","","",""
"","null","html-keyboard-response","241","152164","0.0-13.0-0.10","KNIBpt1Fgk","59b1986ac05bb50001eb3a5f","6617fad957f7c6a12ea16e26","6622d009922a0fc246071b3b","fixation cross","null","","","","","","","","","","","",""
"","38","html-keyboard-response","242","152203","0.0-13.0-1.10","KNIBpt1Fgk","59b1986ac05bb50001eb3a5f","6617fad957f7c6a12ea16e26","6622d009922a0fc246071b3b","image grid","p","","","","","Ontogenetic_Distractor_Nonthreat_target","2500","ongrid","p","6","Ontogenetic","true","experimental"
"","null","html-keyboard-response","243","152355","0.0-13.0-2.10","KNIBpt1Fgk","59b1986ac05bb50001eb3a5f","6617fad957f7c6a12ea16e26","6622d009922a0fc246071b3b","
    <div id=""grid-container"">
        <!-- Grid items will be dynamically added here -->
    </div>    ","null","","","","","","","","","","","",""
"","null","html-keyboard-response","244","153060","0.0-13.0-0.11","KNIBpt1Fgk","59b1986ac05bb50001eb3a5f","6617fad957f7c6a12ea16e26","6622d009922a0fc246071b3b","fixation cross","null","","","","","","","","","","","",""
"","69","html-keyboard-response","245","153130","0.0-13.0-1.11","KNIBpt1Fgk","59b1986ac05bb50001eb3a5f","6617fad957f7c6a12ea16e26","6622d009922a0fc246071b3b","image grid","p","","","","","Ontogenetic_Distractor_Nonthreat_target","2500","ongrid","p","9","Ontogenetic","true","experimental"
"","null","html-keyboard-response","246","153282","0.0-13.0-2.11","KNIBpt1Fgk","59b1986ac05bb50001eb3a5f","6617fad957f7c6a12ea16e26","6622d009922a0fc246071b3b","
    <div id=""grid-container"">
        <!-- Grid items will be dynamically added here -->
    </div>    ","null","","","","","","","","","","","",""
"","null","html-keyboard-response","247","153987","0.0-13.0-0.12","KNIBpt1Fgk","59b1986ac05bb50001eb3a5f","6617fad957f7c6a12ea16e26","6622d009922a0fc246071b3b","fixation cross","null","","","","","","","","","","","",""
"","155","html-keyboard-response","248","154143","0.0-13.0-1.12","KNIBpt1Fgk","59b1986ac05bb50001eb3a5f","6617fad957f7c6a12ea16e26","6622d009922a0fc246071b3b","image grid","q","","","","","Ontogenetic_Distractor_Nonthreat_target","2500","ongrid","p","5","Ontogenetic","false","experimental"
"","null","html-keyboard-response","249","154297","0.0-13.0-2.12","KNIBpt1Fgk","59b1986ac05bb50001eb3a5f","6617fad957f7c6a12ea16e26","6622d009922a0fc246071b3b","
    <div id=""grid-container"">
        <!-- Grid items will be dynamically added here -->
    </div>    ","null","","","","","","","","","","","",""
"","null","html-keyboard-response","250","155000","0.0-13.0-0.13","KNIBpt1Fgk","59b1986ac05bb50001eb3a5f","6617fad957f7c6a12ea16e26","6622d009922a0fc246071b3b","fixation cross","null","","","","","","","","","","","",""
"","86","html-keyboard-response","251","155087","0.0-13.0-1.13","KNIBpt1Fgk","59b1986ac05bb50001eb3a5f","6617fad957f7c6a12ea16e26","6622d009922a0fc246071b3b","image grid","q","","","","","Ontogenetic_Distractor_Nonthreat_target","2500","ongrid","p","9","Ontogenetic","false","experimental"
"","null","html-keyboard-response","252","155239","0.0-13.0-2.13","KNIBpt1Fgk","59b1986ac05bb50001eb3a5f","6617fad957f7c6a12ea16e26","6622d009922a0fc246071b3b","
    <div id=""grid-container"">
        <!-- Grid items will be dynamically added here -->
    </div>    ","null","","","","","","","","","","","",""
"","null","html-keyboard-response","253","155943","0.0-13.0-0.14","KNIBpt1Fgk","59b1986ac05bb50001eb3a5f","6617fad957f7c6a12ea16e26","6622d009922a0fc246071b3b","fixation cross","null","","","","","","","","","","","",""
"","63","html-keyboard-response","254","156007","0.0-13.0-1.14","KNIBpt1Fgk","59b1986ac05bb50001eb3a5f","6617fad957f7c6a12ea16e26","6622d009922a0fc246071b3b","image grid","q","","","","","Ontogenetic_Distractor_Threat_target","2500","ongrid","q","7","Ontogenetic","true","experimental"
"","null","html-keyboard-response","255","156160","0.0-13.0-2.14","KNIBpt1Fgk","59b1986ac05bb50001eb3a5f","6617fad957f7c6a12ea16e26","6622d009922a0fc246071b3b","
    <div id=""grid-container"">
        <!-- Grid items will be dynamically added here -->
    </div>    ","null","","","","","","","","","","","",""
"","null","html-keyboard-response","256","156865","0.0-13.0-0.15","KNIBpt1Fgk","59b1986ac05bb50001eb3a5f","6617fad957f7c6a12ea16e26","6622d009922a0fc246071b3b","fixation cross","null","","","","","","","","","","","",""
"","111","html-keyboard-response","257","156977","0.0-13.0-1.15","KNIBpt1Fgk","59b1986ac05bb50001eb3a5f","6617fad957f7c6a12ea16e26","6622d009922a0fc246071b3b","image grid","q","","","","","Ontogenetic_Distractor_Threat_target","2500","ongrid","q","5","Ontogenetic","true","experimental"
"","null","html-keyboard-response","258","157130","0.0-13.0-2.15","KNIBpt1Fgk","59b1986ac05bb50001eb3a5f","6617fad957f7c6a12ea16e26","6622d009922a0fc246071b3b","
    <div id=""grid-container"">
        <!-- Grid items will be dynamically added here -->
    </div>    ","null","","","","","","","","","","","",""
"","null","html-keyboard-response","259","157833","0.0-13.0-0.16","KNIBpt1Fgk","59b1986ac05bb50001eb3a5f","6617fad957f7c6a12ea16e26","6622d009922a0fc246071b3b","fixation cross","null","","","","","","","","","","","",""
"","113","html-keyboard-response","260","157947","0.0-13.0-1.16","KNIBpt1Fgk","59b1986ac05bb50001eb3a5f","6617fad957f7c6a12ea16e26","6622d009922a0fc246071b3b","image grid","p","","","","","Ontogenetic_Distractor_Threat_target","2500","ongrid","q","8","Ontogenetic","false","experimental"
"","null","html-keyboard-response","261","158100","0.0-13.0-2.16","KNIBpt1Fgk","59b1986ac05bb50001eb3a5f","6617fad957f7c6a12ea16e26","6622d009922a0fc246071b3b","
    <div id=""grid-container"">
        <!-- Grid items will be dynamically added here -->
    </div>    ","null","","","","","","","","","","","",""
"","null","html-keyboard-response","262","158804","0.0-13.0-0.17","KNIBpt1Fgk","59b1986ac05bb50001eb3a5f","6617fad957f7c6a12ea16e26","6622d009922a0fc246071b3b","fixation cross","null","","","","","","","","","","","",""
"","174","html-keyboard-response","263","158979","0.0-13.0-1.17","KNIBpt1Fgk","59b1986ac05bb50001eb3a5f","6617fad957f7c6a12ea16e26","6622d009922a0fc246071b3b","image grid","p","","","","","Ontogenetic_Distractor_Nonthreat_target","2500","ongrid","p","2","Ontogenetic","true","experimental"
"","null","html-keyboard-response","264","159131","0.0-13.0-2.17","KNIBpt1Fgk","59b1986ac05bb50001eb3a5f","6617fad957f7c6a12ea16e26","6622d009922a0fc246071b3b","
    <div id=""grid-container"">
        <!-- Grid items will be dynamically added here -->
    </div>    ","null","","","","","","","","","","","",""
"","null","html-keyboard-response","265","159834","0.0-13.0-0.18","KNIBpt1Fgk","59b1986ac05bb50001eb3a5f","6617fad957f7c6a12ea16e26","6622d009922a0fc246071b3b","fixation cross","null","","","","","","","","","","","",""
"","156","html-keyboard-response","266","159991","0.0-13.0-1.18","KNIBpt1Fgk","59b1986ac05bb50001eb3a5f","6617fad957f7c6a12ea16e26","6622d009922a0fc246071b3b","image grid","p","","","","","Ontogenetic_Distractor_Threat_target","2500","ongrid","q","4","Ontogenetic","false","experimental"
"","null","html-keyboard-response","267","160144","0.0-13.0-2.18","KNIBpt1Fgk","59b1986ac05bb50001eb3a5f","6617fad957f7c6a12ea16e26","6622d009922a0fc246071b3b","
    <div id=""grid-container"">
        <!-- Grid items will be dynamically added here -->
    </div>    ","null","","","","","","","","","","","",""
"","null","html-keyboard-response","268","160847","0.0-13.0-0.19","KNIBpt1Fgk","59b1986ac05bb50001eb3a5f","6617fad957f7c6a12ea16e26","6622d009922a0fc246071b3b","fixation cross","null","","","","","","","","","","","",""
"","132","html-keyboard-response","269","160980","0.0-13.0-1.19","KNIBpt1Fgk","59b1986ac05bb50001eb3a5f","6617fad957f7c6a12ea16e26","6622d009922a0fc246071b3b","image grid","p","","","","","Ontogenetic_Distractor_Nonthreat_target","2500","ongrid","p","8","Ontogenetic","true","experimental"
"","null","html-keyboard-response","270","161132","0.0-13.0-2.19","KNIBpt1Fgk","59b1986ac05bb50001eb3a5f","6617fad957f7c6a12ea16e26","6622d009922a0fc246071b3b","
    <div id=""grid-container"">
        <!-- Grid items will be dynamically added here -->
    </div>    ","null","","","","","","","","","","","",""
"","null","html-keyboard-response","271","161836","0.0-13.0-0.20","KNIBpt1Fgk","59b1986ac05bb50001eb3a5f","6617fad957f7c6a12ea16e26","6622d009922a0fc246071b3b","fixation cross","null","","","","","","","","","","","",""
"","135","html-keyboard-response","272","161972","0.0-13.0-1.20","KNIBpt1Fgk","59b1986ac05bb50001eb3a5f","6617fad957f7c6a12ea16e26","6622d009922a0fc246071b3b","image grid","q","","","","","Ontogenetic_Distractor_Threat_target","2500","ongrid","q","7","Ontogenetic","true","experimental"
"","null","html-keyboard-response","273","162124","0.0-13.0-2.20","KNIBpt1Fgk","59b1986ac05bb50001eb3a5f","6617fad957f7c6a12ea16e26","6622d009922a0fc246071b3b","
    <div id=""grid-container"">
        <!-- Grid items will be dynamically added here -->
    </div>    ","null","","","","","","","","","","","",""
"","null","html-keyboard-response","274","162828","0.0-13.0-0.21","KNIBpt1Fgk","59b1986ac05bb50001eb3a5f","6617fad957f7c6a12ea16e26","6622d009922a0fc246071b3b","fixation cross","null","","","","","","","","","","","",""
"","89","html-keyboard-response","275","162918","0.0-13.0-1.21","KNIBpt1Fgk","59b1986ac05bb50001eb3a5f","6617fad957f7c6a12ea16e26","6622d009922a0fc246071b3b","image grid","q","","","","","Ontogenetic_Distractor_Nonthreat_target","2500","ongrid","p","1","Ontogenetic","false","experimental"
"","null","html-keyboard-response","276","163072","0.0-13.0-2.21","KNIBpt1Fgk","59b1986ac05bb50001eb3a5f","6617fad957f7c6a12ea16e26","6622d009922a0fc246071b3b","
    <div id=""grid-container"">
        <!-- Grid items will be dynamically added here -->
    </div>    ","null","","","","","","","","","","","",""
"","null","html-keyboard-response","277","163775","0.0-13.0-0.22","KNIBpt1Fgk","59b1986ac05bb50001eb3a5f","6617fad957f7c6a12ea16e26","6622d009922a0fc246071b3b","fixation cross","null","","","","","","","","","","","",""
"","155","html-keyboard-response","278","163931","0.0-13.0-1.22","KNIBpt1Fgk","59b1986ac05bb50001eb3a5f","6617fad957f7c6a12ea16e26","6622d009922a0fc246071b3b","image grid","q","","","","","Ontogenetic_Distractor_Nonthreat_target","2500","ongrid","p","8","Ontogenetic","false","experimental"
"","null","html-keyboard-response","279","164084","0.0-13.0-2.22","KNIBpt1Fgk","59b1986ac05bb50001eb3a5f","6617fad957f7c6a12ea16e26","6622d009922a0fc246071b3b","
    <div id=""grid-container"">
        <!-- Grid items will be dynamically added here -->
    </div>    ","null","","","","","","","","","","","",""
"","null","html-keyboard-response","280","164788","0.0-13.0-0.23","KNIBpt1Fgk","59b1986ac05bb50001eb3a5f","6617fad957f7c6a12ea16e26","6622d009922a0fc246071b3b","fixation cross","null","","","","","","","","","","","",""
"","108","html-keyboard-response","281","164897","0.0-13.0-1.23","KNIBpt1Fgk","59b1986ac05bb50001eb3a5f","6617fad957f7c6a12ea16e26","6622d009922a0fc246071b3b","image grid","p","","","","","Ontogenetic_Distractor_Nonthreat_target","2500","ongrid","p","8","Ontogenetic","true","experimental"
"","null","html-keyboard-response","282","165050","0.0-13.0-2.23","KNIBpt1Fgk","59b1986ac05bb50001eb3a5f","6617fad957f7c6a12ea16e26","6622d009922a0fc246071b3b","
    <div id=""grid-container"">
        <!-- Grid items will be dynamically added here -->
    </div>    ","null","","","","","","","","","","","",""
"","null","html-keyboard-response","283","165754","0.0-13.0-0.24","KNIBpt1Fgk","59b1986ac05bb50001eb3a5f","6617fad957f7c6a12ea16e26","6622d009922a0fc246071b3b","fixation cross","null","","","","","","","","","","","",""
"","156","html-keyboard-response","284","165910","0.0-13.0-1.24","KNIBpt1Fgk","59b1986ac05bb50001eb3a5f","6617fad957f7c6a12ea16e26","6622d009922a0fc246071b3b","image grid","p","","","","","Ontogenetic_Distractor_Nonthreat_target","2500","ongrid","p","3","Ontogenetic","true","experimental"
"","null","html-keyboard-response","285","166065","0.0-13.0-2.24","KNIBpt1Fgk","59b1986ac05bb50001eb3a5f","6617fad957f7c6a12ea16e26","6622d009922a0fc246071b3b","
    <div id=""grid-container"">
        <!-- Grid items will be dynamically added here -->
    </div>    ","null","","","","","","","","","","","",""
"","null","html-keyboard-response","286","166769","0.0-13.0-0.25","KNIBpt1Fgk","59b1986ac05bb50001eb3a5f","6617fad957f7c6a12ea16e26","6622d009922a0fc246071b3b","fixation cross","null","","","","","","","","","","","",""
"","107","html-keyboard-response","287","166876","0.0-13.0-1.25","KNIBpt1Fgk","59b1986ac05bb50001eb3a5f","6617fad957f7c6a12ea16e26","6622d009922a0fc246071b3b","image grid","q","","","","","Ontogenetic_Distractor_Threat_target","2500","ongrid","q","6","Ontogenetic","true","experimental"
"","null","html-keyboard-response","288","167030","0.0-13.0-2.25","KNIBpt1Fgk","59b1986ac05bb50001eb3a5f","6617fad957f7c6a12ea16e26","6622d009922a0fc246071b3b","
    <div id=""grid-container"">
        <!-- Grid items will be dynamically added here -->
    </div>    ","null","","","","","","","","","","","",""
"","null","html-keyboard-response","289","167734","0.0-13.0-0.26","KNIBpt1Fgk","59b1986ac05bb50001eb3a5f","6617fad957f7c6a12ea16e26","6622d009922a0fc246071b3b","fixation cross","null","","","","","","","","","","","",""
"","110","html-keyboard-response","290","167845","0.0-13.0-1.26","KNIBpt1Fgk","59b1986ac05bb50001eb3a5f","6617fad957f7c6a12ea16e26","6622d009922a0fc246071b3b","image grid","q","","","","","Ontogenetic_Distractor_Nonthreat_target","2500","ongrid","p","2","Ontogenetic","false","experimental"
"","null","html-keyboard-response","291","167998","0.0-13.0-2.26","KNIBpt1Fgk","59b1986ac05bb50001eb3a5f","6617fad957f7c6a12ea16e26","6622d009922a0fc246071b3b","
    <div id=""grid-container"">
        <!-- Grid items will be dynamically added here -->
    </div>    ","null","","","","","","","","","","","",""
"","null","html-keyboard-response","292","168702","0.0-13.0-0.27","KNIBpt1Fgk","59b1986ac05bb50001eb3a5f","6617fad957f7c6a12ea16e26","6622d009922a0fc246071b3b","fixation cross","null","","","","","","","","","","","",""
"","89","html-keyboard-response","293","168792","0.0-13.0-1.27","KNIBpt1Fgk","59b1986ac05bb50001eb3a5f","6617fad957f7c6a12ea16e26","6622d009922a0fc246071b3b","image grid","p","","","","","Ontogenetic_Distractor_Threat_target","2500","ongrid","q","6","Ontogenetic","false","experimental"
"","null","html-keyboard-response","294","168945","0.0-13.0-2.27","KNIBpt1Fgk","59b1986ac05bb50001eb3a5f","6617fad957f7c6a12ea16e26","6622d009922a0fc246071b3b","
    <div id=""grid-container"">
        <!-- Grid items will be dynamically added here -->
    </div>    ","null","","","","","","","","","","","",""
"","null","html-keyboard-response","295","169648","0.0-13.0-0.28","KNIBpt1Fgk","59b1986ac05bb50001eb3a5f","6617fad957f7c6a12ea16e26","6622d009922a0fc246071b3b","fixation cross","null","","","","","","","","","","","",""
"","107","html-keyboard-response","296","169756","0.0-13.0-1.28","KNIBpt1Fgk","59b1986ac05bb50001eb3a5f","6617fad957f7c6a12ea16e26","6622d009922a0fc246071b3b","image grid","q","","","","","Ontogenetic_Distractor_Nonthreat_target","2500","ongrid","p","5","Ontogenetic","false","experimental"
"","null","html-keyboard-response","297","169909","0.0-13.0-2.28","KNIBpt1Fgk","59b1986ac05bb50001eb3a5f","6617fad957f7c6a12ea16e26","6622d009922a0fc246071b3b","
    <div id=""grid-container"">
        <!-- Grid items will be dynamically added here -->
    </div>    ","null","","","","","","","","","","","",""
"","null","html-keyboard-response","298","170613","0.0-13.0-0.29","KNIBpt1Fgk","59b1986ac05bb50001eb3a5f","6617fad957f7c6a12ea16e26","6622d009922a0fc246071b3b","fixation cross","null","","","","","","","","","","","",""
"","64","html-keyboard-response","299","170678","0.0-13.0-1.29","KNIBpt1Fgk","59b1986ac05bb50001eb3a5f","6617fad957f7c6a12ea16e26","6622d009922a0fc246071b3b","image grid","q","","","","","Ontogenetic_Distractor_Threat_target","2500","ongrid","q","2","Ontogenetic","true","experimental"
"","null","html-keyboard-response","300","170830","0.0-13.0-2.29","KNIBpt1Fgk","59b1986ac05bb50001eb3a5f","6617fad957f7c6a12ea16e26","6622d009922a0fc246071b3b","
    <div id=""grid-container"">
        <!-- Grid items will be dynamically added here -->
    </div>    ","null","","","","","","","","","","","",""
"","null","html-keyboard-response","301","171534","0.0-13.0-0.30","KNIBpt1Fgk","59b1986ac05bb50001eb3a5f","6617fad957f7c6a12ea16e26","6622d009922a0fc246071b3b","fixation cross","null","","","","","","","","","","","",""
"","90","html-keyboard-response","302","171625","0.0-13.0-1.30","KNIBpt1Fgk","59b1986ac05bb50001eb3a5f","6617fad957f7c6a12ea16e26","6622d009922a0fc246071b3b","image grid","q","","","","","Ontogenetic_Distractor_notarget","2500","ongrid"," ","9","Ontogenetic","false","experimental"
"","null","html-keyboard-response","303","171778","0.0-13.0-2.30","KNIBpt1Fgk","59b1986ac05bb50001eb3a5f","6617fad957f7c6a12ea16e26","6622d009922a0fc246071b3b","
    <div id=""grid-container"">
        <!-- Grid items will be dynamically added here -->
    </div>    ","null","","","","","","","","","","","",""
"","null","html-keyboard-response","304","172481","0.0-13.0-0.31","KNIBpt1Fgk","59b1986ac05bb50001eb3a5f","6617fad957f7c6a12ea16e26","6622d009922a0fc246071b3b","fixation cross","null","","","","","","","","","","","",""
"","178","html-keyboard-response","305","172659","0.0-13.0-1.31","KNIBpt1Fgk","59b1986ac05bb50001eb3a5f","6617fad957f7c6a12ea16e26","6622d009922a0fc246071b3b","image grid","q","","","","","Ontogenetic_Distractor_Threat_target","2500","ongrid","q","7","Ontogenetic","true","experimental"
"","null","html-keyboard-response","306","172812","0.0-13.0-2.31","KNIBpt1Fgk","59b1986ac05bb50001eb3a5f","6617fad957f7c6a12ea16e26","6622d009922a0fc246071b3b","
    <div id=""grid-container"">
        <!-- Grid items will be dynamically added here -->
    </div>    ","null","","","","","","","","","","","",""
"","null","html-keyboard-response","307","173516","0.0-13.0-0.32","KNIBpt1Fgk","59b1986ac05bb50001eb3a5f","6617fad957f7c6a12ea16e26","6622d009922a0fc246071b3b","fixation cross","null","","","","","","","","","","","",""
"","152","html-keyboard-response","308","173668","0.0-13.0-1.32","KNIBpt1Fgk","59b1986ac05bb50001eb3a5f","6617fad957f7c6a12ea16e26","6622d009922a0fc246071b3b","image grid","p","","","","","Ontogenetic_Distractor_Nonthreat_target","2500","ongrid","p","5","Ontogenetic","true","experimental"
"","null","html-keyboard-response","309","173820","0.0-13.0-2.32","KNIBpt1Fgk","59b1986ac05bb50001eb3a5f","6617fad957f7c6a12ea16e26","6622d009922a0fc246071b3b","
    <div id=""grid-container"">
        <!-- Grid items will be dynamically added here -->
    </div>    ","null","","","","","","","","","","","",""
"","null","html-keyboard-response","310","174523","0.0-13.0-0.33","KNIBpt1Fgk","59b1986ac05bb50001eb3a5f","6617fad957f7c6a12ea16e26","6622d009922a0fc246071b3b","fixation cross","null","","","","","","","","","","","",""
"","184","html-keyboard-response","311","174707","0.0-13.0-1.33","KNIBpt1Fgk","59b1986ac05bb50001eb3a5f","6617fad957f7c6a12ea16e26","6622d009922a0fc246071b3b","image grid","p","","","","","Ontogenetic_Distractor_notarget","2500","ongrid"," ","7","Ontogenetic","false","experimental"
"","null","html-keyboard-response","312","174861","0.0-13.0-2.33","KNIBpt1Fgk","59b1986ac05bb50001eb3a5f","6617fad957f7c6a12ea16e26","6622d009922a0fc246071b3b","
    <div id=""grid-container"">
        <!-- Grid items will be dynamically added here -->
    </div>    ","null","","","","","","","","","","","",""
"","null","html-keyboard-response","313","175565","0.0-13.0-0.34","KNIBpt1Fgk","59b1986ac05bb50001eb3a5f","6617fad957f7c6a12ea16e26","6622d009922a0fc246071b3b","fixation cross","null","","","","","","","","","","","",""
"","131","html-keyboard-response","314","175696","0.0-13.0-1.34","KNIBpt1Fgk","59b1986ac05bb50001eb3a5f","6617fad957f7c6a12ea16e26","6622d009922a0fc246071b3b","image grid","p","","","","","Ontogenetic_Distractor_Threat_target","2500","ongrid","q","6","Ontogenetic","false","experimental"
"","null","html-keyboard-response","315","175850","0.0-13.0-2.34","KNIBpt1Fgk","59b1986ac05bb50001eb3a5f","6617fad957f7c6a12ea16e26","6622d009922a0fc246071b3b","
    <div id=""grid-container"">
        <!-- Grid items will be dynamically added here -->
    </div>    ","null","","","","","","","","","","","",""
"","null","html-keyboard-response","316","176554","0.0-13.0-0.35","KNIBpt1Fgk","59b1986ac05bb50001eb3a5f","6617fad957f7c6a12ea16e26","6622d009922a0fc246071b3b","fixation cross","null","","","","","","","","","","","",""
"","154","html-keyboard-response","317","176709","0.0-13.0-1.35","KNIBpt1Fgk","59b1986ac05bb50001eb3a5f","6617fad957f7c6a12ea16e26","6622d009922a0fc246071b3b","image grid","q","","","","","Ontogenetic_Distractor_notarget","2500","ongrid"," ","3","Ontogenetic","false","experimental"
"","null","html-keyboard-response","318","176862","0.0-13.0-2.35","KNIBpt1Fgk","59b1986ac05bb50001eb3a5f","6617fad957f7c6a12ea16e26","6622d009922a0fc246071b3b","
    <div id=""grid-container"">
        <!-- Grid items will be dynamically added here -->
    </div>    ","null","","","","","","","","","","","",""
"","null","html-keyboard-response","319","177566","0.0-13.0-0.36","KNIBpt1Fgk","59b1986ac05bb50001eb3a5f","6617fad957f7c6a12ea16e26","6622d009922a0fc246071b3b","fixation cross","null","","","","","","","","","","","",""
"","109","html-keyboard-response","320","177676","0.0-13.0-1.36","KNIBpt1Fgk","59b1986ac05bb50001eb3a5f","6617fad957f7c6a12ea16e26","6622d009922a0fc246071b3b","image grid","p","","","","","Ontogenetic_Distractor_notarget","2500","ongrid"," ","3","Ontogenetic","false","experimental"
"","null","html-keyboard-response","321","177829","0.0-13.0-2.36","KNIBpt1Fgk","59b1986ac05bb50001eb3a5f","6617fad957f7c6a12ea16e26","6622d009922a0fc246071b3b","
    <div id=""grid-container"">
        <!-- Grid items will be dynamically added here -->
    </div>    ","null","","","","","","","","","","","",""
"","null","html-keyboard-response","322","178532","0.0-13.0-0.37","KNIBpt1Fgk","59b1986ac05bb50001eb3a5f","6617fad957f7c6a12ea16e26","6622d009922a0fc246071b3b","fixation cross","null","","","","","","","","","","","",""
"","65","html-keyboard-response","323","178598","0.0-13.0-1.37","KNIBpt1Fgk","59b1986ac05bb50001eb3a5f","6617fad957f7c6a12ea16e26","6622d009922a0fc246071b3b","image grid","p","","","","","Ontogenetic_Distractor_Threat_target","2500","ongrid","q","5","Ontogenetic","false","experimental"
"","null","html-keyboard-response","324","178752","0.0-13.0-2.37","KNIBpt1Fgk","59b1986ac05bb50001eb3a5f","6617fad957f7c6a12ea16e26","6622d009922a0fc246071b3b","
    <div id=""grid-container"">
        <!-- Grid items will be dynamically added here -->
    </div>    ","null","","","","","","","","","","","",""
"","null","html-keyboard-response","325","179455","0.0-13.0-0.38","KNIBpt1Fgk","59b1986ac05bb50001eb3a5f","6617fad957f7c6a12ea16e26","6622d009922a0fc246071b3b","fixation cross","null","","","","","","","","","","","",""
"","271","html-keyboard-response","326","179728","0.0-13.0-1.38","KNIBpt1Fgk","59b1986ac05bb50001eb3a5f","6617fad957f7c6a12ea16e26","6622d009922a0fc246071b3b","image grid","q","","","","","Ontogenetic_Distractor_Nonthreat_target","2500","ongrid","p","9","Ontogenetic","false","experimental"
"","null","html-keyboard-response","327","179881","0.0-13.0-2.38","KNIBpt1Fgk","59b1986ac05bb50001eb3a5f","6617fad957f7c6a12ea16e26","6622d009922a0fc246071b3b","
    <div id=""grid-container"">
        <!-- Grid items will be dynamically added here -->
    </div>    ","null","","","","","","","","","","","",""
"","null","html-keyboard-response","328","180584","0.0-13.0-0.39","KNIBpt1Fgk","59b1986ac05bb50001eb3a5f","6617fad957f7c6a12ea16e26","6622d009922a0fc246071b3b","fixation cross","null","","","","","","","","","","","",""
"","107","html-keyboard-response","329","180691","0.0-13.0-1.39","KNIBpt1Fgk","59b1986ac05bb50001eb3a5f","6617fad957f7c6a12ea16e26","6622d009922a0fc246071b3b","image grid","q","","","","","Ontogenetic_Distractor_Threat_target","2500","ongrid","q","6","Ontogenetic","true","experimental"
"","null","html-keyboard-response","330","180845","0.0-13.0-2.39","KNIBpt1Fgk","59b1986ac05bb50001eb3a5f","6617fad957f7c6a12ea16e26","6622d009922a0fc246071b3b","
    <div id=""grid-container"">
        <!-- Grid items will be dynamically added here -->
    </div>    ","null","","","","","","","","","","","",""
"","1399","html-keyboard-response","331","182447","0.0-14.0","KNIBpt1Fgk","59b1986ac05bb50001eb3a5f","6617fad957f7c6a12ea16e26","6622d009922a0fc246071b3b","break screen"," ","","","","","","","","","","","",""
"","null","html-keyboard-response","332","184951","0.0-15.0-0.0","KNIBpt1Fgk","59b1986ac05bb50001eb3a5f","6617fad957f7c6a12ea16e26","6622d009922a0fc246071b3b","fixation cross","null","","","","","","","","","","","",""
"","396","html-keyboard-response","333","185348","0.0-15.0-1.0","KNIBpt1Fgk","59b1986ac05bb50001eb3a5f","6617fad957f7c6a12ea16e26","6622d009922a0fc246071b3b","image grid","p","","","","","Ontogenetic_Distractor_Nonthreat_target","2500","ongrid","p","6","Ontogenetic","true","experimental"
"","null","html-keyboard-response","334","185501","0.0-15.0-2.0","KNIBpt1Fgk","59b1986ac05bb50001eb3a5f","6617fad957f7c6a12ea16e26","6622d009922a0fc246071b3b","
    <div id=""grid-container"">
        <!-- Grid items will be dynamically added here -->
    </div>    ","null","","","","","","","","","","","",""
"","null","html-keyboard-response","335","186206","0.0-15.0-0.1","KNIBpt1Fgk","59b1986ac05bb50001eb3a5f","6617fad957f7c6a12ea16e26","6622d009922a0fc246071b3b","fixation cross","null","","","","","","","","","","","",""
"","64","html-keyboard-response","336","186270","0.0-15.0-1.1","KNIBpt1Fgk","59b1986ac05bb50001eb3a5f","6617fad957f7c6a12ea16e26","6622d009922a0fc246071b3b","image grid","p","","","","","Ontogenetic_Distractor_Nonthreat_target","2500","ongrid","p","5","Ontogenetic","true","experimental"
"","null","html-keyboard-response","337","186423","0.0-15.0-2.1","KNIBpt1Fgk","59b1986ac05bb50001eb3a5f","6617fad957f7c6a12ea16e26","6622d009922a0fc246071b3b","
    <div id=""grid-container"">
        <!-- Grid items will be dynamically added here -->
    </div>    ","null","","","","","","","","","","","",""
"","null","html-keyboard-response","338","187127","0.0-15.0-0.2","KNIBpt1Fgk","59b1986ac05bb50001eb3a5f","6617fad957f7c6a12ea16e26","6622d009922a0fc246071b3b","fixation cross","null","","","","","","","","","","","",""
"","112","html-keyboard-response","339","187239","0.0-15.0-1.2","KNIBpt1Fgk","59b1986ac05bb50001eb3a5f","6617fad957f7c6a12ea16e26","6622d009922a0fc246071b3b","image grid","q","","","","","Ontogenetic_Distractor_Threat_target","2500","ongrid","q","2","Ontogenetic","true","experimental"
"","null","html-keyboard-response","340","187393","0.0-15.0-2.2","KNIBpt1Fgk","59b1986ac05bb50001eb3a5f","6617fad957f7c6a12ea16e26","6622d009922a0fc246071b3b","
    <div id=""grid-container"">
        <!-- Grid items will be dynamically added here -->
    </div>    ","null","","","","","","","","","","","",""
"","null","html-keyboard-response","341","188098","0.0-15.0-0.3","KNIBpt1Fgk","59b1986ac05bb50001eb3a5f","6617fad957f7c6a12ea16e26","6622d009922a0fc246071b3b","fixation cross","null","","","","","","","","","","","",""
"","130","html-keyboard-response","342","188229","0.0-15.0-1.3","KNIBpt1Fgk","59b1986ac05bb50001eb3a5f","6617fad957f7c6a12ea16e26","6622d009922a0fc246071b3b","image grid","p","","","","","Ontogenetic_Distractor_Threat_target","2500","ongrid","q","9","Ontogenetic","false","experimental"
"","null","html-keyboard-response","343","188382","0.0-15.0-2.3","KNIBpt1Fgk","59b1986ac05bb50001eb3a5f","6617fad957f7c6a12ea16e26","6622d009922a0fc246071b3b","
    <div id=""grid-container"">
        <!-- Grid items will be dynamically added here -->
    </div>    ","null","","","","","","","","","","","",""
"","null","html-keyboard-response","344","189086","0.0-15.0-0.4","KNIBpt1Fgk","59b1986ac05bb50001eb3a5f","6617fad957f7c6a12ea16e26","6622d009922a0fc246071b3b","fixation cross","null","","","","","","","","","","","",""
"","113","html-keyboard-response","345","189200","0.0-15.0-1.4","KNIBpt1Fgk","59b1986ac05bb50001eb3a5f","6617fad957f7c6a12ea16e26","6622d009922a0fc246071b3b","image grid","p","","","","","Ontogenetic_Distractor_Threat_target","2500","ongrid","q","8","Ontogenetic","false","experimental"
"","null","html-keyboard-response","346","189352","0.0-15.0-2.4","KNIBpt1Fgk","59b1986ac05bb50001eb3a5f","6617fad957f7c6a12ea16e26","6622d009922a0fc246071b3b","
    <div id=""grid-container"">
        <!-- Grid items will be dynamically added here -->
    </div>    ","null","","","","","","","","","","","",""
"","null","html-keyboard-response","347","190056","0.0-15.0-0.5","KNIBpt1Fgk","59b1986ac05bb50001eb3a5f","6617fad957f7c6a12ea16e26","6622d009922a0fc246071b3b","fixation cross","null","","","","","","","","","","","",""
"","87","html-keyboard-response","348","190144","0.0-15.0-1.5","KNIBpt1Fgk","59b1986ac05bb50001eb3a5f","6617fad957f7c6a12ea16e26","6622d009922a0fc246071b3b","image grid","q","","","","","Ontogenetic_Distractor_Threat_target","2500","ongrid","q","9","Ontogenetic","true","experimental"
"","null","html-keyboard-response","349","190297","0.0-15.0-2.5","KNIBpt1Fgk","59b1986ac05bb50001eb3a5f","6617fad957f7c6a12ea16e26","6622d009922a0fc246071b3b","
    <div id=""grid-container"">
        <!-- Grid items will be dynamically added here -->
    </div>    ","null","","","","","","","","","","","",""
"","null","html-keyboard-response","350","191000","0.0-15.0-0.6","KNIBpt1Fgk","59b1986ac05bb50001eb3a5f","6617fad957f7c6a12ea16e26","6622d009922a0fc246071b3b","fixation cross","null","","","","","","","","","","","",""
"","87","html-keyboard-response","351","191088","0.0-15.0-1.6","KNIBpt1Fgk","59b1986ac05bb50001eb3a5f","6617fad957f7c6a12ea16e26","6622d009922a0fc246071b3b","image grid","q","","","","","Ontogenetic_Distractor_Nonthreat_target","2500","ongrid","p","7","Ontogenetic","false","experimental"
"","null","html-keyboard-response","352","191241","0.0-15.0-2.6","KNIBpt1Fgk","59b1986ac05bb50001eb3a5f","6617fad957f7c6a12ea16e26","6622d009922a0fc246071b3b","
    <div id=""grid-container"">
        <!-- Grid items will be dynamically added here -->
    </div>    ","null","","","","","","","","","","","",""
"","null","html-keyboard-response","353","191945","0.0-15.0-0.7","KNIBpt1Fgk","59b1986ac05bb50001eb3a5f","6617fad957f7c6a12ea16e26","6622d009922a0fc246071b3b","fixation cross","null","","","","","","","","","","","",""
"","108","html-keyboard-response","354","192054","0.0-15.0-1.7","KNIBpt1Fgk","59b1986ac05bb50001eb3a5f","6617fad957f7c6a12ea16e26","6622d009922a0fc246071b3b","image grid","q","","","","","Ontogenetic_Distractor_Threat_target","2500","ongrid","q","1","Ontogenetic","true","experimental"
"","null","html-keyboard-response","355","192208","0.0-15.0-2.7","KNIBpt1Fgk","59b1986ac05bb50001eb3a5f","6617fad957f7c6a12ea16e26","6622d009922a0fc246071b3b","
    <div id=""grid-container"">
        <!-- Grid items will be dynamically added here -->
    </div>    ","null","","","","","","","","","","","",""
"","null","html-keyboard-response","356","192913","0.0-15.0-0.8","KNIBpt1Fgk","59b1986ac05bb50001eb3a5f","6617fad957f7c6a12ea16e26","6622d009922a0fc246071b3b","fixation cross","null","","","","","","","","","","","",""
"","108","html-keyboard-response","357","193021","0.0-15.0-1.8","KNIBpt1Fgk","59b1986ac05bb50001eb3a5f","6617fad957f7c6a12ea16e26","6622d009922a0fc246071b3b","image grid","p","","","","","Ontogenetic_Distractor_Threat_target","2500","ongrid","q","9","Ontogenetic","false","experimental"
"","null","html-keyboard-response","358","193174","0.0-15.0-2.8","KNIBpt1Fgk","59b1986ac05bb50001eb3a5f","6617fad957f7c6a12ea16e26","6622d009922a0fc246071b3b","
    <div id=""grid-container"">
        <!-- Grid items will be dynamically added here -->
    </div>    ","null","","","","","","","","","","","",""
"","null","html-keyboard-response","359","193879","0.0-15.0-0.9","KNIBpt1Fgk","59b1986ac05bb50001eb3a5f","6617fad957f7c6a12ea16e26","6622d009922a0fc246071b3b","fixation cross","null","","","","","","","","","","","",""
"","85","html-keyboard-response","360","193964","0.0-15.0-1.9","KNIBpt1Fgk","59b1986ac05bb50001eb3a5f","6617fad957f7c6a12ea16e26","6622d009922a0fc246071b3b","image grid","p","","","","","Ontogenetic_Distractor_Threat_target","2500","ongrid","q","9","Ontogenetic","false","experimental"
"","null","html-keyboard-response","361","194117","0.0-15.0-2.9","KNIBpt1Fgk","59b1986ac05bb50001eb3a5f","6617fad957f7c6a12ea16e26","6622d009922a0fc246071b3b","
    <div id=""grid-container"">
        <!-- Grid items will be dynamically added here -->
    </div>    ","null","","","","","","","","","","","",""
"","null","html-keyboard-response","362","194821","0.0-15.0-0.10","KNIBpt1Fgk","59b1986ac05bb50001eb3a5f","6617fad957f7c6a12ea16e26","6622d009922a0fc246071b3b","fixation cross","null","","","","","","","","","","","",""
"","88","html-keyboard-response","363","194911","0.0-15.0-1.10","KNIBpt1Fgk","59b1986ac05bb50001eb3a5f","6617fad957f7c6a12ea16e26","6622d009922a0fc246071b3b","image grid","p","","","","","Ontogenetic_Distractor_Threat_target","2500","ongrid","q","5","Ontogenetic","false","experimental"
"","null","html-keyboard-response","364","195064","0.0-15.0-2.10","KNIBpt1Fgk","59b1986ac05bb50001eb3a5f","6617fad957f7c6a12ea16e26","6622d009922a0fc246071b3b","
    <div id=""grid-container"">
        <!-- Grid items will be dynamically added here -->
    </div>    ","null","","","","","","","","","","","",""
"","null","html-keyboard-response","365","195769","0.0-15.0-0.11","KNIBpt1Fgk","59b1986ac05bb50001eb3a5f","6617fad957f7c6a12ea16e26","6622d009922a0fc246071b3b","fixation cross","null","","","","","","","","","","","",""
"","132","html-keyboard-response","366","195902","0.0-15.0-1.11","KNIBpt1Fgk","59b1986ac05bb50001eb3a5f","6617fad957f7c6a12ea16e26","6622d009922a0fc246071b3b","image grid","q","","","","","Ontogenetic_Distractor_Nonthreat_target","2500","ongrid","p","3","Ontogenetic","false","experimental"
"","null","html-keyboard-response","367","196055","0.0-15.0-2.11","KNIBpt1Fgk","59b1986ac05bb50001eb3a5f","6617fad957f7c6a12ea16e26","6622d009922a0fc246071b3b","
    <div id=""grid-container"">
        <!-- Grid items will be dynamically added here -->
    </div>    ","null","","","","","","","","","","","",""
"","null","html-keyboard-response","368","196759","0.0-15.0-0.12","KNIBpt1Fgk","59b1986ac05bb50001eb3a5f","6617fad957f7c6a12ea16e26","6622d009922a0fc246071b3b","fixation cross","null","","","","","","","","","","","",""
"","65","html-keyboard-response","369","196825","0.0-15.0-1.12","KNIBpt1Fgk","59b1986ac05bb50001eb3a5f","6617fad957f7c6a12ea16e26","6622d009922a0fc246071b3b","image grid","q","","","","","Ontogenetic_Distractor_Nonthreat_target","2500","ongrid","p","4","Ontogenetic","false","experimental"
"","null","html-keyboard-response","370","196978","0.0-15.0-2.12","KNIBpt1Fgk","59b1986ac05bb50001eb3a5f","6617fad957f7c6a12ea16e26","6622d009922a0fc246071b3b","
    <div id=""grid-container"">
        <!-- Grid items will be dynamically added here -->
    </div>    ","null","","","","","","","","","","","",""
