"success","rt","trial_type","trial_index","time_elapsed","internal_node_id","unique_identifier","subject_id","study_id","session_id","stimulus","response","timeout","failed_images","failed_audio","failed_video","task","respondedwhen","time_manipulation","correctresponse","targetimagelocation","blocktype","correct","roundtype"
"true","4326","fullscreen","0","5335","0.0-0.0","FgJpACckK7","5e5de7a9151524109818ad6a","6617fad957f7c6a12ea16e26","6622cdf02dd9c81832be1f09","","","","","","","","","","","","","",""
"","8606","html-keyboard-response","1","13946","0.0-1.0","FgJpACckK7","5e5de7a9151524109818ad6a","6617fad957f7c6a12ea16e26","6622cdf02dd9c81832be1f09","instruction screen 0","d","","","","","","","","","","","",""
"true","","preload","2","31013","0.0-2.0","FgJpACckK7","5e5de7a9151524109818ad6a","6617fad957f7c6a12ea16e26","6622cdf02dd9c81832be1f09","","","false","[]","[]","[]","","","","","","","",""
"","9298","html-keyboard-response","3","40312","0.0-3.0","FgJpACckK7","5e5de7a9151524109818ad6a","6617fad957f7c6a12ea16e26","6622cdf02dd9c81832be1f09","instruction screen 1"," ","","","","","","","","","","","",""
"","6180","html-keyboard-response","4","46497","0.0-4.0","FgJpACckK7","5e5de7a9151524109818ad6a","6617fad957f7c6a12ea16e26","6622cdf02dd9c81832be1f09","instruction screen 2","q","","","","","","","","","","","",""
"","5228","html-keyboard-response","5","51731","0.0-5.0","FgJpACckK7","5e5de7a9151524109818ad6a","6617fad957f7c6a12ea16e26","6622cdf02dd9c81832be1f09","instruction screen 3","p","","","","","","","","","","","",""
"","3208","html-keyboard-response","6","54945","0.0-6.0","FgJpACckK7","5e5de7a9151524109818ad6a","6617fad957f7c6a12ea16e26","6622cdf02dd9c81832be1f09","instruction screen 4"," ","","","","","","","","","","","",""
"","786","html-keyboard-response","7","55737","0.0-7.0","FgJpACckK7","5e5de7a9151524109818ad6a","6617fad957f7c6a12ea16e26","6622cdf02dd9c81832be1f09","instruction screen 5"," ","","","","","","","","","","","",""
"","null","html-keyboard-response","8","56257","0.0-8.0","FgJpACckK7","5e5de7a9151524109818ad6a","6617fad957f7c6a12ea16e26","6622cdf02dd9c81832be1f09","fixation cross","null","","","","","","","","","","","",""
"","null","html-keyboard-response","9","56766","0.0-9.0-0.0","FgJpACckK7","5e5de7a9151524109818ad6a","6617fad957f7c6a12ea16e26","6622cdf02dd9c81832be1f09","fixation cross","null","","","","","","","","","","","",""
"","null","html-keyboard-response","10","59781","0.0-9.0-1.0","FgJpACckK7","5e5de7a9151524109818ad6a","6617fad957f7c6a12ea16e26","6622cdf02dd9c81832be1f09","
        <div id=""grid-container"">
        <!-- Grid items will be dynamically added here -->
    </div>    ","null","","","","","","","","","","","",""
"","3000","html-keyboard-response","11","64782","0.0-9.0-2.0","FgJpACckK7","5e5de7a9151524109818ad6a","6617fad957f7c6a12ea16e26","6622cdf02dd9c81832be1f09","mask grid","null","","","","","Phylogenetic_Distractor_Nonthreat_target","onmask","3000","p","6","Ontogenetic","false","practice"
"","null","html-keyboard-response","12","66057","0.0-9.0-3.0","FgJpACckK7","5e5de7a9151524109818ad6a","6617fad957f7c6a12ea16e26","6622cdf02dd9c81832be1f09","feedback screen","null","","","","","","","","","","","",""
"","null","html-keyboard-response","13","66574","0.0-9.0-0.1","FgJpACckK7","5e5de7a9151524109818ad6a","6617fad957f7c6a12ea16e26","6622cdf02dd9c81832be1f09","fixation cross","null","","","","","","","","","","","",""
"","null","html-keyboard-response","14","69484","0.0-9.0-1.1","FgJpACckK7","5e5de7a9151524109818ad6a","6617fad957f7c6a12ea16e26","6622cdf02dd9c81832be1f09","
        <div id=""grid-container"">
        <!-- Grid items will be dynamically added here -->
    </div>    ","null","","","","","","","","","","","",""
"","4032","html-keyboard-response","15","70616","0.0-9.0-2.1","FgJpACckK7","5e5de7a9151524109818ad6a","6617fad957f7c6a12ea16e26","6622cdf02dd9c81832be1f09","mask grid","q","","","","","Phylogenetic_Distractor_Nonthreat_target","onmask","2900","p","8","Ontogenetic","false","practice"
"","null","html-keyboard-response","16","71841","0.0-9.0-3.1","FgJpACckK7","5e5de7a9151524109818ad6a","6617fad957f7c6a12ea16e26","6622cdf02dd9c81832be1f09","feedback screen","null","","","","","","","","","","","",""
"","null","html-keyboard-response","17","72349","0.0-9.0-0.2","FgJpACckK7","5e5de7a9151524109818ad6a","6617fad957f7c6a12ea16e26","6622cdf02dd9c81832be1f09","fixation cross","null","","","","","","","","","","","",""
"","null","html-keyboard-response","18","75157","0.0-9.0-1.2","FgJpACckK7","5e5de7a9151524109818ad6a","6617fad957f7c6a12ea16e26","6622cdf02dd9c81832be1f09","
        <div id=""grid-container"">
        <!-- Grid items will be dynamically added here -->
    </div>    ","null","","","","","","","","","","","",""
"","3219","html-keyboard-response","19","75577","0.0-9.0-2.2","FgJpACckK7","5e5de7a9151524109818ad6a","6617fad957f7c6a12ea16e26","6622cdf02dd9c81832be1f09","mask grid","p","","","","","Phylogenetic_Distractor_notarget","onmask","2800"," ","4","Ontogenetic","false","practice"
"","null","html-keyboard-response","20","76799","0.0-9.0-3.2","FgJpACckK7","5e5de7a9151524109818ad6a","6617fad957f7c6a12ea16e26","6622cdf02dd9c81832be1f09","feedback screen","null","","","","","","","","","","","",""
"","null","html-keyboard-response","21","77305","0.0-9.0-0.3","FgJpACckK7","5e5de7a9151524109818ad6a","6617fad957f7c6a12ea16e26","6622cdf02dd9c81832be1f09","fixation cross","null","","","","","","","","","","","",""
"","null","html-keyboard-response","22","80016","0.0-9.0-1.3","FgJpACckK7","5e5de7a9151524109818ad6a","6617fad957f7c6a12ea16e26","6622cdf02dd9c81832be1f09","
        <div id=""grid-container"">
        <!-- Grid items will be dynamically added here -->
    </div>    ","null","","","","","","","","","","","",""
"","3135","html-keyboard-response","23","80452","0.0-9.0-2.3","FgJpACckK7","5e5de7a9151524109818ad6a","6617fad957f7c6a12ea16e26","6622cdf02dd9c81832be1f09","mask grid","q","","","","","Ontogenetic_Distractor_Threat_target","onmask","2700","q","8","Ontogenetic","true","practice"
"","null","html-keyboard-response","24","81678","0.0-9.0-3.3","FgJpACckK7","5e5de7a9151524109818ad6a","6617fad957f7c6a12ea16e26","6622cdf02dd9c81832be1f09","feedback screen","null","","","","","","","","","","","",""
"","null","html-keyboard-response","25","82189","0.0-9.0-0.4","FgJpACckK7","5e5de7a9151524109818ad6a","6617fad957f7c6a12ea16e26","6622cdf02dd9c81832be1f09","fixation cross","null","","","","","","","","","","","",""
"","null","html-keyboard-response","26","84802","0.0-9.0-1.4","FgJpACckK7","5e5de7a9151524109818ad6a","6617fad957f7c6a12ea16e26","6622cdf02dd9c81832be1f09","
        <div id=""grid-container"">
        <!-- Grid items will be dynamically added here -->
    </div>    ","null","","","","","","","","","","","",""
"","3047","html-keyboard-response","27","85250","0.0-9.0-2.4","FgJpACckK7","5e5de7a9151524109818ad6a","6617fad957f7c6a12ea16e26","6622cdf02dd9c81832be1f09","mask grid","p","","","","","Ontogenetic_Distractor_notarget","onmask","2600"," ","9","Ontogenetic","false","practice"
"","null","html-keyboard-response","28","86464","0.0-9.0-3.4","FgJpACckK7","5e5de7a9151524109818ad6a","6617fad957f7c6a12ea16e26","6622cdf02dd9c81832be1f09","feedback screen","null","","","","","","","","","","","",""
"","null","html-keyboard-response","29","86973","0.0-9.0-0.5","FgJpACckK7","5e5de7a9151524109818ad6a","6617fad957f7c6a12ea16e26","6622cdf02dd9c81832be1f09","fixation cross","null","","","","","","","","","","","",""
"","null","html-keyboard-response","30","89479","0.0-9.0-1.5","FgJpACckK7","5e5de7a9151524109818ad6a","6617fad957f7c6a12ea16e26","6622cdf02dd9c81832be1f09","
        <div id=""grid-container"">
        <!-- Grid items will be dynamically added here -->
    </div>    ","null","","","","","","","","","","","",""
"","2843","html-keyboard-response","31","89823","0.0-9.0-2.5","FgJpACckK7","5e5de7a9151524109818ad6a","6617fad957f7c6a12ea16e26","6622cdf02dd9c81832be1f09","mask grid","q","","","","","Phylogenetic_Distractor_Threat_target","onmask","2500","q","9","Ontogenetic","true","practice"
"","null","html-keyboard-response","32","91033","0.0-9.0-3.5","FgJpACckK7","5e5de7a9151524109818ad6a","6617fad957f7c6a12ea16e26","6622cdf02dd9c81832be1f09","feedback screen","null","","","","","","","","","","","",""
"","null","html-keyboard-response","33","91551","0.0-9.0-0.6","FgJpACckK7","5e5de7a9151524109818ad6a","6617fad957f7c6a12ea16e26","6622cdf02dd9c81832be1f09","fixation cross","null","","","","","","","","","","","",""
"","null","html-keyboard-response","34","93955","0.0-9.0-1.6","FgJpACckK7","5e5de7a9151524109818ad6a","6617fad957f7c6a12ea16e26","6622cdf02dd9c81832be1f09","
        <div id=""grid-container"">
        <!-- Grid items will be dynamically added here -->
    </div>    ","null","","","","","","","","","","","",""
"","2651","html-keyboard-response","35","94206","0.0-9.0-2.6","FgJpACckK7","5e5de7a9151524109818ad6a","6617fad957f7c6a12ea16e26","6622cdf02dd9c81832be1f09","mask grid","q","","","","","Ontogenetic_Distractor_Threat_target","onmask","2400","q","3","Ontogenetic","true","practice"
"","null","html-keyboard-response","36","95427","0.0-9.0-3.6","FgJpACckK7","5e5de7a9151524109818ad6a","6617fad957f7c6a12ea16e26","6622cdf02dd9c81832be1f09","feedback screen","null","","","","","","","","","","","",""
"","null","html-keyboard-response","37","95939","0.0-9.0-0.7","FgJpACckK7","5e5de7a9151524109818ad6a","6617fad957f7c6a12ea16e26","6622cdf02dd9c81832be1f09","fixation cross","null","","","","","","","","","","","",""
"","null","html-keyboard-response","38","98247","0.0-9.0-1.7","FgJpACckK7","5e5de7a9151524109818ad6a","6617fad957f7c6a12ea16e26","6622cdf02dd9c81832be1f09","
        <div id=""grid-container"">
        <!-- Grid items will be dynamically added here -->
    </div>    ","null","","","","","","","","","","","",""
"","2536","html-keyboard-response","39","98484","0.0-9.0-2.7","FgJpACckK7","5e5de7a9151524109818ad6a","6617fad957f7c6a12ea16e26","6622cdf02dd9c81832be1f09","mask grid","p","","","","","Phylogenetic_Distractor_Nonthreat_target","onmask","2300","p","4","Ontogenetic","true","practice"
"","null","html-keyboard-response","40","99715","0.0-9.0-3.7","FgJpACckK7","5e5de7a9151524109818ad6a","6617fad957f7c6a12ea16e26","6622cdf02dd9c81832be1f09","feedback screen","null","","","","","","","","","","","",""
"","null","html-keyboard-response","41","100221","0.0-9.0-0.8","FgJpACckK7","5e5de7a9151524109818ad6a","6617fad957f7c6a12ea16e26","6622cdf02dd9c81832be1f09","fixation cross","null","","","","","","","","","","","",""
"","null","html-keyboard-response","42","102426","0.0-9.0-1.8","FgJpACckK7","5e5de7a9151524109818ad6a","6617fad957f7c6a12ea16e26","6622cdf02dd9c81832be1f09","
        <div id=""grid-container"">
        <!-- Grid items will be dynamically added here -->
    </div>    ","null","","","","","","","","","","","",""
"","2425","html-keyboard-response","43","102651","0.0-9.0-2.8","FgJpACckK7","5e5de7a9151524109818ad6a","6617fad957f7c6a12ea16e26","6622cdf02dd9c81832be1f09","mask grid","p","","","","","Ontogenetic_Distractor_Nonthreat_target","onmask","2200","p","4","Ontogenetic","true","practice"
"","null","html-keyboard-response","44","103862","0.0-9.0-3.8","FgJpACckK7","5e5de7a9151524109818ad6a","6617fad957f7c6a12ea16e26","6622cdf02dd9c81832be1f09","feedback screen","null","","","","","","","","","","","",""
"","null","html-keyboard-response","45","104374","0.0-9.0-0.9","FgJpACckK7","5e5de7a9151524109818ad6a","6617fad957f7c6a12ea16e26","6622cdf02dd9c81832be1f09","fixation cross","null","","","","","","","","","","","",""
"","1632","html-keyboard-response","46","106006","0.0-9.0-1.9","FgJpACckK7","5e5de7a9151524109818ad6a","6617fad957f7c6a12ea16e26","6622cdf02dd9c81832be1f09","image grid","p","","","","","Ontogenetic_Distractor_Nonthreat_target","ongrid","2100","p","5","Ontogenetic","true","practice"
"","null","html-keyboard-response","47","106166","0.0-9.0-2.9","FgJpACckK7","5e5de7a9151524109818ad6a","6617fad957f7c6a12ea16e26","6622cdf02dd9c81832be1f09","
    <div id=""grid-container"">
        <!-- Grid items will be dynamically added here -->
    </div>    ","null","","","","","","","","","","","",""
"","159","html-keyboard-response","48","106537","0.0-9.0-3.9","FgJpACckK7","5e5de7a9151524109818ad6a","6617fad957f7c6a12ea16e26","6622cdf02dd9c81832be1f09","feedback screen","p","","","","","","","","","","","",""
"","null","html-keyboard-response","49","107049","0.0-9.0-0.10","FgJpACckK7","5e5de7a9151524109818ad6a","6617fad957f7c6a12ea16e26","6622cdf02dd9c81832be1f09","fixation cross","null","","","","","","","","","","","",""
"","848","html-keyboard-response","50","107897","0.0-9.0-1.10","FgJpACckK7","5e5de7a9151524109818ad6a","6617fad957f7c6a12ea16e26","6622cdf02dd9c81832be1f09","image grid","q","","","","","Phylogenetic_Distractor_Threat_target","ongrid","2000","q","3","Ontogenetic","true","practice"
"","null","html-keyboard-response","51","108058","0.0-9.0-2.10","FgJpACckK7","5e5de7a9151524109818ad6a","6617fad957f7c6a12ea16e26","6622cdf02dd9c81832be1f09","
    <div id=""grid-container"">
        <!-- Grid items will be dynamically added here -->
    </div>    ","null","","","","","","","","","","","",""
"","null","html-keyboard-response","52","109274","0.0-9.0-3.10","FgJpACckK7","5e5de7a9151524109818ad6a","6617fad957f7c6a12ea16e26","6622cdf02dd9c81832be1f09","feedback screen","null","","","","","","","","","","","",""
"","null","html-keyboard-response","53","109789","0.0-9.0-0.11","FgJpACckK7","5e5de7a9151524109818ad6a","6617fad957f7c6a12ea16e26","6622cdf02dd9c81832be1f09","fixation cross","null","","","","","","","","","","","",""
"","null","html-keyboard-response","54","111693","0.0-9.0-1.11","FgJpACckK7","5e5de7a9151524109818ad6a","6617fad957f7c6a12ea16e26","6622cdf02dd9c81832be1f09","
        <div id=""grid-container"">
        <!-- Grid items will be dynamically added here -->
    </div>    ","null","","","","","","","","","","","",""
"","2411","html-keyboard-response","55","112204","0.0-9.0-2.11","FgJpACckK7","5e5de7a9151524109818ad6a","6617fad957f7c6a12ea16e26","6622cdf02dd9c81832be1f09","mask grid","p","","","","","Phylogenetic_Distractor_notarget","onmask","1900"," ","3","Ontogenetic","false","practice"
"","null","html-keyboard-response","56","113422","0.0-9.0-3.11","FgJpACckK7","5e5de7a9151524109818ad6a","6617fad957f7c6a12ea16e26","6622cdf02dd9c81832be1f09","feedback screen","null","","","","","","","","","","","",""
"","null","html-keyboard-response","57","113931","0.0-9.0-0.12","FgJpACckK7","5e5de7a9151524109818ad6a","6617fad957f7c6a12ea16e26","6622cdf02dd9c81832be1f09","fixation cross","null","","","","","","","","","","","",""
"","null","html-keyboard-response","58","115741","0.0-9.0-1.12","FgJpACckK7","5e5de7a9151524109818ad6a","6617fad957f7c6a12ea16e26","6622cdf02dd9c81832be1f09","
        <div id=""grid-container"">
        <!-- Grid items will be dynamically added here -->
    </div>    ","null","","","","","","","","","","","",""
"","2069","html-keyboard-response","59","116011","0.0-9.0-2.12","FgJpACckK7","5e5de7a9151524109818ad6a","6617fad957f7c6a12ea16e26","6622cdf02dd9c81832be1f09","mask grid","p","","","","","Ontogenetic_Distractor_Nonthreat_target","onmask","1800","p","2","Ontogenetic","true","practice"
"","null","html-keyboard-response","60","117233","0.0-9.0-3.12","FgJpACckK7","5e5de7a9151524109818ad6a","6617fad957f7c6a12ea16e26","6622cdf02dd9c81832be1f09","feedback screen","null","","","","","","","","","","","",""
"","null","html-keyboard-response","61","117751","0.0-9.0-0.13","FgJpACckK7","5e5de7a9151524109818ad6a","6617fad957f7c6a12ea16e26","6622cdf02dd9c81832be1f09","fixation cross","null","","","","","","","","","","","",""
"","927","html-keyboard-response","62","118679","0.0-9.0-1.13","FgJpACckK7","5e5de7a9151524109818ad6a","6617fad957f7c6a12ea16e26","6622cdf02dd9c81832be1f09","image grid","q","","","","","Phylogenetic_Distractor_Threat_target","ongrid","1700","q","9","Ontogenetic","true","practice"
"","null","html-keyboard-response","63","118838","0.0-9.0-2.13","FgJpACckK7","5e5de7a9151524109818ad6a","6617fad957f7c6a12ea16e26","6622cdf02dd9c81832be1f09","
    <div id=""grid-container"">
        <!-- Grid items will be dynamically added here -->
    </div>    ","null","","","","","","","","","","","",""
"","null","html-keyboard-response","64","120060","0.0-9.0-3.13","FgJpACckK7","5e5de7a9151524109818ad6a","6617fad957f7c6a12ea16e26","6622cdf02dd9c81832be1f09","feedback screen","null","","","","","","","","","","","",""
"","null","html-keyboard-response","65","120575","0.0-9.0-0.14","FgJpACckK7","5e5de7a9151524109818ad6a","6617fad957f7c6a12ea16e26","6622cdf02dd9c81832be1f09","fixation cross","null","","","","","","","","","","","",""
"","729","html-keyboard-response","66","121304","0.0-9.0-1.14","FgJpACckK7","5e5de7a9151524109818ad6a","6617fad957f7c6a12ea16e26","6622cdf02dd9c81832be1f09","image grid","p","","","","","Ontogenetic_Distractor_Nonthreat_target","ongrid","1600","p","3","Ontogenetic","true","practice"
"","null","html-keyboard-response","67","121460","0.0-9.0-2.14","FgJpACckK7","5e5de7a9151524109818ad6a","6617fad957f7c6a12ea16e26","6622cdf02dd9c81832be1f09","
    <div id=""grid-container"">
        <!-- Grid items will be dynamically added here -->
    </div>    ","null","","","","","","","","","","","",""
"","null","html-keyboard-response","68","122668","0.0-9.0-3.14","FgJpACckK7","5e5de7a9151524109818ad6a","6617fad957f7c6a12ea16e26","6622cdf02dd9c81832be1f09","feedback screen","null","","","","","","","","","","","",""
"","null","html-keyboard-response","69","123180","0.0-9.0-0.15","FgJpACckK7","5e5de7a9151524109818ad6a","6617fad957f7c6a12ea16e26","6622cdf02dd9c81832be1f09","fixation cross","null","","","","","","","","","","","",""
"","858","html-keyboard-response","70","124039","0.0-9.0-1.15","FgJpACckK7","5e5de7a9151524109818ad6a","6617fad957f7c6a12ea16e26","6622cdf02dd9c81832be1f09","image grid","q","","","","","Phylogenetic_Distractor_Threat_target","ongrid","1500","q","7","Ontogenetic","true","practice"
"","null","html-keyboard-response","71","124208","0.0-9.0-2.15","FgJpACckK7","5e5de7a9151524109818ad6a","6617fad957f7c6a12ea16e26","6622cdf02dd9c81832be1f09","
    <div id=""grid-container"">
        <!-- Grid items will be dynamically added here -->
    </div>    ","null","","","","","","","","","","","",""
"","null","html-keyboard-response","72","125430","0.0-9.0-3.15","FgJpACckK7","5e5de7a9151524109818ad6a","6617fad957f7c6a12ea16e26","6622cdf02dd9c81832be1f09","feedback screen","null","","","","","","","","","","","",""
"","null","html-keyboard-response","73","125938","0.0-9.0-0.16","FgJpACckK7","5e5de7a9151524109818ad6a","6617fad957f7c6a12ea16e26","6622cdf02dd9c81832be1f09","fixation cross","null","","","","","","","","","","","",""
"","1138","html-keyboard-response","74","127077","0.0-9.0-1.16","FgJpACckK7","5e5de7a9151524109818ad6a","6617fad957f7c6a12ea16e26","6622cdf02dd9c81832be1f09","image grid","q","","","","","Ontogenetic_Distractor_Threat_target","ongrid","1400","q","9","Ontogenetic","true","practice"
"","null","html-keyboard-response","75","127228","0.0-9.0-2.16","FgJpACckK7","5e5de7a9151524109818ad6a","6617fad957f7c6a12ea16e26","6622cdf02dd9c81832be1f09","
    <div id=""grid-container"">
        <!-- Grid items will be dynamically added here -->
    </div>    ","null","","","","","","","","","","","",""
"","null","html-keyboard-response","76","128442","0.0-9.0-3.16","FgJpACckK7","5e5de7a9151524109818ad6a","6617fad957f7c6a12ea16e26","6622cdf02dd9c81832be1f09","feedback screen","null","","","","","","","","","","","",""
"","null","html-keyboard-response","77","128949","0.0-9.0-0.17","FgJpACckK7","5e5de7a9151524109818ad6a","6617fad957f7c6a12ea16e26","6622cdf02dd9c81832be1f09","fixation cross","null","","","","","","","","","","","",""
"","null","html-keyboard-response","78","130256","0.0-9.0-1.17","FgJpACckK7","5e5de7a9151524109818ad6a","6617fad957f7c6a12ea16e26","6622cdf02dd9c81832be1f09","
        <div id=""grid-container"">
        <!-- Grid items will be dynamically added here -->
    </div>    ","null","","","","","","","","","","","",""
"","2021","html-keyboard-response","79","130977","0.0-9.0-2.17","FgJpACckK7","5e5de7a9151524109818ad6a","6617fad957f7c6a12ea16e26","6622cdf02dd9c81832be1f09","mask grid","p","","","","","Phylogenetic_Distractor_Nonthreat_target","onmask","1300","p","9","Ontogenetic","true","practice"
"","null","html-keyboard-response","80","132208","0.0-9.0-3.17","FgJpACckK7","5e5de7a9151524109818ad6a","6617fad957f7c6a12ea16e26","6622cdf02dd9c81832be1f09","feedback screen","null","","","","","","","","","","","",""
"","null","html-keyboard-response","81","132719","0.0-9.0-0.18","FgJpACckK7","5e5de7a9151524109818ad6a","6617fad957f7c6a12ea16e26","6622cdf02dd9c81832be1f09","fixation cross","null","","","","","","","","","","","",""
"","645","html-keyboard-response","82","133365","0.0-9.0-1.18","FgJpACckK7","5e5de7a9151524109818ad6a","6617fad957f7c6a12ea16e26","6622cdf02dd9c81832be1f09","image grid","q","","","","","Ontogenetic_Distractor_Threat_target","ongrid","1200","q","8","Ontogenetic","true","practice"
"","null","html-keyboard-response","83","133530","0.0-9.0-2.18","FgJpACckK7","5e5de7a9151524109818ad6a","6617fad957f7c6a12ea16e26","6622cdf02dd9c81832be1f09","
    <div id=""grid-container"">
        <!-- Grid items will be dynamically added here -->
    </div>    ","null","","","","","","","","","","","",""
"","null","html-keyboard-response","84","134740","0.0-9.0-3.18","FgJpACckK7","5e5de7a9151524109818ad6a","6617fad957f7c6a12ea16e26","6622cdf02dd9c81832be1f09","feedback screen","null","","","","","","","","","","","",""
"","null","html-keyboard-response","85","135249","0.0-9.0-0.19","FgJpACckK7","5e5de7a9151524109818ad6a","6617fad957f7c6a12ea16e26","6622cdf02dd9c81832be1f09","fixation cross","null","","","","","","","","","","","",""
"","null","html-keyboard-response","86","136358","0.0-9.0-1.19","FgJpACckK7","5e5de7a9151524109818ad6a","6617fad957f7c6a12ea16e26","6622cdf02dd9c81832be1f09","
        <div id=""grid-container"">
        <!-- Grid items will be dynamically added here -->
    </div>    ","null","","","","","","","","","","","",""
"","1547","html-keyboard-response","87","136805","0.0-9.0-2.19","FgJpACckK7","5e5de7a9151524109818ad6a","6617fad957f7c6a12ea16e26","6622cdf02dd9c81832be1f09","mask grid","p","","","","","Ontogenetic_Distractor_notarget","onmask","1100"," ","2","Ontogenetic","false","practice"
"","null","html-keyboard-response","88","138012","0.0-9.0-3.19","FgJpACckK7","5e5de7a9151524109818ad6a","6617fad957f7c6a12ea16e26","6622cdf02dd9c81832be1f09","feedback screen","null","","","","","","","","","","","",""
"","12422","html-keyboard-response","89","150493","0.0-10.0","FgJpACckK7","5e5de7a9151524109818ad6a","6617fad957f7c6a12ea16e26","6622cdf02dd9c81832be1f09","pre-experimental_briefing"," ","","","","","","","","","","","",""
"","null","html-keyboard-response","90","153039","0.0-11.0-0.0","FgJpACckK7","5e5de7a9151524109818ad6a","6617fad957f7c6a12ea16e26","6622cdf02dd9c81832be1f09","fixation cross","null","","","","","","","","","","","",""
"","null","html-keyboard-response","91","155544","0.0-11.0-1.0","FgJpACckK7","5e5de7a9151524109818ad6a","6617fad957f7c6a12ea16e26","6622cdf02dd9c81832be1f09","
        <div id=""grid-container"">
        <!-- Grid items will be dynamically added here -->
    </div>    ","null","","","","","","","","","","","",""
"","3030","html-keyboard-response","92","156074","0.0-11.0-2.0","FgJpACckK7","5e5de7a9151524109818ad6a","6617fad957f7c6a12ea16e26","6622cdf02dd9c81832be1f09","mask grid","p","","","","","Ontogenetic_Distractor_Nonthreat_target","onmask","2500","p","1","Ontogenetic","true","experimental"
"","null","html-keyboard-response","93","156787","0.0-11.0-0.1","FgJpACckK7","5e5de7a9151524109818ad6a","6617fad957f7c6a12ea16e26","6622cdf02dd9c81832be1f09","fixation cross","null","","","","","","","","","","","",""
"","null","html-keyboard-response","94","159302","0.0-11.0-1.1","FgJpACckK7","5e5de7a9151524109818ad6a","6617fad957f7c6a12ea16e26","6622cdf02dd9c81832be1f09","
        <div id=""grid-container"">
        <!-- Grid items will be dynamically added here -->
    </div>    ","null","","","","","","","","","","","",""
"","2892","html-keyboard-response","95","159695","0.0-11.0-2.1","FgJpACckK7","5e5de7a9151524109818ad6a","6617fad957f7c6a12ea16e26","6622cdf02dd9c81832be1f09","mask grid","p","","","","","Ontogenetic_Distractor_Nonthreat_target","onmask","2500","p","7","Ontogenetic","true","experimental"
"","null","html-keyboard-response","96","160407","0.0-11.0-0.2","FgJpACckK7","5e5de7a9151524109818ad6a","6617fad957f7c6a12ea16e26","6622cdf02dd9c81832be1f09","fixation cross","null","","","","","","","","","","","",""
"","null","html-keyboard-response","97","162912","0.0-11.0-1.2","FgJpACckK7","5e5de7a9151524109818ad6a","6617fad957f7c6a12ea16e26","6622cdf02dd9c81832be1f09","
        <div id=""grid-container"">
        <!-- Grid items will be dynamically added here -->
    </div>    ","null","","","","","","","","","","","",""
"","3079","html-keyboard-response","98","163491","0.0-11.0-2.2","FgJpACckK7","5e5de7a9151524109818ad6a","6617fad957f7c6a12ea16e26","6622cdf02dd9c81832be1f09","mask grid","p","","","","","Ontogenetic_Distractor_notarget","onmask","2500"," ","9","Ontogenetic","false","experimental"
"","null","html-keyboard-response","99","164200","0.0-11.0-0.3","FgJpACckK7","5e5de7a9151524109818ad6a","6617fad957f7c6a12ea16e26","6622cdf02dd9c81832be1f09","fixation cross","null","","","","","","","","","","","",""
"","1024","html-keyboard-response","100","165225","0.0-11.0-1.3","FgJpACckK7","5e5de7a9151524109818ad6a","6617fad957f7c6a12ea16e26","6622cdf02dd9c81832be1f09","image grid","q","","","","","Ontogenetic_Distractor_Threat_target","ongrid","2500","q","5","Ontogenetic","true","experimental"
"","null","html-keyboard-response","101","165391","0.0-11.0-2.3","FgJpACckK7","5e5de7a9151524109818ad6a","6617fad957f7c6a12ea16e26","6622cdf02dd9c81832be1f09","
    <div id=""grid-container"">
        <!-- Grid items will be dynamically added here -->
    </div>    ","null","","","","","","","","","","","",""
"","null","html-keyboard-response","102","166107","0.0-11.0-0.4","FgJpACckK7","5e5de7a9151524109818ad6a","6617fad957f7c6a12ea16e26","6622cdf02dd9c81832be1f09","fixation cross","null","","","","","","","","","","","",""
"","1758","html-keyboard-response","103","167865","0.0-11.0-1.4","FgJpACckK7","5e5de7a9151524109818ad6a","6617fad957f7c6a12ea16e26","6622cdf02dd9c81832be1f09","image grid","p","","","","","Ontogenetic_Distractor_Nonthreat_target","ongrid","2500","p","8","Ontogenetic","true","experimental"
"","null","html-keyboard-response","104","168031","0.0-11.0-2.4","FgJpACckK7","5e5de7a9151524109818ad6a","6617fad957f7c6a12ea16e26","6622cdf02dd9c81832be1f09","
    <div id=""grid-container"">
        <!-- Grid items will be dynamically added here -->
    </div>    ","null","","","","","","","","","","","",""
"","null","html-keyboard-response","105","168755","0.0-11.0-0.5","FgJpACckK7","5e5de7a9151524109818ad6a","6617fad957f7c6a12ea16e26","6622cdf02dd9c81832be1f09","fixation cross","null","","","","","","","","","","","",""
"","null","html-keyboard-response","106","171271","0.0-11.0-1.5","FgJpACckK7","5e5de7a9151524109818ad6a","6617fad957f7c6a12ea16e26","6622cdf02dd9c81832be1f09","
        <div id=""grid-container"">
        <!-- Grid items will be dynamically added here -->
    </div>    ","null","","","","","","","","","","","",""
"","3519","html-keyboard-response","107","172290","0.0-11.0-2.5","FgJpACckK7","5e5de7a9151524109818ad6a","6617fad957f7c6a12ea16e26","6622cdf02dd9c81832be1f09","mask grid","p","","","","","Ontogenetic_Distractor_Nonthreat_target","onmask","2500","p","2","Ontogenetic","true","experimental"
"","null","html-keyboard-response","108","173012","0.0-11.0-0.6","FgJpACckK7","5e5de7a9151524109818ad6a","6617fad957f7c6a12ea16e26","6622cdf02dd9c81832be1f09","fixation cross","null","","","","","","","","","","","",""
"","1179","html-keyboard-response","109","174192","0.0-11.0-1.6","FgJpACckK7","5e5de7a9151524109818ad6a","6617fad957f7c6a12ea16e26","6622cdf02dd9c81832be1f09","image grid","q","","","","","Ontogenetic_Distractor_Threat_target","ongrid","2500","q","1","Ontogenetic","true","experimental"
"","null","html-keyboard-response","110","174351","0.0-11.0-2.6","FgJpACckK7","5e5de7a9151524109818ad6a","6617fad957f7c6a12ea16e26","6622cdf02dd9c81832be1f09","
    <div id=""grid-container"">
        <!-- Grid items will be dynamically added here -->
    </div>    ","null","","","","","","","","","","","",""
"","null","html-keyboard-response","111","175070","0.0-11.0-0.7","FgJpACckK7","5e5de7a9151524109818ad6a","6617fad957f7c6a12ea16e26","6622cdf02dd9c81832be1f09","fixation cross","null","","","","","","","","","","","",""
"","935","html-keyboard-response","112","176007","0.0-11.0-1.7","FgJpACckK7","5e5de7a9151524109818ad6a","6617fad957f7c6a12ea16e26","6622cdf02dd9c81832be1f09","image grid","q","","","","","Ontogenetic_Distractor_Threat_target","ongrid","2500","q","4","Ontogenetic","true","experimental"
"","null","html-keyboard-response","113","176159","0.0-11.0-2.7","FgJpACckK7","5e5de7a9151524109818ad6a","6617fad957f7c6a12ea16e26","6622cdf02dd9c81832be1f09","
    <div id=""grid-container"">
        <!-- Grid items will be dynamically added here -->
    </div>    ","null","","","","","","","","","","","",""
"","null","html-keyboard-response","114","176886","0.0-11.0-0.8","FgJpACckK7","5e5de7a9151524109818ad6a","6617fad957f7c6a12ea16e26","6622cdf02dd9c81832be1f09","fixation cross","null","","","","","","","","","","","",""
"","1878","html-keyboard-response","115","178765","0.0-11.0-1.8","FgJpACckK7","5e5de7a9151524109818ad6a","6617fad957f7c6a12ea16e26","6622cdf02dd9c81832be1f09","image grid","p","","","","","Ontogenetic_Distractor_notarget","ongrid","2500"," ","5","Ontogenetic","false","experimental"
"","null","html-keyboard-response","116","178922","0.0-11.0-2.8","FgJpACckK7","5e5de7a9151524109818ad6a","6617fad957f7c6a12ea16e26","6622cdf02dd9c81832be1f09","
    <div id=""grid-container"">
        <!-- Grid items will be dynamically added here -->
    </div>    ","null","","","","","","","","","","","",""
"","null","html-keyboard-response","117","179635","0.0-11.0-0.9","FgJpACckK7","5e5de7a9151524109818ad6a","6617fad957f7c6a12ea16e26","6622cdf02dd9c81832be1f09","fixation cross","null","","","","","","","","","","","",""
"","2102","html-keyboard-response","118","181738","0.0-11.0-1.9","FgJpACckK7","5e5de7a9151524109818ad6a","6617fad957f7c6a12ea16e26","6622cdf02dd9c81832be1f09","image grid","p","","","","","Ontogenetic_Distractor_Nonthreat_target","ongrid","2500","p","9","Ontogenetic","true","experimental"
"","null","html-keyboard-response","119","181902","0.0-11.0-2.9","FgJpACckK7","5e5de7a9151524109818ad6a","6617fad957f7c6a12ea16e26","6622cdf02dd9c81832be1f09","
    <div id=""grid-container"">
        <!-- Grid items will be dynamically added here -->
    </div>    ","null","","","","","","","","","","","",""
"","null","html-keyboard-response","120","182620","0.0-11.0-0.10","FgJpACckK7","5e5de7a9151524109818ad6a","6617fad957f7c6a12ea16e26","6622cdf02dd9c81832be1f09","fixation cross","null","","","","","","","","","","","",""
"","null","html-keyboard-response","121","185129","0.0-11.0-1.10","FgJpACckK7","5e5de7a9151524109818ad6a","6617fad957f7c6a12ea16e26","6622cdf02dd9c81832be1f09","
        <div id=""grid-container"">
        <!-- Grid items will be dynamically added here -->
    </div>    ","null","","","","","","","","","","","",""
"","2613","html-keyboard-response","122","185243","0.0-11.0-2.10","FgJpACckK7","5e5de7a9151524109818ad6a","6617fad957f7c6a12ea16e26","6622cdf02dd9c81832be1f09","mask grid","p","","","","","Ontogenetic_Distractor_Nonthreat_target","onmask","2500","p","5","Ontogenetic","true","experimental"
"","null","html-keyboard-response","123","185947","0.0-11.0-0.11","FgJpACckK7","5e5de7a9151524109818ad6a","6617fad957f7c6a12ea16e26","6622cdf02dd9c81832be1f09","fixation cross","null","","","","","","","","","","","",""
"","915","html-keyboard-response","124","186862","0.0-11.0-1.11","FgJpACckK7","5e5de7a9151524109818ad6a","6617fad957f7c6a12ea16e26","6622cdf02dd9c81832be1f09","image grid","q","","","","","Ontogenetic_Distractor_Threat_target","ongrid","2500","q","6","Ontogenetic","true","experimental"
"","null","html-keyboard-response","125","187021","0.0-11.0-2.11","FgJpACckK7","5e5de7a9151524109818ad6a","6617fad957f7c6a12ea16e26","6622cdf02dd9c81832be1f09","
    <div id=""grid-container"">
        <!-- Grid items will be dynamically added here -->
    </div>    ","null","","","","","","","","","","","",""
"","null","html-keyboard-response","126","187731","0.0-11.0-0.12","FgJpACckK7","5e5de7a9151524109818ad6a","6617fad957f7c6a12ea16e26","6622cdf02dd9c81832be1f09","fixation cross","null","","","","","","","","","","","",""
"","2013","html-keyboard-response","127","189745","0.0-11.0-1.12","FgJpACckK7","5e5de7a9151524109818ad6a","6617fad957f7c6a12ea16e26","6622cdf02dd9c81832be1f09","image grid","p","","","","","Ontogenetic_Distractor_Nonthreat_target","ongrid","2500","p","1","Ontogenetic","true","experimental"
"","null","html-keyboard-response","128","189906","0.0-11.0-2.12","FgJpACckK7","5e5de7a9151524109818ad6a","6617fad957f7c6a12ea16e26","6622cdf02dd9c81832be1f09","
    <div id=""grid-container"">
        <!-- Grid items will be dynamically added here -->
    </div>    ","null","","","","","","","","","","","",""
"","null","html-keyboard-response","129","190618","0.0-11.0-0.13","FgJpACckK7","5e5de7a9151524109818ad6a","6617fad957f7c6a12ea16e26","6622cdf02dd9c81832be1f09","fixation cross","null","","","","","","","","","","","",""
"","811","html-keyboard-response","130","191430","0.0-11.0-1.13","FgJpACckK7","5e5de7a9151524109818ad6a","6617fad957f7c6a12ea16e26","6622cdf02dd9c81832be1f09","image grid","q","","","","","Ontogenetic_Distractor_Threat_target","ongrid","2500","q","1","Ontogenetic","true","experimental"
"","null","html-keyboard-response","131","191592","0.0-11.0-2.13","FgJpACckK7","5e5de7a9151524109818ad6a","6617fad957f7c6a12ea16e26","6622cdf02dd9c81832be1f09","
    <div id=""grid-container"">
        <!-- Grid items will be dynamically added here -->
    </div>    ","null","","","","","","","","","","","",""
"","null","html-keyboard-response","132","192318","0.0-11.0-0.14","FgJpACckK7","5e5de7a9151524109818ad6a","6617fad957f7c6a12ea16e26","6622cdf02dd9c81832be1f09","fixation cross","null","","","","","","","","","","","",""
"","1814","html-keyboard-response","133","194133","0.0-11.0-1.14","FgJpACckK7","5e5de7a9151524109818ad6a","6617fad957f7c6a12ea16e26","6622cdf02dd9c81832be1f09","image grid","p","","","","","Ontogenetic_Distractor_Nonthreat_target","ongrid","2500","p","9","Ontogenetic","true","experimental"
"","null","html-keyboard-response","134","194298","0.0-11.0-2.14","FgJpACckK7","5e5de7a9151524109818ad6a","6617fad957f7c6a12ea16e26","6622cdf02dd9c81832be1f09","
    <div id=""grid-container"">
        <!-- Grid items will be dynamically added here -->
    </div>    ","null","","","","","","","","","","","",""
"","null","html-keyboard-response","135","195012","0.0-11.0-0.15","FgJpACckK7","5e5de7a9151524109818ad6a","6617fad957f7c6a12ea16e26","6622cdf02dd9c81832be1f09","fixation cross","null","","","","","","","","","","","",""
"","790","html-keyboard-response","136","195803","0.0-11.0-1.15","FgJpACckK7","5e5de7a9151524109818ad6a","6617fad957f7c6a12ea16e26","6622cdf02dd9c81832be1f09","image grid","q","","","","","Ontogenetic_Distractor_Threat_target","ongrid","2500","q","7","Ontogenetic","true","experimental"
"","null","html-keyboard-response","137","195970","0.0-11.0-2.15","FgJpACckK7","5e5de7a9151524109818ad6a","6617fad957f7c6a12ea16e26","6622cdf02dd9c81832be1f09","
    <div id=""grid-container"">
        <!-- Grid items will be dynamically added here -->
    </div>    ","null","","","","","","","","","","","",""
"","null","html-keyboard-response","138","196688","0.0-11.0-0.16","FgJpACckK7","5e5de7a9151524109818ad6a","6617fad957f7c6a12ea16e26","6622cdf02dd9c81832be1f09","fixation cross","null","","","","","","","","","","","",""
"","1069","html-keyboard-response","139","197758","0.0-11.0-1.16","FgJpACckK7","5e5de7a9151524109818ad6a","6617fad957f7c6a12ea16e26","6622cdf02dd9c81832be1f09","image grid","q","","","","","Ontogenetic_Distractor_Threat_target","ongrid","2500","q","5","Ontogenetic","true","experimental"
"","null","html-keyboard-response","140","197916","0.0-11.0-2.16","FgJpACckK7","5e5de7a9151524109818ad6a","6617fad957f7c6a12ea16e26","6622cdf02dd9c81832be1f09","
    <div id=""grid-container"">
        <!-- Grid items will be dynamically added here -->
    </div>    ","null","","","","","","","","","","","",""
"","null","html-keyboard-response","141","198627","0.0-11.0-0.17","FgJpACckK7","5e5de7a9151524109818ad6a","6617fad957f7c6a12ea16e26","6622cdf02dd9c81832be1f09","fixation cross","null","","","","","","","","","","","",""
"","754","html-keyboard-response","142","199383","0.0-11.0-1.17","FgJpACckK7","5e5de7a9151524109818ad6a","6617fad957f7c6a12ea16e26","6622cdf02dd9c81832be1f09","image grid","q","","","","","Ontogenetic_Distractor_Threat_target","ongrid","2500","q","1","Ontogenetic","true","experimental"
"","null","html-keyboard-response","143","199536","0.0-11.0-2.17","FgJpACckK7","5e5de7a9151524109818ad6a","6617fad957f7c6a12ea16e26","6622cdf02dd9c81832be1f09","
    <div id=""grid-container"">
        <!-- Grid items will be dynamically added here -->
    </div>    ","null","","","","","","","","","","","",""
"","null","html-keyboard-response","144","200249","0.0-11.0-0.18","FgJpACckK7","5e5de7a9151524109818ad6a","6617fad957f7c6a12ea16e26","6622cdf02dd9c81832be1f09","fixation cross","null","","","","","","","","","","","",""
"","1941","html-keyboard-response","145","202191","0.0-11.0-1.18","FgJpACckK7","5e5de7a9151524109818ad6a","6617fad957f7c6a12ea16e26","6622cdf02dd9c81832be1f09","image grid","p","","","","","Ontogenetic_Distractor_Nonthreat_target","ongrid","2500","p","4","Ontogenetic","true","experimental"
"","null","html-keyboard-response","146","202345","0.0-11.0-2.18","FgJpACckK7","5e5de7a9151524109818ad6a","6617fad957f7c6a12ea16e26","6622cdf02dd9c81832be1f09","
    <div id=""grid-container"">
        <!-- Grid items will be dynamically added here -->
    </div>    ","null","","","","","","","","","","","",""
"","null","html-keyboard-response","147","203061","0.0-11.0-0.19","FgJpACckK7","5e5de7a9151524109818ad6a","6617fad957f7c6a12ea16e26","6622cdf02dd9c81832be1f09","fixation cross","null","","","","","","","","","","","",""
"","2001","html-keyboard-response","148","205064","0.0-11.0-1.19","FgJpACckK7","5e5de7a9151524109818ad6a","6617fad957f7c6a12ea16e26","6622cdf02dd9c81832be1f09","image grid","p","","","","","Ontogenetic_Distractor_notarget","ongrid","2500"," ","1","Ontogenetic","false","experimental"
"","null","html-keyboard-response","149","205219","0.0-11.0-2.19","FgJpACckK7","5e5de7a9151524109818ad6a","6617fad957f7c6a12ea16e26","6622cdf02dd9c81832be1f09","
    <div id=""grid-container"">
        <!-- Grid items will be dynamically added here -->
    </div>    ","null","","","","","","","","","","","",""
"","null","html-keyboard-response","150","205924","0.0-11.0-0.20","FgJpACckK7","5e5de7a9151524109818ad6a","6617fad957f7c6a12ea16e26","6622cdf02dd9c81832be1f09","fixation cross","null","","","","","","","","","","","",""
"","2293","html-keyboard-response","151","208218","0.0-11.0-1.20","FgJpACckK7","5e5de7a9151524109818ad6a","6617fad957f7c6a12ea16e26","6622cdf02dd9c81832be1f09","image grid","p","","","","","Ontogenetic_Distractor_Nonthreat_target","ongrid","2500","p","8","Ontogenetic","true","experimental"
"","null","html-keyboard-response","152","208373","0.0-11.0-2.20","FgJpACckK7","5e5de7a9151524109818ad6a","6617fad957f7c6a12ea16e26","6622cdf02dd9c81832be1f09","
    <div id=""grid-container"">
        <!-- Grid items will be dynamically added here -->
    </div>    ","null","","","","","","","","","","","",""
"","null","html-keyboard-response","153","209097","0.0-11.0-0.21","FgJpACckK7","5e5de7a9151524109818ad6a","6617fad957f7c6a12ea16e26","6622cdf02dd9c81832be1f09","fixation cross","null","","","","","","","","","","","",""
"","889","html-keyboard-response","154","209987","0.0-11.0-1.21","FgJpACckK7","5e5de7a9151524109818ad6a","6617fad957f7c6a12ea16e26","6622cdf02dd9c81832be1f09","image grid","q","","","","","Ontogenetic_Distractor_Threat_target","ongrid","2500","q","8","Ontogenetic","true","experimental"
"","null","html-keyboard-response","155","210142","0.0-11.0-2.21","FgJpACckK7","5e5de7a9151524109818ad6a","6617fad957f7c6a12ea16e26","6622cdf02dd9c81832be1f09","
    <div id=""grid-container"">
        <!-- Grid items will be dynamically added here -->
    </div>    ","null","","","","","","","","","","","",""
"","null","html-keyboard-response","156","210858","0.0-11.0-0.22","FgJpACckK7","5e5de7a9151524109818ad6a","6617fad957f7c6a12ea16e26","6622cdf02dd9c81832be1f09","fixation cross","null","","","","","","","","","","","",""
"","2043","html-keyboard-response","157","212901","0.0-11.0-1.22","FgJpACckK7","5e5de7a9151524109818ad6a","6617fad957f7c6a12ea16e26","6622cdf02dd9c81832be1f09","image grid","p","","","","","Ontogenetic_Distractor_Nonthreat_target","ongrid","2500","p","4","Ontogenetic","true","experimental"
"","null","html-keyboard-response","158","213068","0.0-11.0-2.22","FgJpACckK7","5e5de7a9151524109818ad6a","6617fad957f7c6a12ea16e26","6622cdf02dd9c81832be1f09","
    <div id=""grid-container"">
        <!-- Grid items will be dynamically added here -->
    </div>    ","null","","","","","","","","","","","",""
"","null","html-keyboard-response","159","213787","0.0-11.0-0.23","FgJpACckK7","5e5de7a9151524109818ad6a","6617fad957f7c6a12ea16e26","6622cdf02dd9c81832be1f09","fixation cross","null","","","","","","","","","","","",""
"","827","html-keyboard-response","160","214615","0.0-11.0-1.23","FgJpACckK7","5e5de7a9151524109818ad6a","6617fad957f7c6a12ea16e26","6622cdf02dd9c81832be1f09","image grid","q","","","","","Ontogenetic_Distractor_Threat_target","ongrid","2500","q","6","Ontogenetic","true","experimental"
"","null","html-keyboard-response","161","214772","0.0-11.0-2.23","FgJpACckK7","5e5de7a9151524109818ad6a","6617fad957f7c6a12ea16e26","6622cdf02dd9c81832be1f09","
    <div id=""grid-container"">
        <!-- Grid items will be dynamically added here -->
    </div>    ","null","","","","","","","","","","","",""
"","null","html-keyboard-response","162","215485","0.0-11.0-0.24","FgJpACckK7","5e5de7a9151524109818ad6a","6617fad957f7c6a12ea16e26","6622cdf02dd9c81832be1f09","fixation cross","null","","","","","","","","","","","",""
"","639","html-keyboard-response","163","216125","0.0-11.0-1.24","FgJpACckK7","5e5de7a9151524109818ad6a","6617fad957f7c6a12ea16e26","6622cdf02dd9c81832be1f09","image grid","q","","","","","Ontogenetic_Distractor_Threat_target","ongrid","2500","q","5","Ontogenetic","true","experimental"
"","null","html-keyboard-response","164","216282","0.0-11.0-2.24","FgJpACckK7","5e5de7a9151524109818ad6a","6617fad957f7c6a12ea16e26","6622cdf02dd9c81832be1f09","
    <div id=""grid-container"">
        <!-- Grid items will be dynamically added here -->
    </div>    ","null","","","","","","","","","","","",""
"","null","html-keyboard-response","165","217006","0.0-11.0-0.25","FgJpACckK7","5e5de7a9151524109818ad6a","6617fad957f7c6a12ea16e26","6622cdf02dd9c81832be1f09","fixation cross","null","","","","","","","","","","","",""
"","642","html-keyboard-response","166","217649","0.0-11.0-1.25","FgJpACckK7","5e5de7a9151524109818ad6a","6617fad957f7c6a12ea16e26","6622cdf02dd9c81832be1f09","image grid","q","","","","","Ontogenetic_Distractor_Threat_target","ongrid","2500","q","2","Ontogenetic","true","experimental"
"","null","html-keyboard-response","167","217812","0.0-11.0-2.25","FgJpACckK7","5e5de7a9151524109818ad6a","6617fad957f7c6a12ea16e26","6622cdf02dd9c81832be1f09","
    <div id=""grid-container"">
        <!-- Grid items will be dynamically added here -->
    </div>    ","null","","","","","","","","","","","",""
"","null","html-keyboard-response","168","218542","0.0-11.0-0.26","FgJpACckK7","5e5de7a9151524109818ad6a","6617fad957f7c6a12ea16e26","6622cdf02dd9c81832be1f09","fixation cross","null","","","","","","","","","","","",""
"","2085","html-keyboard-response","169","220628","0.0-11.0-1.26","FgJpACckK7","5e5de7a9151524109818ad6a","6617fad957f7c6a12ea16e26","6622cdf02dd9c81832be1f09","image grid","p","","","","","Ontogenetic_Distractor_Nonthreat_target","ongrid","2500","p","9","Ontogenetic","true","experimental"
"","null","html-keyboard-response","170","220788","0.0-11.0-2.26","FgJpACckK7","5e5de7a9151524109818ad6a","6617fad957f7c6a12ea16e26","6622cdf02dd9c81832be1f09","
    <div id=""grid-container"">
        <!-- Grid items will be dynamically added here -->
    </div>    ","null","","","","","","","","","","","",""
"","null","html-keyboard-response","171","221493","0.0-11.0-0.27","FgJpACckK7","5e5de7a9151524109818ad6a","6617fad957f7c6a12ea16e26","6622cdf02dd9c81832be1f09","fixation cross","null","","","","","","","","","","","",""
"","844","html-keyboard-response","172","222338","0.0-11.0-1.27","FgJpACckK7","5e5de7a9151524109818ad6a","6617fad957f7c6a12ea16e26","6622cdf02dd9c81832be1f09","image grid","q","","","","","Ontogenetic_Distractor_Threat_target","ongrid","2500","q","4","Ontogenetic","true","experimental"
"","null","html-keyboard-response","173","222491","0.0-11.0-2.27","FgJpACckK7","5e5de7a9151524109818ad6a","6617fad957f7c6a12ea16e26","6622cdf02dd9c81832be1f09","
    <div id=""grid-container"">
        <!-- Grid items will be dynamically added here -->
    </div>    ","null","","","","","","","","","","","",""
"","null","html-keyboard-response","174","223204","0.0-11.0-0.28","FgJpACckK7","5e5de7a9151524109818ad6a","6617fad957f7c6a12ea16e26","6622cdf02dd9c81832be1f09","fixation cross","null","","","","","","","","","","","",""
"","1890","html-keyboard-response","175","225095","0.0-11.0-1.28","FgJpACckK7","5e5de7a9151524109818ad6a","6617fad957f7c6a12ea16e26","6622cdf02dd9c81832be1f09","image grid","p","","","","","Ontogenetic_Distractor_Nonthreat_target","ongrid","2500","p","3","Ontogenetic","true","experimental"
"","null","html-keyboard-response","176","225250","0.0-11.0-2.28","FgJpACckK7","5e5de7a9151524109818ad6a","6617fad957f7c6a12ea16e26","6622cdf02dd9c81832be1f09","
    <div id=""grid-container"">
        <!-- Grid items will be dynamically added here -->
    </div>    ","null","","","","","","","","","","","",""
"","null","html-keyboard-response","177","225961","0.0-11.0-0.29","FgJpACckK7","5e5de7a9151524109818ad6a","6617fad957f7c6a12ea16e26","6622cdf02dd9c81832be1f09","fixation cross","null","","","","","","","","","","","",""
"","737","html-keyboard-response","178","226699","0.0-11.0-1.29","FgJpACckK7","5e5de7a9151524109818ad6a","6617fad957f7c6a12ea16e26","6622cdf02dd9c81832be1f09","image grid","q","","","","","Ontogenetic_Distractor_Threat_target","ongrid","2500","q","6","Ontogenetic","true","experimental"
"","null","html-keyboard-response","179","226863","0.0-11.0-2.29","FgJpACckK7","5e5de7a9151524109818ad6a","6617fad957f7c6a12ea16e26","6622cdf02dd9c81832be1f09","
    <div id=""grid-container"">
        <!-- Grid items will be dynamically added here -->
    </div>    ","null","","","","","","","","","","","",""
"","null","html-keyboard-response","180","227579","0.0-11.0-0.30","FgJpACckK7","5e5de7a9151524109818ad6a","6617fad957f7c6a12ea16e26","6622cdf02dd9c81832be1f09","fixation cross","null","","","","","","","","","","","",""
"","1371","html-keyboard-response","181","228951","0.0-11.0-1.30","FgJpACckK7","5e5de7a9151524109818ad6a","6617fad957f7c6a12ea16e26","6622cdf02dd9c81832be1f09","image grid","p","","","","","Ontogenetic_Distractor_Nonthreat_target","ongrid","2500","p","3","Ontogenetic","true","experimental"
"","null","html-keyboard-response","182","229112","0.0-11.0-2.30","FgJpACckK7","5e5de7a9151524109818ad6a","6617fad957f7c6a12ea16e26","6622cdf02dd9c81832be1f09","
    <div id=""grid-container"">
        <!-- Grid items will be dynamically added here -->
    </div>    ","null","","","","","","","","","","","",""
"","null","html-keyboard-response","183","229828","0.0-11.0-0.31","FgJpACckK7","5e5de7a9151524109818ad6a","6617fad957f7c6a12ea16e26","6622cdf02dd9c81832be1f09","fixation cross","null","","","","","","","","","","","",""
"","null","html-keyboard-response","184","232339","0.0-11.0-1.31","FgJpACckK7","5e5de7a9151524109818ad6a","6617fad957f7c6a12ea16e26","6622cdf02dd9c81832be1f09","
        <div id=""grid-container"">
        <!-- Grid items will be dynamically added here -->
    </div>    ","null","","","","","","","","","","","",""
"","3733","html-keyboard-response","185","233574","0.0-11.0-2.31","FgJpACckK7","5e5de7a9151524109818ad6a","6617fad957f7c6a12ea16e26","6622cdf02dd9c81832be1f09","mask grid","p","","","","","Ontogenetic_Distractor_notarget","onmask","2500"," ","3","Ontogenetic","false","experimental"
"","null","html-keyboard-response","186","234280","0.0-11.0-0.32","FgJpACckK7","5e5de7a9151524109818ad6a","6617fad957f7c6a12ea16e26","6622cdf02dd9c81832be1f09","fixation cross","null","","","","","","","","","","","",""
"","1388","html-keyboard-response","187","235669","0.0-11.0-1.32","FgJpACckK7","5e5de7a9151524109818ad6a","6617fad957f7c6a12ea16e26","6622cdf02dd9c81832be1f09","image grid","p","","","","","Ontogenetic_Distractor_Nonthreat_target","ongrid","2500","p","9","Ontogenetic","true","experimental"
"","null","html-keyboard-response","188","235828","0.0-11.0-2.32","FgJpACckK7","5e5de7a9151524109818ad6a","6617fad957f7c6a12ea16e26","6622cdf02dd9c81832be1f09","
    <div id=""grid-container"">
        <!-- Grid items will be dynamically added here -->
    </div>    ","null","","","","","","","","","","","",""
"","null","html-keyboard-response","189","236539","0.0-11.0-0.33","FgJpACckK7","5e5de7a9151524109818ad6a","6617fad957f7c6a12ea16e26","6622cdf02dd9c81832be1f09","fixation cross","null","","","","","","","","","","","",""
"","559","html-keyboard-response","190","237099","0.0-11.0-1.33","FgJpACckK7","5e5de7a9151524109818ad6a","6617fad957f7c6a12ea16e26","6622cdf02dd9c81832be1f09","image grid","q","","","","","Ontogenetic_Distractor_Threat_target","ongrid","2500","q","5","Ontogenetic","true","experimental"
"","null","html-keyboard-response","191","237258","0.0-11.0-2.33","FgJpACckK7","5e5de7a9151524109818ad6a","6617fad957f7c6a12ea16e26","6622cdf02dd9c81832be1f09","
    <div id=""grid-container"">
        <!-- Grid items will be dynamically added here -->
    </div>    ","null","","","","","","","","","","","",""
"","null","html-keyboard-response","192","237984","0.0-11.0-0.34","FgJpACckK7","5e5de7a9151524109818ad6a","6617fad957f7c6a12ea16e26","6622cdf02dd9c81832be1f09","fixation cross","null","","","","","","","","","","","",""
"","1340","html-keyboard-response","193","239325","0.0-11.0-1.34","FgJpACckK7","5e5de7a9151524109818ad6a","6617fad957f7c6a12ea16e26","6622cdf02dd9c81832be1f09","image grid","q","","","","","Ontogenetic_Distractor_Threat_target","ongrid","2500","q","2","Ontogenetic","true","experimental"
"","null","html-keyboard-response","194","239477","0.0-11.0-2.34","FgJpACckK7","5e5de7a9151524109818ad6a","6617fad957f7c6a12ea16e26","6622cdf02dd9c81832be1f09","
    <div id=""grid-container"">
        <!-- Grid items will be dynamically added here -->
    </div>    ","null","","","","","","","","","","","",""
"","null","html-keyboard-response","195","240190","0.0-11.0-0.35","FgJpACckK7","5e5de7a9151524109818ad6a","6617fad957f7c6a12ea16e26","6622cdf02dd9c81832be1f09","fixation cross","null","","","","","","","","","","","",""
"","1246","html-keyboard-response","196","241436","0.0-11.0-1.35","FgJpACckK7","5e5de7a9151524109818ad6a","6617fad957f7c6a12ea16e26","6622cdf02dd9c81832be1f09","image grid","p","","","","","Ontogenetic_Distractor_Nonthreat_target","ongrid","2500","p","6","Ontogenetic","true","experimental"
"","null","html-keyboard-response","197","241590","0.0-11.0-2.35","FgJpACckK7","5e5de7a9151524109818ad6a","6617fad957f7c6a12ea16e26","6622cdf02dd9c81832be1f09","
    <div id=""grid-container"">
        <!-- Grid items will be dynamically added here -->
    </div>    ","null","","","","","","","","","","","",""
"","null","html-keyboard-response","198","242303","0.0-11.0-0.36","FgJpACckK7","5e5de7a9151524109818ad6a","6617fad957f7c6a12ea16e26","6622cdf02dd9c81832be1f09","fixation cross","null","","","","","","","","","","","",""
"","1716","html-keyboard-response","199","244020","0.0-11.0-1.36","FgJpACckK7","5e5de7a9151524109818ad6a","6617fad957f7c6a12ea16e26","6622cdf02dd9c81832be1f09","image grid","p","","","","","Ontogenetic_Distractor_Nonthreat_target","ongrid","2500","p","1","Ontogenetic","true","experimental"
"","null","html-keyboard-response","200","244173","0.0-11.0-2.36","FgJpACckK7","5e5de7a9151524109818ad6a","6617fad957f7c6a12ea16e26","6622cdf02dd9c81832be1f09","
    <div id=""grid-container"">
        <!-- Grid items will be dynamically added here -->
    </div>    ","null","","","","","","","","","","","",""
"","null","html-keyboard-response","201","244887","0.0-11.0-0.37","FgJpACckK7","5e5de7a9151524109818ad6a","6617fad957f7c6a12ea16e26","6622cdf02dd9c81832be1f09","fixation cross","null","","","","","","","","","","","",""
"","881","html-keyboard-response","202","245769","0.0-11.0-1.37","FgJpACckK7","5e5de7a9151524109818ad6a","6617fad957f7c6a12ea16e26","6622cdf02dd9c81832be1f09","image grid","q","","","","","Ontogenetic_Distractor_Threat_target","ongrid","2500","q","9","Ontogenetic","true","experimental"
"","null","html-keyboard-response","203","245929","0.0-11.0-2.37","FgJpACckK7","5e5de7a9151524109818ad6a","6617fad957f7c6a12ea16e26","6622cdf02dd9c81832be1f09","
    <div id=""grid-container"">
        <!-- Grid items will be dynamically added here -->
    </div>    ","null","","","","","","","","","","","",""
"","null","html-keyboard-response","204","246650","0.0-11.0-0.38","FgJpACckK7","5e5de7a9151524109818ad6a","6617fad957f7c6a12ea16e26","6622cdf02dd9c81832be1f09","fixation cross","null","","","","","","","","","","","",""
"","1725","html-keyboard-response","205","248376","0.0-11.0-1.38","FgJpACckK7","5e5de7a9151524109818ad6a","6617fad957f7c6a12ea16e26","6622cdf02dd9c81832be1f09","image grid","p","","","","","Ontogenetic_Distractor_Nonthreat_target","ongrid","2500","p","2","Ontogenetic","true","experimental"
"","null","html-keyboard-response","206","248530","0.0-11.0-2.38","FgJpACckK7","5e5de7a9151524109818ad6a","6617fad957f7c6a12ea16e26","6622cdf02dd9c81832be1f09","
    <div id=""grid-container"">
        <!-- Grid items will be dynamically added here -->
    </div>    ","null","","","","","","","","","","","",""
"","null","html-keyboard-response","207","249234","0.0-11.0-0.39","FgJpACckK7","5e5de7a9151524109818ad6a","6617fad957f7c6a12ea16e26","6622cdf02dd9c81832be1f09","fixation cross","null","","","","","","","","","","","",""
"","666","html-keyboard-response","208","249900","0.0-11.0-1.39","FgJpACckK7","5e5de7a9151524109818ad6a","6617fad957f7c6a12ea16e26","6622cdf02dd9c81832be1f09","image grid","q","","","","","Ontogenetic_Distractor_Threat_target","ongrid","2500","q","3","Ontogenetic","true","experimental"
"","null","html-keyboard-response","209","250067","0.0-11.0-2.39","FgJpACckK7","5e5de7a9151524109818ad6a","6617fad957f7c6a12ea16e26","6622cdf02dd9c81832be1f09","
    <div id=""grid-container"">
        <!-- Grid items will be dynamically added here -->
    </div>    ","null","","","","","","","","","","","",""
"","16771","html-keyboard-response","210","267097","0.0-12.0","FgJpACckK7","5e5de7a9151524109818ad6a","6617fad957f7c6a12ea16e26","6622cdf02dd9c81832be1f09","break screen"," ","","","","","","","","","","","",""
"","null","html-keyboard-response","211","269669","0.0-13.0-0.0","FgJpACckK7","5e5de7a9151524109818ad6a","6617fad957f7c6a12ea16e26","6622cdf02dd9c81832be1f09","fixation cross","null","","","","","","","","","","","",""
"","1508","html-keyboard-response","212","271178","0.0-13.0-1.0","FgJpACckK7","5e5de7a9151524109818ad6a","6617fad957f7c6a12ea16e26","6622cdf02dd9c81832be1f09","image grid","p","","","","","Phylogenetic_Distractor_Nonthreat_target","ongrid","2500","p","9","Phylogenetic","true","experimental"
"","null","html-keyboard-response","213","271335","0.0-13.0-2.0","FgJpACckK7","5e5de7a9151524109818ad6a","6617fad957f7c6a12ea16e26","6622cdf02dd9c81832be1f09","
    <div id=""grid-container"">
        <!-- Grid items will be dynamically added here -->
    </div>    ","null","","","","","","","","","","","",""
"","null","html-keyboard-response","214","272046","0.0-13.0-0.1","FgJpACckK7","5e5de7a9151524109818ad6a","6617fad957f7c6a12ea16e26","6622cdf02dd9c81832be1f09","fixation cross","null","","","","","","","","","","","",""
"","null","html-keyboard-response","215","274555","0.0-13.0-1.1","FgJpACckK7","5e5de7a9151524109818ad6a","6617fad957f7c6a12ea16e26","6622cdf02dd9c81832be1f09","
        <div id=""grid-container"">
        <!-- Grid items will be dynamically added here -->
    </div>    ","null","","","","","","","","","","","",""
"","2547","html-keyboard-response","216","274602","0.0-13.0-2.1","FgJpACckK7","5e5de7a9151524109818ad6a","6617fad957f7c6a12ea16e26","6622cdf02dd9c81832be1f09","mask grid","p","","","","","Phylogenetic_Distractor_Nonthreat_target","onmask","2500","p","7","Phylogenetic","true","experimental"
"","null","html-keyboard-response","217","275332","0.0-13.0-0.2","FgJpACckK7","5e5de7a9151524109818ad6a","6617fad957f7c6a12ea16e26","6622cdf02dd9c81832be1f09","fixation cross","null","","","","","","","","","","","",""
"","1477","html-keyboard-response","218","276810","0.0-13.0-1.2","FgJpACckK7","5e5de7a9151524109818ad6a","6617fad957f7c6a12ea16e26","6622cdf02dd9c81832be1f09","image grid","q","","","","","Phylogenetic_Distractor_Threat_target","ongrid","2500","q","8","Phylogenetic","true","experimental"
"","null","html-keyboard-response","219","276962","0.0-13.0-2.2","FgJpACckK7","5e5de7a9151524109818ad6a","6617fad957f7c6a12ea16e26","6622cdf02dd9c81832be1f09","
    <div id=""grid-container"">
        <!-- Grid items will be dynamically added here -->
    </div>    ","null","","","","","","","","","","","",""
"","null","html-keyboard-response","220","277676","0.0-13.0-0.3","FgJpACckK7","5e5de7a9151524109818ad6a","6617fad957f7c6a12ea16e26","6622cdf02dd9c81832be1f09","fixation cross","null","","","","","","","","","","","",""
"","587","html-keyboard-response","221","278264","0.0-13.0-1.3","FgJpACckK7","5e5de7a9151524109818ad6a","6617fad957f7c6a12ea16e26","6622cdf02dd9c81832be1f09","image grid","q","","","","","Phylogenetic_Distractor_Threat_target","ongrid","2500","q","2","Phylogenetic","true","experimental"
"","null","html-keyboard-response","222","278424","0.0-13.0-2.3","FgJpACckK7","5e5de7a9151524109818ad6a","6617fad957f7c6a12ea16e26","6622cdf02dd9c81832be1f09","
    <div id=""grid-container"">
        <!-- Grid items will be dynamically added here -->
    </div>    ","null","","","","","","","","","","","",""
"","null","html-keyboard-response","223","279142","0.0-13.0-0.4","FgJpACckK7","5e5de7a9151524109818ad6a","6617fad957f7c6a12ea16e26","6622cdf02dd9c81832be1f09","fixation cross","null","","","","","","","","","","","",""
"","1231","html-keyboard-response","224","280374","0.0-13.0-1.4","FgJpACckK7","5e5de7a9151524109818ad6a","6617fad957f7c6a12ea16e26","6622cdf02dd9c81832be1f09","image grid","p","","","","","Phylogenetic_Distractor_Nonthreat_target","ongrid","2500","p","9","Phylogenetic","true","experimental"
"","null","html-keyboard-response","225","280534","0.0-13.0-2.4","FgJpACckK7","5e5de7a9151524109818ad6a","6617fad957f7c6a12ea16e26","6622cdf02dd9c81832be1f09","
    <div id=""grid-container"">
        <!-- Grid items will be dynamically added here -->
    </div>    ","null","","","","","","","","","","","",""
"","null","html-keyboard-response","226","281259","0.0-13.0-0.5","FgJpACckK7","5e5de7a9151524109818ad6a","6617fad957f7c6a12ea16e26","6622cdf02dd9c81832be1f09","fixation cross","null","","","","","","","","","","","",""
"","745","html-keyboard-response","227","282005","0.0-13.0-1.5","FgJpACckK7","5e5de7a9151524109818ad6a","6617fad957f7c6a12ea16e26","6622cdf02dd9c81832be1f09","image grid","q","","","","","Phylogenetic_Distractor_Threat_target","ongrid","2500","q","6","Phylogenetic","true","experimental"
"","null","html-keyboard-response","228","282162","0.0-13.0-2.5","FgJpACckK7","5e5de7a9151524109818ad6a","6617fad957f7c6a12ea16e26","6622cdf02dd9c81832be1f09","
    <div id=""grid-container"">
        <!-- Grid items will be dynamically added here -->
    </div>    ","null","","","","","","","","","","","",""
"","null","html-keyboard-response","229","282880","0.0-13.0-0.6","FgJpACckK7","5e5de7a9151524109818ad6a","6617fad957f7c6a12ea16e26","6622cdf02dd9c81832be1f09","fixation cross","null","","","","","","","","","","","",""
"","587","html-keyboard-response","230","283468","0.0-13.0-1.6","FgJpACckK7","5e5de7a9151524109818ad6a","6617fad957f7c6a12ea16e26","6622cdf02dd9c81832be1f09","image grid","q","","","","","Phylogenetic_Distractor_Threat_target","ongrid","2500","q","3","Phylogenetic","true","experimental"
"","null","html-keyboard-response","231","283621","0.0-13.0-2.6","FgJpACckK7","5e5de7a9151524109818ad6a","6617fad957f7c6a12ea16e26","6622cdf02dd9c81832be1f09","
    <div id=""grid-container"">
        <!-- Grid items will be dynamically added here -->
    </div>    ","null","","","","","","","","","","","",""
"","null","html-keyboard-response","232","284332","0.0-13.0-0.7","FgJpACckK7","5e5de7a9151524109818ad6a","6617fad957f7c6a12ea16e26","6622cdf02dd9c81832be1f09","fixation cross","null","","","","","","","","","","","",""
"","636","html-keyboard-response","233","284968","0.0-13.0-1.7","FgJpACckK7","5e5de7a9151524109818ad6a","6617fad957f7c6a12ea16e26","6622cdf02dd9c81832be1f09","image grid","q","","","","","Phylogenetic_Distractor_Threat_target","ongrid","2500","q","7","Phylogenetic","true","experimental"
"","null","html-keyboard-response","234","285125","0.0-13.0-2.7","FgJpACckK7","5e5de7a9151524109818ad6a","6617fad957f7c6a12ea16e26","6622cdf02dd9c81832be1f09","
    <div id=""grid-container"">
        <!-- Grid items will be dynamically added here -->
    </div>    ","null","","","","","","","","","","","",""
"","null","html-keyboard-response","235","285833","0.0-13.0-0.8","FgJpACckK7","5e5de7a9151524109818ad6a","6617fad957f7c6a12ea16e26","6622cdf02dd9c81832be1f09","fixation cross","null","","","","","","","","","","","",""
"","463","html-keyboard-response","236","286297","0.0-13.0-1.8","FgJpACckK7","5e5de7a9151524109818ad6a","6617fad957f7c6a12ea16e26","6622cdf02dd9c81832be1f09","image grid","q","","","","","Phylogenetic_Distractor_Threat_target","ongrid","2500","q","4","Phylogenetic","true","experimental"
"","null","html-keyboard-response","237","286457","0.0-13.0-2.8","FgJpACckK7","5e5de7a9151524109818ad6a","6617fad957f7c6a12ea16e26","6622cdf02dd9c81832be1f09","
    <div id=""grid-container"">
        <!-- Grid items will be dynamically added here -->
    </div>    ","null","","","","","","","","","","","",""
"","null","html-keyboard-response","238","287191","0.0-13.0-0.9","FgJpACckK7","5e5de7a9151524109818ad6a","6617fad957f7c6a12ea16e26","6622cdf02dd9c81832be1f09","fixation cross","null","","","","","","","","","","","",""
"","2355","html-keyboard-response","239","289547","0.0-13.0-1.9","FgJpACckK7","5e5de7a9151524109818ad6a","6617fad957f7c6a12ea16e26","6622cdf02dd9c81832be1f09","image grid","p","","","","","Phylogenetic_Distractor_notarget","ongrid","2500"," ","8","Phylogenetic","false","experimental"
"","null","html-keyboard-response","240","289711","0.0-13.0-2.9","FgJpACckK7","5e5de7a9151524109818ad6a","6617fad957f7c6a12ea16e26","6622cdf02dd9c81832be1f09","
    <div id=""grid-container"">
        <!-- Grid items will be dynamically added here -->
    </div>    ","null","","","","","","","","","","","",""
"","null","html-keyboard-response","241","290427","0.0-13.0-0.10","FgJpACckK7","5e5de7a9151524109818ad6a","6617fad957f7c6a12ea16e26","6622cdf02dd9c81832be1f09","fixation cross","null","","","","","","","","","","","",""
"","2362","html-keyboard-response","242","292790","0.0-13.0-1.10","FgJpACckK7","5e5de7a9151524109818ad6a","6617fad957f7c6a12ea16e26","6622cdf02dd9c81832be1f09","image grid","p","","","","","Phylogenetic_Distractor_notarget","ongrid","2500"," ","7","Phylogenetic","false","experimental"
"","null","html-keyboard-response","243","292950","0.0-13.0-2.10","FgJpACckK7","5e5de7a9151524109818ad6a","6617fad957f7c6a12ea16e26","6622cdf02dd9c81832be1f09","
    <div id=""grid-container"">
        <!-- Grid items will be dynamically added here -->
    </div>    ","null","","","","","","","","","","","",""
"","null","html-keyboard-response","244","293673","0.0-13.0-0.11","FgJpACckK7","5e5de7a9151524109818ad6a","6617fad957f7c6a12ea16e26","6622cdf02dd9c81832be1f09","fixation cross","null","","","","","","","","","","","",""
"","null","html-keyboard-response","245","296188","0.0-13.0-1.11","FgJpACckK7","5e5de7a9151524109818ad6a","6617fad957f7c6a12ea16e26","6622cdf02dd9c81832be1f09","
        <div id=""grid-container"">
        <!-- Grid items will be dynamically added here -->
    </div>    ","null","","","","","","","","","","","",""
"","4758","html-keyboard-response","246","298447","0.0-13.0-2.11","FgJpACckK7","5e5de7a9151524109818ad6a","6617fad957f7c6a12ea16e26","6622cdf02dd9c81832be1f09","mask grid","p","","","","","Phylogenetic_Distractor_Nonthreat_target","onmask","2500","p","2","Phylogenetic","true","experimental"
"","null","html-keyboard-response","247","299165","0.0-13.0-0.12","FgJpACckK7","5e5de7a9151524109818ad6a","6617fad957f7c6a12ea16e26","6622cdf02dd9c81832be1f09","fixation cross","null","","","","","","","","","","","",""
"","614","html-keyboard-response","248","299781","0.0-13.0-1.12","FgJpACckK7","5e5de7a9151524109818ad6a","6617fad957f7c6a12ea16e26","6622cdf02dd9c81832be1f09","image grid","q","","","","","Phylogenetic_Distractor_Threat_target","ongrid","2500","q","3","Phylogenetic","true","experimental"
"","null","html-keyboard-response","249","299936","0.0-13.0-2.12","FgJpACckK7","5e5de7a9151524109818ad6a","6617fad957f7c6a12ea16e26","6622cdf02dd9c81832be1f09","
    <div id=""grid-container"">
        <!-- Grid items will be dynamically added here -->
    </div>    ","null","","","","","","","","","","","",""
"","null","html-keyboard-response","250","300652","0.0-13.0-0.13","FgJpACckK7","5e5de7a9151524109818ad6a","6617fad957f7c6a12ea16e26","6622cdf02dd9c81832be1f09","fixation cross","null","","","","","","","","","","","",""
"","2006","html-keyboard-response","251","302659","0.0-13.0-1.13","FgJpACckK7","5e5de7a9151524109818ad6a","6617fad957f7c6a12ea16e26","6622cdf02dd9c81832be1f09","image grid","p","","","","","Phylogenetic_Distractor_Nonthreat_target","ongrid","2500","p","2","Phylogenetic","true","experimental"
"","null","html-keyboard-response","252","302827","0.0-13.0-2.13","FgJpACckK7","5e5de7a9151524109818ad6a","6617fad957f7c6a12ea16e26","6622cdf02dd9c81832be1f09","
    <div id=""grid-container"">
        <!-- Grid items will be dynamically added here -->
    </div>    ","null","","","","","","","","","","","",""
"","null","html-keyboard-response","253","303537","0.0-13.0-0.14","FgJpACckK7","5e5de7a9151524109818ad6a","6617fad957f7c6a12ea16e26","6622cdf02dd9c81832be1f09","fixation cross","null","","","","","","","","","","","",""
"","717","html-keyboard-response","254","304255","0.0-13.0-1.14","FgJpACckK7","5e5de7a9151524109818ad6a","6617fad957f7c6a12ea16e26","6622cdf02dd9c81832be1f09","image grid","p","","","","","Phylogenetic_Distractor_Nonthreat_target","ongrid","2500","p","6","Phylogenetic","true","experimental"
"","null","html-keyboard-response","255","304417","0.0-13.0-2.14","FgJpACckK7","5e5de7a9151524109818ad6a","6617fad957f7c6a12ea16e26","6622cdf02dd9c81832be1f09","
    <div id=""grid-container"">
        <!-- Grid items will be dynamically added here -->
    </div>    ","null","","","","","","","","","","","",""
"","null","html-keyboard-response","256","305139","0.0-13.0-0.15","FgJpACckK7","5e5de7a9151524109818ad6a","6617fad957f7c6a12ea16e26","6622cdf02dd9c81832be1f09","fixation cross","null","","","","","","","","","","","",""
"","523","html-keyboard-response","257","305662","0.0-13.0-1.15","FgJpACckK7","5e5de7a9151524109818ad6a","6617fad957f7c6a12ea16e26","6622cdf02dd9c81832be1f09","image grid","q","","","","","Phylogenetic_Distractor_Threat_target","ongrid","2500","q","5","Phylogenetic","true","experimental"
"","null","html-keyboard-response","258","305816","0.0-13.0-2.15","FgJpACckK7","5e5de7a9151524109818ad6a","6617fad957f7c6a12ea16e26","6622cdf02dd9c81832be1f09","
    <div id=""grid-container"">
        <!-- Grid items will be dynamically added here -->
    </div>    ","null","","","","","","","","","","","",""
"","null","html-keyboard-response","259","306536","0.0-13.0-0.16","FgJpACckK7","5e5de7a9151524109818ad6a","6617fad957f7c6a12ea16e26","6622cdf02dd9c81832be1f09","fixation cross","null","","","","","","","","","","","",""
"","1699","html-keyboard-response","260","308236","0.0-13.0-1.16","FgJpACckK7","5e5de7a9151524109818ad6a","6617fad957f7c6a12ea16e26","6622cdf02dd9c81832be1f09","image grid","p","","","","","Phylogenetic_Distractor_Nonthreat_target","ongrid","2500","p","7","Phylogenetic","true","experimental"
"","null","html-keyboard-response","261","308396","0.0-13.0-2.16","FgJpACckK7","5e5de7a9151524109818ad6a","6617fad957f7c6a12ea16e26","6622cdf02dd9c81832be1f09","
    <div id=""grid-container"">
        <!-- Grid items will be dynamically added here -->
    </div>    ","null","","","","","","","","","","","",""
"","null","html-keyboard-response","262","309111","0.0-13.0-0.17","FgJpACckK7","5e5de7a9151524109818ad6a","6617fad957f7c6a12ea16e26","6622cdf02dd9c81832be1f09","fixation cross","null","","","","","","","","","","","",""
"","523","html-keyboard-response","263","309635","0.0-13.0-1.17","FgJpACckK7","5e5de7a9151524109818ad6a","6617fad957f7c6a12ea16e26","6622cdf02dd9c81832be1f09","image grid","q","","","","","Phylogenetic_Distractor_Threat_target","ongrid","2500","q","5","Phylogenetic","true","experimental"
"","null","html-keyboard-response","264","309788","0.0-13.0-2.17","FgJpACckK7","5e5de7a9151524109818ad6a","6617fad957f7c6a12ea16e26","6622cdf02dd9c81832be1f09","
    <div id=""grid-container"">
        <!-- Grid items will be dynamically added here -->
    </div>    ","null","","","","","","","","","","","",""
"","null","html-keyboard-response","265","310504","0.0-13.0-0.18","FgJpACckK7","5e5de7a9151524109818ad6a","6617fad957f7c6a12ea16e26","6622cdf02dd9c81832be1f09","fixation cross","null","","","","","","","","","","","",""
"","685","html-keyboard-response","266","311190","0.0-13.0-1.18","FgJpACckK7","5e5de7a9151524109818ad6a","6617fad957f7c6a12ea16e26","6622cdf02dd9c81832be1f09","image grid","q","","","","","Phylogenetic_Distractor_Threat_target","ongrid","2500","q","7","Phylogenetic","true","experimental"
"","null","html-keyboard-response","267","311343","0.0-13.0-2.18","FgJpACckK7","5e5de7a9151524109818ad6a","6617fad957f7c6a12ea16e26","6622cdf02dd9c81832be1f09","
    <div id=""grid-container"">
        <!-- Grid items will be dynamically added here -->
    </div>    ","null","","","","","","","","","","","",""
"","null","html-keyboard-response","268","312074","0.0-13.0-0.19","FgJpACckK7","5e5de7a9151524109818ad6a","6617fad957f7c6a12ea16e26","6622cdf02dd9c81832be1f09","fixation cross","null","","","","","","","","","","","",""
"","1475","html-keyboard-response","269","313544","0.0-13.0-1.19","FgJpACckK7","5e5de7a9151524109818ad6a","6617fad957f7c6a12ea16e26","6622cdf02dd9c81832be1f09","image grid","p","","","","","Phylogenetic_Distractor_notarget","ongrid","2500"," ","7","Phylogenetic","false","experimental"
"","null","html-keyboard-response","270","313701","0.0-13.0-2.19","FgJpACckK7","5e5de7a9151524109818ad6a","6617fad957f7c6a12ea16e26","6622cdf02dd9c81832be1f09","
    <div id=""grid-container"">
        <!-- Grid items will be dynamically added here -->
    </div>    ","null","","","","","","","","","","","",""
"","null","html-keyboard-response","271","314407","0.0-13.0-0.20","FgJpACckK7","5e5de7a9151524109818ad6a","6617fad957f7c6a12ea16e26","6622cdf02dd9c81832be1f09","fixation cross","null","","","","","","","","","","","",""
"","757","html-keyboard-response","272","315164","0.0-13.0-1.20","FgJpACckK7","5e5de7a9151524109818ad6a","6617fad957f7c6a12ea16e26","6622cdf02dd9c81832be1f09","image grid","q","","","","","Phylogenetic_Distractor_Threat_target","ongrid","2500","q","8","Phylogenetic","true","experimental"
"","null","html-keyboard-response","273","315321","0.0-13.0-2.20","FgJpACckK7","5e5de7a9151524109818ad6a","6617fad957f7c6a12ea16e26","6622cdf02dd9c81832be1f09","
    <div id=""grid-container"">
        <!-- Grid items will be dynamically added here -->
    </div>    ","null","","","","","","","","","","","",""
"","null","html-keyboard-response","274","316032","0.0-13.0-0.21","FgJpACckK7","5e5de7a9151524109818ad6a","6617fad957f7c6a12ea16e26","6622cdf02dd9c81832be1f09","fixation cross","null","","","","","","","","","","","",""
"","725","html-keyboard-response","275","316758","0.0-13.0-1.21","FgJpACckK7","5e5de7a9151524109818ad6a","6617fad957f7c6a12ea16e26","6622cdf02dd9c81832be1f09","image grid","q","","","","","Phylogenetic_Distractor_Threat_target","ongrid","2500","q","3","Phylogenetic","true","experimental"
"","null","html-keyboard-response","276","316917","0.0-13.0-2.21","FgJpACckK7","5e5de7a9151524109818ad6a","6617fad957f7c6a12ea16e26","6622cdf02dd9c81832be1f09","
    <div id=""grid-container"">
        <!-- Grid items will be dynamically added here -->
    </div>    ","null","","","","","","","","","","","",""
"","null","html-keyboard-response","277","317636","0.0-13.0-0.22","FgJpACckK7","5e5de7a9151524109818ad6a","6617fad957f7c6a12ea16e26","6622cdf02dd9c81832be1f09","fixation cross","null","","","","","","","","","","","",""
"","1684","html-keyboard-response","278","319320","0.0-13.0-1.22","FgJpACckK7","5e5de7a9151524109818ad6a","6617fad957f7c6a12ea16e26","6622cdf02dd9c81832be1f09","image grid","p","","","","","Phylogenetic_Distractor_notarget","ongrid","2500"," ","7","Phylogenetic","false","experimental"
"","null","html-keyboard-response","279","319477","0.0-13.0-2.22","FgJpACckK7","5e5de7a9151524109818ad6a","6617fad957f7c6a12ea16e26","6622cdf02dd9c81832be1f09","
    <div id=""grid-container"">
        <!-- Grid items will be dynamically added here -->
    </div>    ","null","","","","","","","","","","","",""
"","null","html-keyboard-response","280","320194","0.0-13.0-0.23","FgJpACckK7","5e5de7a9151524109818ad6a","6617fad957f7c6a12ea16e26","6622cdf02dd9c81832be1f09","fixation cross","null","","","","","","","","","","","",""
"","450","html-keyboard-response","281","320645","0.0-13.0-1.23","FgJpACckK7","5e5de7a9151524109818ad6a","6617fad957f7c6a12ea16e26","6622cdf02dd9c81832be1f09","image grid","q","","","","","Phylogenetic_Distractor_Threat_target","ongrid","2500","q","5","Phylogenetic","true","experimental"
"","null","html-keyboard-response","282","320799","0.0-13.0-2.23","FgJpACckK7","5e5de7a9151524109818ad6a","6617fad957f7c6a12ea16e26","6622cdf02dd9c81832be1f09","
    <div id=""grid-container"">
        <!-- Grid items will be dynamically added here -->
    </div>    ","null","","","","","","","","","","","",""
"","null","html-keyboard-response","283","321513","0.0-13.0-0.24","FgJpACckK7","5e5de7a9151524109818ad6a","6617fad957f7c6a12ea16e26","6622cdf02dd9c81832be1f09","fixation cross","null","","","","","","","","","","","",""
"","1027","html-keyboard-response","284","322540","0.0-13.0-1.24","FgJpACckK7","5e5de7a9151524109818ad6a","6617fad957f7c6a12ea16e26","6622cdf02dd9c81832be1f09","image grid","p","","","","","Phylogenetic_Distractor_Nonthreat_target","ongrid","2500","p","7","Phylogenetic","true","experimental"
"","null","html-keyboard-response","285","322702","0.0-13.0-2.24","FgJpACckK7","5e5de7a9151524109818ad6a","6617fad957f7c6a12ea16e26","6622cdf02dd9c81832be1f09","
    <div id=""grid-container"">
        <!-- Grid items will be dynamically added here -->
    </div>    ","null","","","","","","","","","","","",""
"","null","html-keyboard-response","286","323424","0.0-13.0-0.25","FgJpACckK7","5e5de7a9151524109818ad6a","6617fad957f7c6a12ea16e26","6622cdf02dd9c81832be1f09","fixation cross","null","","","","","","","","","","","",""
"","635","html-keyboard-response","287","324059","0.0-13.0-1.25","FgJpACckK7","5e5de7a9151524109818ad6a","6617fad957f7c6a12ea16e26","6622cdf02dd9c81832be1f09","image grid","p","","","","","Phylogenetic_Distractor_Nonthreat_target","ongrid","2500","p","1","Phylogenetic","true","experimental"
"","null","html-keyboard-response","288","324219","0.0-13.0-2.25","FgJpACckK7","5e5de7a9151524109818ad6a","6617fad957f7c6a12ea16e26","6622cdf02dd9c81832be1f09","
    <div id=""grid-container"">
        <!-- Grid items will be dynamically added here -->
    </div>    ","null","","","","","","","","","","","",""
"","null","html-keyboard-response","289","324940","0.0-13.0-0.26","FgJpACckK7","5e5de7a9151524109818ad6a","6617fad957f7c6a12ea16e26","6622cdf02dd9c81832be1f09","fixation cross","null","","","","","","","","","","","",""
"","624","html-keyboard-response","290","325564","0.0-13.0-1.26","FgJpACckK7","5e5de7a9151524109818ad6a","6617fad957f7c6a12ea16e26","6622cdf02dd9c81832be1f09","image grid","q","","","","","Phylogenetic_Distractor_Threat_target","ongrid","2500","q","4","Phylogenetic","true","experimental"
"","null","html-keyboard-response","291","325728","0.0-13.0-2.26","FgJpACckK7","5e5de7a9151524109818ad6a","6617fad957f7c6a12ea16e26","6622cdf02dd9c81832be1f09","
    <div id=""grid-container"">
        <!-- Grid items will be dynamically added here -->
    </div>    ","null","","","","","","","","","","","",""
"","null","html-keyboard-response","292","326437","0.0-13.0-0.27","FgJpACckK7","5e5de7a9151524109818ad6a","6617fad957f7c6a12ea16e26","6622cdf02dd9c81832be1f09","fixation cross","null","","","","","","","","","","","",""
"","1137","html-keyboard-response","293","327575","0.0-13.0-1.27","FgJpACckK7","5e5de7a9151524109818ad6a","6617fad957f7c6a12ea16e26","6622cdf02dd9c81832be1f09","image grid","q","","","","","Phylogenetic_Distractor_Threat_target","ongrid","2500","q","8","Phylogenetic","true","experimental"
"","null","html-keyboard-response","294","327728","0.0-13.0-2.27","FgJpACckK7","5e5de7a9151524109818ad6a","6617fad957f7c6a12ea16e26","6622cdf02dd9c81832be1f09","
    <div id=""grid-container"">
        <!-- Grid items will be dynamically added here -->
    </div>    ","null","","","","","","","","","","","",""
"","null","html-keyboard-response","295","328441","0.0-13.0-0.28","FgJpACckK7","5e5de7a9151524109818ad6a","6617fad957f7c6a12ea16e26","6622cdf02dd9c81832be1f09","fixation cross","null","","","","","","","","","","","",""
"","933","html-keyboard-response","296","329375","0.0-13.0-1.28","FgJpACckK7","5e5de7a9151524109818ad6a","6617fad957f7c6a12ea16e26","6622cdf02dd9c81832be1f09","image grid","p","","","","","Phylogenetic_Distractor_Nonthreat_target","ongrid","2500","p","1","Phylogenetic","true","experimental"
"","null","html-keyboard-response","297","329537","0.0-13.0-2.28","FgJpACckK7","5e5de7a9151524109818ad6a","6617fad957f7c6a12ea16e26","6622cdf02dd9c81832be1f09","
    <div id=""grid-container"">
        <!-- Grid items will be dynamically added here -->
    </div>    ","null","","","","","","","","","","","",""
"","null","html-keyboard-response","298","330251","0.0-13.0-0.29","FgJpACckK7","5e5de7a9151524109818ad6a","6617fad957f7c6a12ea16e26","6622cdf02dd9c81832be1f09","fixation cross","null","","","","","","","","","","","",""
"","837","html-keyboard-response","299","331089","0.0-13.0-1.29","FgJpACckK7","5e5de7a9151524109818ad6a","6617fad957f7c6a12ea16e26","6622cdf02dd9c81832be1f09","image grid","p","","","","","Phylogenetic_Distractor_Nonthreat_target","ongrid","2500","p","9","Phylogenetic","true","experimental"
"","null","html-keyboard-response","300","331242","0.0-13.0-2.29","FgJpACckK7","5e5de7a9151524109818ad6a","6617fad957f7c6a12ea16e26","6622cdf02dd9c81832be1f09","
    <div id=""grid-container"">
        <!-- Grid items will be dynamically added here -->
    </div>    ","null","","","","","","","","","","","",""
"","null","html-keyboard-response","301","331947","0.0-13.0-0.30","FgJpACckK7","5e5de7a9151524109818ad6a","6617fad957f7c6a12ea16e26","6622cdf02dd9c81832be1f09","fixation cross","null","","","","","","","","","","","",""
"","456","html-keyboard-response","302","332404","0.0-13.0-1.30","FgJpACckK7","5e5de7a9151524109818ad6a","6617fad957f7c6a12ea16e26","6622cdf02dd9c81832be1f09","image grid","q","","","","","Phylogenetic_Distractor_Threat_target","ongrid","2500","q","2","Phylogenetic","true","experimental"
"","null","html-keyboard-response","303","332559","0.0-13.0-2.30","FgJpACckK7","5e5de7a9151524109818ad6a","6617fad957f7c6a12ea16e26","6622cdf02dd9c81832be1f09","
    <div id=""grid-container"">
        <!-- Grid items will be dynamically added here -->
    </div>    ","null","","","","","","","","","","","",""
"","null","html-keyboard-response","304","333270","0.0-13.0-0.31","FgJpACckK7","5e5de7a9151524109818ad6a","6617fad957f7c6a12ea16e26","6622cdf02dd9c81832be1f09","fixation cross","null","","","","","","","","","","","",""
"","887","html-keyboard-response","305","334158","0.0-13.0-1.31","FgJpACckK7","5e5de7a9151524109818ad6a","6617fad957f7c6a12ea16e26","6622cdf02dd9c81832be1f09","image grid","p","","","","","Phylogenetic_Distractor_Nonthreat_target","ongrid","2500","p","9","Phylogenetic","true","experimental"
"","null","html-keyboard-response","306","334320","0.0-13.0-2.31","FgJpACckK7","5e5de7a9151524109818ad6a","6617fad957f7c6a12ea16e26","6622cdf02dd9c81832be1f09","
    <div id=""grid-container"">
        <!-- Grid items will be dynamically added here -->
    </div>    ","null","","","","","","","","","","","",""
"","null","html-keyboard-response","307","335037","0.0-13.0-0.32","FgJpACckK7","5e5de7a9151524109818ad6a","6617fad957f7c6a12ea16e26","6622cdf02dd9c81832be1f09","fixation cross","null","","","","","","","","","","","",""
"","384","html-keyboard-response","308","335422","0.0-13.0-1.32","FgJpACckK7","5e5de7a9151524109818ad6a","6617fad957f7c6a12ea16e26","6622cdf02dd9c81832be1f09","image grid","q","","","","","Phylogenetic_Distractor_Threat_target","ongrid","2500","q","2","Phylogenetic","true","experimental"
"","null","html-keyboard-response","309","335577","0.0-13.0-2.32","FgJpACckK7","5e5de7a9151524109818ad6a","6617fad957f7c6a12ea16e26","6622cdf02dd9c81832be1f09","
    <div id=""grid-container"">
        <!-- Grid items will be dynamically added here -->
    </div>    ","null","","","","","","","","","","","",""
"","null","html-keyboard-response","310","336298","0.0-13.0-0.33","FgJpACckK7","5e5de7a9151524109818ad6a","6617fad957f7c6a12ea16e26","6622cdf02dd9c81832be1f09","fixation cross","null","","","","","","","","","","","",""
"","889","html-keyboard-response","311","337187","0.0-13.0-1.33","FgJpACckK7","5e5de7a9151524109818ad6a","6617fad957f7c6a12ea16e26","6622cdf02dd9c81832be1f09","image grid","p","","","","","Phylogenetic_Distractor_Nonthreat_target","ongrid","2500","p","1","Phylogenetic","true","experimental"
"","null","html-keyboard-response","312","337344","0.0-13.0-2.33","FgJpACckK7","5e5de7a9151524109818ad6a","6617fad957f7c6a12ea16e26","6622cdf02dd9c81832be1f09","
    <div id=""grid-container"">
        <!-- Grid items will be dynamically added here -->
    </div>    ","null","","","","","","","","","","","",""
"","null","html-keyboard-response","313","338071","0.0-13.0-0.34","FgJpACckK7","5e5de7a9151524109818ad6a","6617fad957f7c6a12ea16e26","6622cdf02dd9c81832be1f09","fixation cross","null","","","","","","","","","","","",""
"","976","html-keyboard-response","314","339048","0.0-13.0-1.34","FgJpACckK7","5e5de7a9151524109818ad6a","6617fad957f7c6a12ea16e26","6622cdf02dd9c81832be1f09","image grid","p","","","","","Phylogenetic_Distractor_Nonthreat_target","ongrid","2500","p","6","Phylogenetic","true","experimental"
"","null","html-keyboard-response","315","339201","0.0-13.0-2.34","FgJpACckK7","5e5de7a9151524109818ad6a","6617fad957f7c6a12ea16e26","6622cdf02dd9c81832be1f09","
    <div id=""grid-container"">
        <!-- Grid items will be dynamically added here -->
    </div>    ","null","","","","","","","","","","","",""
"","null","html-keyboard-response","316","339919","0.0-13.0-0.35","FgJpACckK7","5e5de7a9151524109818ad6a","6617fad957f7c6a12ea16e26","6622cdf02dd9c81832be1f09","fixation cross","null","","","","","","","","","","","",""
"","1355","html-keyboard-response","317","341274","0.0-13.0-1.35","FgJpACckK7","5e5de7a9151524109818ad6a","6617fad957f7c6a12ea16e26","6622cdf02dd9c81832be1f09","image grid","p","","","","","Phylogenetic_Distractor_Nonthreat_target","ongrid","2500","p","9","Phylogenetic","true","experimental"
"","null","html-keyboard-response","318","341439","0.0-13.0-2.35","FgJpACckK7","5e5de7a9151524109818ad6a","6617fad957f7c6a12ea16e26","6622cdf02dd9c81832be1f09","
    <div id=""grid-container"">
        <!-- Grid items will be dynamically added here -->
    </div>    ","null","","","","","","","","","","","",""
"","null","html-keyboard-response","319","342156","0.0-13.0-0.36","FgJpACckK7","5e5de7a9151524109818ad6a","6617fad957f7c6a12ea16e26","6622cdf02dd9c81832be1f09","fixation cross","null","","","","","","","","","","","",""
"","602","html-keyboard-response","320","342758","0.0-13.0-1.36","FgJpACckK7","5e5de7a9151524109818ad6a","6617fad957f7c6a12ea16e26","6622cdf02dd9c81832be1f09","image grid","p","","","","","Phylogenetic_Distractor_Nonthreat_target","ongrid","2500","p","5","Phylogenetic","true","experimental"
"","null","html-keyboard-response","321","342911","0.0-13.0-2.36","FgJpACckK7","5e5de7a9151524109818ad6a","6617fad957f7c6a12ea16e26","6622cdf02dd9c81832be1f09","
    <div id=""grid-container"">
        <!-- Grid items will be dynamically added here -->
    </div>    ","null","","","","","","","","","","","",""
"","null","html-keyboard-response","322","343635","0.0-13.0-0.37","FgJpACckK7","5e5de7a9151524109818ad6a","6617fad957f7c6a12ea16e26","6622cdf02dd9c81832be1f09","fixation cross","null","","","","","","","","","","","",""
"","958","html-keyboard-response","323","344594","0.0-13.0-1.37","FgJpACckK7","5e5de7a9151524109818ad6a","6617fad957f7c6a12ea16e26","6622cdf02dd9c81832be1f09","image grid","p","","","","","Phylogenetic_Distractor_Nonthreat_target","ongrid","2500","p","6","Phylogenetic","true","experimental"
"","null","html-keyboard-response","324","344746","0.0-13.0-2.37","FgJpACckK7","5e5de7a9151524109818ad6a","6617fad957f7c6a12ea16e26","6622cdf02dd9c81832be1f09","
    <div id=""grid-container"">
        <!-- Grid items will be dynamically added here -->
    </div>    ","null","","","","","","","","","","","",""
"","null","html-keyboard-response","325","345462","0.0-13.0-0.38","FgJpACckK7","5e5de7a9151524109818ad6a","6617fad957f7c6a12ea16e26","6622cdf02dd9c81832be1f09","fixation cross","null","","","","","","","","","","","",""
"","1075","html-keyboard-response","326","346539","0.0-13.0-1.38","FgJpACckK7","5e5de7a9151524109818ad6a","6617fad957f7c6a12ea16e26","6622cdf02dd9c81832be1f09","image grid","p","","","","","Phylogenetic_Distractor_Nonthreat_target","ongrid","2500","p","2","Phylogenetic","true","experimental"
"","null","html-keyboard-response","327","346698","0.0-13.0-2.38","FgJpACckK7","5e5de7a9151524109818ad6a","6617fad957f7c6a12ea16e26","6622cdf02dd9c81832be1f09","
    <div id=""grid-container"">
        <!-- Grid items will be dynamically added here -->
    </div>    ","null","","","","","","","","","","","",""
"","null","html-keyboard-response","328","347407","0.0-13.0-0.39","FgJpACckK7","5e5de7a9151524109818ad6a","6617fad957f7c6a12ea16e26","6622cdf02dd9c81832be1f09","fixation cross","null","","","","","","","","","","","",""
"","585","html-keyboard-response","329","347993","0.0-13.0-1.39","FgJpACckK7","5e5de7a9151524109818ad6a","6617fad957f7c6a12ea16e26","6622cdf02dd9c81832be1f09","image grid","q","","","","","Phylogenetic_Distractor_Threat_target","ongrid","2500","q","3","Phylogenetic","true","experimental"
"","null","html-keyboard-response","330","348159","0.0-13.0-2.39","FgJpACckK7","5e5de7a9151524109818ad6a","6617fad957f7c6a12ea16e26","6622cdf02dd9c81832be1f09","
    <div id=""grid-container"">
        <!-- Grid items will be dynamically added here -->
    </div>    ","null","","","","","","","","","","","",""
"","1912","html-keyboard-response","331","350284","0.0-14.0","FgJpACckK7","5e5de7a9151524109818ad6a","6617fad957f7c6a12ea16e26","6622cdf02dd9c81832be1f09","break screen"," ","","","","","","","","","","","",""
"","null","html-keyboard-response","332","352798","0.0-15.0-0.0","FgJpACckK7","5e5de7a9151524109818ad6a","6617fad957f7c6a12ea16e26","6622cdf02dd9c81832be1f09","fixation cross","null","","","","","","","","","","","",""
"","686","html-keyboard-response","333","353484","0.0-15.0-1.0","FgJpACckK7","5e5de7a9151524109818ad6a","6617fad957f7c6a12ea16e26","6622cdf02dd9c81832be1f09","image grid","q","","","","","Ontogenetic_Distractor_Threat_target","ongrid","800","q","3","Ontogenetic","true","experimental"
"","null","html-keyboard-response","334","353653","0.0-15.0-2.0","FgJpACckK7","5e5de7a9151524109818ad6a","6617fad957f7c6a12ea16e26","6622cdf02dd9c81832be1f09","
    <div id=""grid-container"">
        <!-- Grid items will be dynamically added here -->
    </div>    ","null","","","","","","","","","","","",""
"","null","html-keyboard-response","335","354370","0.0-15.0-0.1","FgJpACckK7","5e5de7a9151524109818ad6a","6617fad957f7c6a12ea16e26","6622cdf02dd9c81832be1f09","fixation cross","null","","","","","","","","","","","",""
"","null","html-keyboard-response","336","355183","0.0-15.0-1.1","FgJpACckK7","5e5de7a9151524109818ad6a","6617fad957f7c6a12ea16e26","6622cdf02dd9c81832be1f09","
        <div id=""grid-container"">
        <!-- Grid items will be dynamically added here -->
    </div>    ","null","","","","","","","","","","","",""
"","906","html-keyboard-response","337","355290","0.0-15.0-2.1","FgJpACckK7","5e5de7a9151524109818ad6a","6617fad957f7c6a12ea16e26","6622cdf02dd9c81832be1f09","mask grid","p","","","","","Ontogenetic_Distractor_notarget","onmask","800"," ","6","Ontogenetic","false","experimental"
"","null","html-keyboard-response","338","356021","0.0-15.0-0.2","FgJpACckK7","5e5de7a9151524109818ad6a","6617fad957f7c6a12ea16e26","6622cdf02dd9c81832be1f09","fixation cross","null","","","","","","","","","","","",""
"","672","html-keyboard-response","339","356694","0.0-15.0-1.2","FgJpACckK7","5e5de7a9151524109818ad6a","6617fad957f7c6a12ea16e26","6622cdf02dd9c81832be1f09","image grid","p","","","","","Ontogenetic_Distractor_Nonthreat_target","ongrid","800","p","2","Ontogenetic","true","experimental"
"","null","html-keyboard-response","340","356860","0.0-15.0-2.2","FgJpACckK7","5e5de7a9151524109818ad6a","6617fad957f7c6a12ea16e26","6622cdf02dd9c81832be1f09","
    <div id=""grid-container"">
        <!-- Grid items will be dynamically added here -->
    </div>    ","null","","","","","","","","","","","",""
"","null","html-keyboard-response","341","357571","0.0-15.0-0.3","FgJpACckK7","5e5de7a9151524109818ad6a","6617fad957f7c6a12ea16e26","6622cdf02dd9c81832be1f09","fixation cross","null","","","","","","","","","","","",""
"","758","html-keyboard-response","342","358329","0.0-15.0-1.3","FgJpACckK7","5e5de7a9151524109818ad6a","6617fad957f7c6a12ea16e26","6622cdf02dd9c81832be1f09","image grid","p","","","","","Ontogenetic_Distractor_Nonthreat_target","ongrid","800","p","7","Ontogenetic","true","experimental"
"","null","html-keyboard-response","343","358486","0.0-15.0-2.3","FgJpACckK7","5e5de7a9151524109818ad6a","6617fad957f7c6a12ea16e26","6622cdf02dd9c81832be1f09","
    <div id=""grid-container"">
        <!-- Grid items will be dynamically added here -->
    </div>    ","null","","","","","","","","","","","",""
"","null","html-keyboard-response","344","359199","0.0-15.0-0.4","FgJpACckK7","5e5de7a9151524109818ad6a","6617fad957f7c6a12ea16e26","6622cdf02dd9c81832be1f09","fixation cross","null","","","","","","","","","","","",""
"","738","html-keyboard-response","345","359938","0.0-15.0-1.4","FgJpACckK7","5e5de7a9151524109818ad6a","6617fad957f7c6a12ea16e26","6622cdf02dd9c81832be1f09","image grid","p","","","","","Ontogenetic_Distractor_Nonthreat_target","ongrid","800","p","4","Ontogenetic","true","experimental"
"","null","html-keyboard-response","346","360101","0.0-15.0-2.4","FgJpACckK7","5e5de7a9151524109818ad6a","6617fad957f7c6a12ea16e26","6622cdf02dd9c81832be1f09","
    <div id=""grid-container"">
        <!-- Grid items will be dynamically added here -->
    </div>    ","null","","","","","","","","","","","",""
"","null","html-keyboard-response","347","360815","0.0-15.0-0.5","FgJpACckK7","5e5de7a9151524109818ad6a","6617fad957f7c6a12ea16e26","6622cdf02dd9c81832be1f09","fixation cross","null","","","","","","","","","","","",""
"","601","html-keyboard-response","348","361416","0.0-15.0-1.5","FgJpACckK7","5e5de7a9151524109818ad6a","6617fad957f7c6a12ea16e26","6622cdf02dd9c81832be1f09","image grid","p","","","","","Ontogenetic_Distractor_Nonthreat_target","ongrid","800","p","5","Ontogenetic","true","experimental"
"","null","html-keyboard-response","349","361572","0.0-15.0-2.5","FgJpACckK7","5e5de7a9151524109818ad6a","6617fad957f7c6a12ea16e26","6622cdf02dd9c81832be1f09","
    <div id=""grid-container"">
        <!-- Grid items will be dynamically added here -->
    </div>    ","null","","","","","","","","","","","",""
"","null","html-keyboard-response","350","362275","0.0-15.0-0.6","FgJpACckK7","5e5de7a9151524109818ad6a","6617fad957f7c6a12ea16e26","6622cdf02dd9c81832be1f09","fixation cross","null","","","","","","","","","","","",""
"","610","html-keyboard-response","351","362886","0.0-15.0-1.6","FgJpACckK7","5e5de7a9151524109818ad6a","6617fad957f7c6a12ea16e26","6622cdf02dd9c81832be1f09","image grid","p","","","","","Ontogenetic_Distractor_Nonthreat_target","ongrid","800","p","8","Ontogenetic","true","experimental"
"","null","html-keyboard-response","352","363045","0.0-15.0-2.6","FgJpACckK7","5e5de7a9151524109818ad6a","6617fad957f7c6a12ea16e26","6622cdf02dd9c81832be1f09","
    <div id=""grid-container"">
        <!-- Grid items will be dynamically added here -->
    </div>    ","null","","","","","","","","","","","",""
"","null","html-keyboard-response","353","363761","0.0-15.0-0.7","FgJpACckK7","5e5de7a9151524109818ad6a","6617fad957f7c6a12ea16e26","6622cdf02dd9c81832be1f09","fixation cross","null","","","","","","","","","","","",""
"","580","html-keyboard-response","354","364341","0.0-15.0-1.7","FgJpACckK7","5e5de7a9151524109818ad6a","6617fad957f7c6a12ea16e26","6622cdf02dd9c81832be1f09","image grid","q","","","","","Ontogenetic_Distractor_Threat_target","ongrid","800","q","7","Ontogenetic","true","experimental"
"","null","html-keyboard-response","355","364502","0.0-15.0-2.7","FgJpACckK7","5e5de7a9151524109818ad6a","6617fad957f7c6a12ea16e26","6622cdf02dd9c81832be1f09","
    <div id=""grid-container"">
        <!-- Grid items will be dynamically added here -->
    </div>    ","null","","","","","","","","","","","",""
"","null","html-keyboard-response","356","365224","0.0-15.0-0.8","FgJpACckK7","5e5de7a9151524109818ad6a","6617fad957f7c6a12ea16e26","6622cdf02dd9c81832be1f09","fixation cross","null","","","","","","","","","","","",""
"","450","html-keyboard-response","357","365675","0.0-15.0-1.8","FgJpACckK7","5e5de7a9151524109818ad6a","6617fad957f7c6a12ea16e26","6622cdf02dd9c81832be1f09","image grid","q","","","","","Ontogenetic_Distractor_Threat_target","ongrid","800","q","7","Ontogenetic","true","experimental"
"","null","html-keyboard-response","358","365832","0.0-15.0-2.8","FgJpACckK7","5e5de7a9151524109818ad6a","6617fad957f7c6a12ea16e26","6622cdf02dd9c81832be1f09","
    <div id=""grid-container"">
        <!-- Grid items will be dynamically added here -->
    </div>    ","null","","","","","","","","","","","",""
"","null","html-keyboard-response","359","366540","0.0-15.0-0.9","FgJpACckK7","5e5de7a9151524109818ad6a","6617fad957f7c6a12ea16e26","6622cdf02dd9c81832be1f09","fixation cross","null","","","","","","","","","","","",""
"","704","html-keyboard-response","360","367245","0.0-15.0-1.9","FgJpACckK7","5e5de7a9151524109818ad6a","6617fad957f7c6a12ea16e26","6622cdf02dd9c81832be1f09","image grid","p","","","","","Ontogenetic_Distractor_Nonthreat_target","ongrid","800","p","7","Ontogenetic","true","experimental"
"","null","html-keyboard-response","361","367398","0.0-15.0-2.9","FgJpACckK7","5e5de7a9151524109818ad6a","6617fad957f7c6a12ea16e26","6622cdf02dd9c81832be1f09","
    <div id=""grid-container"">
        <!-- Grid items will be dynamically added here -->
    </div>    ","null","","","","","","","","","","","",""
"","null","html-keyboard-response","362","368121","0.0-15.0-0.10","FgJpACckK7","5e5de7a9151524109818ad6a","6617fad957f7c6a12ea16e26","6622cdf02dd9c81832be1f09","fixation cross","null","","","","","","","","","","","",""
"","511","html-keyboard-response","363","368633","0.0-15.0-1.10","FgJpACckK7","5e5de7a9151524109818ad6a","6617fad957f7c6a12ea16e26","6622cdf02dd9c81832be1f09","image grid","p","","","","","Ontogenetic_Distractor_notarget","ongrid","800"," ","3","Ontogenetic","false","experimental"
"","null","html-keyboard-response","364","368788","0.0-15.0-2.10","FgJpACckK7","5e5de7a9151524109818ad6a","6617fad957f7c6a12ea16e26","6622cdf02dd9c81832be1f09","
    <div id=""grid-container"">
        <!-- Grid items will be dynamically added here -->
    </div>    ","null","","","","","","","","","","","",""
"","null","html-keyboard-response","365","369511","0.0-15.0-0.11","FgJpACckK7","5e5de7a9151524109818ad6a","6617fad957f7c6a12ea16e26","6622cdf02dd9c81832be1f09","fixation cross","null","","","","","","","","","","","",""
"","686","html-keyboard-response","366","370197","0.0-15.0-1.11","FgJpACckK7","5e5de7a9151524109818ad6a","6617fad957f7c6a12ea16e26","6622cdf02dd9c81832be1f09","image grid","q","","","","","Ontogenetic_Distractor_Threat_target","ongrid","800","q","9","Ontogenetic","true","experimental"
"","null","html-keyboard-response","367","370351","0.0-15.0-2.11","FgJpACckK7","5e5de7a9151524109818ad6a","6617fad957f7c6a12ea16e26","6622cdf02dd9c81832be1f09","
    <div id=""grid-container"">
        <!-- Grid items will be dynamically added here -->
    </div>    ","null","","","","","","","","","","","",""
"","null","html-keyboard-response","368","371069","0.0-15.0-0.12","FgJpACckK7","5e5de7a9151524109818ad6a","6617fad957f7c6a12ea16e26","6622cdf02dd9c81832be1f09","fixation cross","null","","","","","","","","","","","",""
"","562","html-keyboard-response","369","371632","0.0-15.0-1.12","FgJpACckK7","5e5de7a9151524109818ad6a","6617fad957f7c6a12ea16e26","6622cdf02dd9c81832be1f09","image grid","q","","","","","Ontogenetic_Distractor_Threat_target","ongrid","800","q","1","Ontogenetic","true","experimental"
"","null","html-keyboard-response","370","371791","0.0-15.0-2.12","FgJpACckK7","5e5de7a9151524109818ad6a","6617fad957f7c6a12ea16e26","6622cdf02dd9c81832be1f09","
    <div id=""grid-container"">
        <!-- Grid items will be dynamically added here -->
