"success","rt","trial_type","trial_index","time_elapsed","internal_node_id","unique_identifier","subject_id","study_id","session_id","stimulus","response","timeout","failed_images","failed_audio","failed_video","task","respondedwhen","time_manipulation","correctresponse","targetimagelocation","blocktype","correct","roundtype"
"true","1580","fullscreen","0","2587","0.0-0.0","nl8z3IONYr","63d8915c1adeaab48c7f2029","6617fad957f7c6a12ea16e26","6622cc76a867ee3cbc3fd72c","","","","","","","","","","","","","",""
"","18290","html-keyboard-response","1","20881","0.0-1.0","nl8z3IONYr","63d8915c1adeaab48c7f2029","6617fad957f7c6a12ea16e26","6622cc76a867ee3cbc3fd72c","instruction screen 0"," ","","","","","","","","","","","",""
"true","","preload","2","22950","0.0-2.0","nl8z3IONYr","63d8915c1adeaab48c7f2029","6617fad957f7c6a12ea16e26","6622cc76a867ee3cbc3fd72c","","","false","[]","[]","[]","","","","","","","",""
"","35184","html-keyboard-response","3","58139","0.0-3.0","nl8z3IONYr","63d8915c1adeaab48c7f2029","6617fad957f7c6a12ea16e26","6622cc76a867ee3cbc3fd72c","instruction screen 1"," ","","","","","","","","","","","",""
"","21321","html-keyboard-response","4","79463","0.0-4.0","nl8z3IONYr","63d8915c1adeaab48c7f2029","6617fad957f7c6a12ea16e26","6622cc76a867ee3cbc3fd72c","instruction screen 2","q","","","","","","","","","","","",""
"","10493","html-keyboard-response","5","89958","0.0-5.0","nl8z3IONYr","63d8915c1adeaab48c7f2029","6617fad957f7c6a12ea16e26","6622cc76a867ee3cbc3fd72c","instruction screen 3","p","","","","","","","","","","","",""
"","29031","html-keyboard-response","6","118993","0.0-6.0","nl8z3IONYr","63d8915c1adeaab48c7f2029","6617fad957f7c6a12ea16e26","6622cc76a867ee3cbc3fd72c","instruction screen 4"," ","","","","","","","","","","","",""
"","21982","html-keyboard-response","7","140978","0.0-7.0","nl8z3IONYr","63d8915c1adeaab48c7f2029","6617fad957f7c6a12ea16e26","6622cc76a867ee3cbc3fd72c","instruction screen 5"," ","","","","","","","","","","","",""
"","null","html-keyboard-response","8","141479","0.0-8.0","nl8z3IONYr","63d8915c1adeaab48c7f2029","6617fad957f7c6a12ea16e26","6622cc76a867ee3cbc3fd72c","fixation cross","null","","","","","","","","","","","",""
"","null","html-keyboard-response","9","141980","0.0-9.0-0.0","nl8z3IONYr","63d8915c1adeaab48c7f2029","6617fad957f7c6a12ea16e26","6622cc76a867ee3cbc3fd72c","fixation cross","null","","","","","","","","","","","",""
"","null","html-keyboard-response","10","144983","0.0-9.0-1.0","nl8z3IONYr","63d8915c1adeaab48c7f2029","6617fad957f7c6a12ea16e26","6622cc76a867ee3cbc3fd72c","
        <div id=""grid-container"">
        <!-- Grid items will be dynamically added here -->
    </div>    ","null","","","","","","","","","","","",""
"","4028","html-keyboard-response","11","146012","0.0-9.0-2.0","nl8z3IONYr","63d8915c1adeaab48c7f2029","6617fad957f7c6a12ea16e26","6622cc76a867ee3cbc3fd72c","mask grid"," ","","","","","Ontogenetic_Distractor_notarget","onmask","3000"," ","6","Ontogenetic","true","practice"
"","null","html-keyboard-response","12","147216","0.0-9.0-3.0","nl8z3IONYr","63d8915c1adeaab48c7f2029","6617fad957f7c6a12ea16e26","6622cc76a867ee3cbc3fd72c","feedback screen","null","","","","","","","","","","","",""
"","null","html-keyboard-response","13","147716","0.0-9.0-0.1","nl8z3IONYr","63d8915c1adeaab48c7f2029","6617fad957f7c6a12ea16e26","6622cc76a867ee3cbc3fd72c","fixation cross","null","","","","","","","","","","","",""
"","2342","html-keyboard-response","14","150060","0.0-9.0-1.1","nl8z3IONYr","63d8915c1adeaab48c7f2029","6617fad957f7c6a12ea16e26","6622cc76a867ee3cbc3fd72c","image grid","q","","","","","Ontogenetic_Distractor_Threat_target","ongrid","2900","q","2","Ontogenetic","true","practice"
"","null","html-keyboard-response","15","150211","0.0-9.0-2.1","nl8z3IONYr","63d8915c1adeaab48c7f2029","6617fad957f7c6a12ea16e26","6622cc76a867ee3cbc3fd72c","
    <div id=""grid-container"">
        <!-- Grid items will be dynamically added here -->
    </div>    ","null","","","","","","","","","","","",""
"","null","html-keyboard-response","16","151413","0.0-9.0-3.1","nl8z3IONYr","63d8915c1adeaab48c7f2029","6617fad957f7c6a12ea16e26","6622cc76a867ee3cbc3fd72c","feedback screen","null","","","","","","","","","","","",""
"","null","html-keyboard-response","17","151913","0.0-9.0-0.2","nl8z3IONYr","63d8915c1adeaab48c7f2029","6617fad957f7c6a12ea16e26","6622cc76a867ee3cbc3fd72c","fixation cross","null","","","","","","","","","","","",""
"","1570","html-keyboard-response","18","153483","0.0-9.0-1.2","nl8z3IONYr","63d8915c1adeaab48c7f2029","6617fad957f7c6a12ea16e26","6622cc76a867ee3cbc3fd72c","image grid","p","","","","","Ontogenetic_Distractor_Nonthreat_target","ongrid","2800","p","8","Ontogenetic","true","practice"
"","null","html-keyboard-response","19","153636","0.0-9.0-2.2","nl8z3IONYr","63d8915c1adeaab48c7f2029","6617fad957f7c6a12ea16e26","6622cc76a867ee3cbc3fd72c","
    <div id=""grid-container"">
        <!-- Grid items will be dynamically added here -->
    </div>    ","null","","","","","","","","","","","",""
"","null","html-keyboard-response","20","154839","0.0-9.0-3.2","nl8z3IONYr","63d8915c1adeaab48c7f2029","6617fad957f7c6a12ea16e26","6622cc76a867ee3cbc3fd72c","feedback screen","null","","","","","","","","","","","",""
"","null","html-keyboard-response","21","155339","0.0-9.0-0.3","nl8z3IONYr","63d8915c1adeaab48c7f2029","6617fad957f7c6a12ea16e26","6622cc76a867ee3cbc3fd72c","fixation cross","null","","","","","","","","","","","",""
"","1472","html-keyboard-response","22","156812","0.0-9.0-1.3","nl8z3IONYr","63d8915c1adeaab48c7f2029","6617fad957f7c6a12ea16e26","6622cc76a867ee3cbc3fd72c","image grid","p","","","","","Ontogenetic_Distractor_Nonthreat_target","ongrid","2700","p","8","Ontogenetic","true","practice"
"","null","html-keyboard-response","23","156963","0.0-9.0-2.3","nl8z3IONYr","63d8915c1adeaab48c7f2029","6617fad957f7c6a12ea16e26","6622cc76a867ee3cbc3fd72c","
    <div id=""grid-container"">
        <!-- Grid items will be dynamically added here -->
    </div>    ","null","","","","","","","","","","","",""
"","null","html-keyboard-response","24","158164","0.0-9.0-3.3","nl8z3IONYr","63d8915c1adeaab48c7f2029","6617fad957f7c6a12ea16e26","6622cc76a867ee3cbc3fd72c","feedback screen","null","","","","","","","","","","","",""
"","null","html-keyboard-response","25","158664","0.0-9.0-0.4","nl8z3IONYr","63d8915c1adeaab48c7f2029","6617fad957f7c6a12ea16e26","6622cc76a867ee3cbc3fd72c","fixation cross","null","","","","","","","","","","","",""
"","1267","html-keyboard-response","26","159932","0.0-9.0-1.4","nl8z3IONYr","63d8915c1adeaab48c7f2029","6617fad957f7c6a12ea16e26","6622cc76a867ee3cbc3fd72c","image grid","p","","","","","Ontogenetic_Distractor_Nonthreat_target","ongrid","2600","p","7","Ontogenetic","true","practice"
"","null","html-keyboard-response","27","160083","0.0-9.0-2.4","nl8z3IONYr","63d8915c1adeaab48c7f2029","6617fad957f7c6a12ea16e26","6622cc76a867ee3cbc3fd72c","
    <div id=""grid-container"">
        <!-- Grid items will be dynamically added here -->
    </div>    ","null","","","","","","","","","","","",""
"","null","html-keyboard-response","28","161285","0.0-9.0-3.4","nl8z3IONYr","63d8915c1adeaab48c7f2029","6617fad957f7c6a12ea16e26","6622cc76a867ee3cbc3fd72c","feedback screen","null","","","","","","","","","","","",""
"","null","html-keyboard-response","29","161786","0.0-9.0-0.5","nl8z3IONYr","63d8915c1adeaab48c7f2029","6617fad957f7c6a12ea16e26","6622cc76a867ee3cbc3fd72c","fixation cross","null","","","","","","","","","","","",""
"","1258","html-keyboard-response","30","163044","0.0-9.0-1.5","nl8z3IONYr","63d8915c1adeaab48c7f2029","6617fad957f7c6a12ea16e26","6622cc76a867ee3cbc3fd72c","image grid"," ","","","","","Phylogenetic_Distractor_Nonthreat_target","ongrid","2500","p","7","Ontogenetic","false","practice"
"","null","html-keyboard-response","31","163195","0.0-9.0-2.5","nl8z3IONYr","63d8915c1adeaab48c7f2029","6617fad957f7c6a12ea16e26","6622cc76a867ee3cbc3fd72c","
    <div id=""grid-container"">
        <!-- Grid items will be dynamically added here -->
    </div>    ","null","","","","","","","","","","","",""
"","null","html-keyboard-response","32","164398","0.0-9.0-3.5","nl8z3IONYr","63d8915c1adeaab48c7f2029","6617fad957f7c6a12ea16e26","6622cc76a867ee3cbc3fd72c","feedback screen","null","","","","","","","","","","","",""
"","null","html-keyboard-response","33","164898","0.0-9.0-0.6","nl8z3IONYr","63d8915c1adeaab48c7f2029","6617fad957f7c6a12ea16e26","6622cc76a867ee3cbc3fd72c","fixation cross","null","","","","","","","","","","","",""
"","1434","html-keyboard-response","34","166332","0.0-9.0-1.6","nl8z3IONYr","63d8915c1adeaab48c7f2029","6617fad957f7c6a12ea16e26","6622cc76a867ee3cbc3fd72c","image grid","q","","","","","Phylogenetic_Distractor_Threat_target","ongrid","2400","q","6","Ontogenetic","true","practice"
"","null","html-keyboard-response","35","166487","0.0-9.0-2.6","nl8z3IONYr","63d8915c1adeaab48c7f2029","6617fad957f7c6a12ea16e26","6622cc76a867ee3cbc3fd72c","
    <div id=""grid-container"">
        <!-- Grid items will be dynamically added here -->
    </div>    ","null","","","","","","","","","","","",""
"","null","html-keyboard-response","36","167687","0.0-9.0-3.6","nl8z3IONYr","63d8915c1adeaab48c7f2029","6617fad957f7c6a12ea16e26","6622cc76a867ee3cbc3fd72c","feedback screen","null","","","","","","","","","","","",""
"","null","html-keyboard-response","37","168189","0.0-9.0-0.7","nl8z3IONYr","63d8915c1adeaab48c7f2029","6617fad957f7c6a12ea16e26","6622cc76a867ee3cbc3fd72c","fixation cross","null","","","","","","","","","","","",""
"","1928","html-keyboard-response","38","170118","0.0-9.0-1.7","nl8z3IONYr","63d8915c1adeaab48c7f2029","6617fad957f7c6a12ea16e26","6622cc76a867ee3cbc3fd72c","image grid","p","","","","","Phylogenetic_Distractor_notarget","ongrid","2300"," ","2","Ontogenetic","false","practice"
"","null","html-keyboard-response","39","170268","0.0-9.0-2.7","nl8z3IONYr","63d8915c1adeaab48c7f2029","6617fad957f7c6a12ea16e26","6622cc76a867ee3cbc3fd72c","
    <div id=""grid-container"">
        <!-- Grid items will be dynamically added here -->
    </div>    ","null","","","","","","","","","","","",""
"","null","html-keyboard-response","40","171488","0.0-9.0-3.7","nl8z3IONYr","63d8915c1adeaab48c7f2029","6617fad957f7c6a12ea16e26","6622cc76a867ee3cbc3fd72c","feedback screen","null","","","","","","","","","","","",""
"","null","html-keyboard-response","41","171988","0.0-9.0-0.8","nl8z3IONYr","63d8915c1adeaab48c7f2029","6617fad957f7c6a12ea16e26","6622cc76a867ee3cbc3fd72c","fixation cross","null","","","","","","","","","","","",""
"","1897","html-keyboard-response","42","173888","0.0-9.0-1.8","nl8z3IONYr","63d8915c1adeaab48c7f2029","6617fad957f7c6a12ea16e26","6622cc76a867ee3cbc3fd72c","image grid","q","","","","","Phylogenetic_Distractor_Threat_target","ongrid","2200","q","6","Ontogenetic","true","practice"
"","null","html-keyboard-response","43","174040","0.0-9.0-2.8","nl8z3IONYr","63d8915c1adeaab48c7f2029","6617fad957f7c6a12ea16e26","6622cc76a867ee3cbc3fd72c","
    <div id=""grid-container"">
        <!-- Grid items will be dynamically added here -->
    </div>    ","null","","","","","","","","","","","",""
"","null","html-keyboard-response","44","175242","0.0-9.0-3.8","nl8z3IONYr","63d8915c1adeaab48c7f2029","6617fad957f7c6a12ea16e26","6622cc76a867ee3cbc3fd72c","feedback screen","null","","","","","","","","","","","",""
"","null","html-keyboard-response","45","175745","0.0-9.0-0.9","nl8z3IONYr","63d8915c1adeaab48c7f2029","6617fad957f7c6a12ea16e26","6622cc76a867ee3cbc3fd72c","fixation cross","null","","","","","","","","","","","",""
"","1327","html-keyboard-response","46","177071","0.0-9.0-1.9","nl8z3IONYr","63d8915c1adeaab48c7f2029","6617fad957f7c6a12ea16e26","6622cc76a867ee3cbc3fd72c","image grid","p","","","","","Ontogenetic_Distractor_Nonthreat_target","ongrid","2100","p","5","Ontogenetic","true","practice"
"","null","html-keyboard-response","47","177224","0.0-9.0-2.9","nl8z3IONYr","63d8915c1adeaab48c7f2029","6617fad957f7c6a12ea16e26","6622cc76a867ee3cbc3fd72c","
    <div id=""grid-container"">
        <!-- Grid items will be dynamically added here -->
    </div>    ","null","","","","","","","","","","","",""
"","null","html-keyboard-response","48","178429","0.0-9.0-3.9","nl8z3IONYr","63d8915c1adeaab48c7f2029","6617fad957f7c6a12ea16e26","6622cc76a867ee3cbc3fd72c","feedback screen","null","","","","","","","","","","","",""
"","null","html-keyboard-response","49","178931","0.0-9.0-0.10","nl8z3IONYr","63d8915c1adeaab48c7f2029","6617fad957f7c6a12ea16e26","6622cc76a867ee3cbc3fd72c","fixation cross","null","","","","","","","","","","","",""
"","1299","html-keyboard-response","50","180231","0.0-9.0-1.10","nl8z3IONYr","63d8915c1adeaab48c7f2029","6617fad957f7c6a12ea16e26","6622cc76a867ee3cbc3fd72c","image grid","q","","","","","Phylogenetic_Distractor_Threat_target","ongrid","2000","q","1","Ontogenetic","true","practice"
"","null","html-keyboard-response","51","180381","0.0-9.0-2.10","nl8z3IONYr","63d8915c1adeaab48c7f2029","6617fad957f7c6a12ea16e26","6622cc76a867ee3cbc3fd72c","
    <div id=""grid-container"">
        <!-- Grid items will be dynamically added here -->
    </div>    ","null","","","","","","","","","","","",""
"","null","html-keyboard-response","52","181584","0.0-9.0-3.10","nl8z3IONYr","63d8915c1adeaab48c7f2029","6617fad957f7c6a12ea16e26","6622cc76a867ee3cbc3fd72c","feedback screen","null","","","","","","","","","","","",""
"","null","html-keyboard-response","53","182084","0.0-9.0-0.11","nl8z3IONYr","63d8915c1adeaab48c7f2029","6617fad957f7c6a12ea16e26","6622cc76a867ee3cbc3fd72c","fixation cross","null","","","","","","","","","","","",""
"","1530","html-keyboard-response","54","183615","0.0-9.0-1.11","nl8z3IONYr","63d8915c1adeaab48c7f2029","6617fad957f7c6a12ea16e26","6622cc76a867ee3cbc3fd72c","image grid","p","","","","","Phylogenetic_Distractor_Nonthreat_target","ongrid","1900","p","4","Ontogenetic","true","practice"
"","null","html-keyboard-response","55","183766","0.0-9.0-2.11","nl8z3IONYr","63d8915c1adeaab48c7f2029","6617fad957f7c6a12ea16e26","6622cc76a867ee3cbc3fd72c","
    <div id=""grid-container"">
        <!-- Grid items will be dynamically added here -->
    </div>    ","null","","","","","","","","","","","",""
"","null","html-keyboard-response","56","184967","0.0-9.0-3.11","nl8z3IONYr","63d8915c1adeaab48c7f2029","6617fad957f7c6a12ea16e26","6622cc76a867ee3cbc3fd72c","feedback screen","null","","","","","","","","","","","",""
"","null","html-keyboard-response","57","185469","0.0-9.0-0.12","nl8z3IONYr","63d8915c1adeaab48c7f2029","6617fad957f7c6a12ea16e26","6622cc76a867ee3cbc3fd72c","fixation cross","null","","","","","","","","","","","",""
"","1050","html-keyboard-response","58","186519","0.0-9.0-1.12","nl8z3IONYr","63d8915c1adeaab48c7f2029","6617fad957f7c6a12ea16e26","6622cc76a867ee3cbc3fd72c","image grid","q","","","","","Ontogenetic_Distractor_Threat_target","ongrid","1800","q","4","Ontogenetic","true","practice"
"","null","html-keyboard-response","59","186669","0.0-9.0-2.12","nl8z3IONYr","63d8915c1adeaab48c7f2029","6617fad957f7c6a12ea16e26","6622cc76a867ee3cbc3fd72c","
    <div id=""grid-container"">
        <!-- Grid items will be dynamically added here -->
    </div>    ","null","","","","","","","","","","","",""
"","null","html-keyboard-response","60","187871","0.0-9.0-3.12","nl8z3IONYr","63d8915c1adeaab48c7f2029","6617fad957f7c6a12ea16e26","6622cc76a867ee3cbc3fd72c","feedback screen","null","","","","","","","","","","","",""
"","null","html-keyboard-response","61","188371","0.0-9.0-0.13","nl8z3IONYr","63d8915c1adeaab48c7f2029","6617fad957f7c6a12ea16e26","6622cc76a867ee3cbc3fd72c","fixation cross","null","","","","","","","","","","","",""
"","1428","html-keyboard-response","62","189799","0.0-9.0-1.13","nl8z3IONYr","63d8915c1adeaab48c7f2029","6617fad957f7c6a12ea16e26","6622cc76a867ee3cbc3fd72c","image grid"," ","","","","","Phylogenetic_Distractor_Nonthreat_target","ongrid","1700","p","7","Ontogenetic","false","practice"
"","null","html-keyboard-response","63","189950","0.0-9.0-2.13","nl8z3IONYr","63d8915c1adeaab48c7f2029","6617fad957f7c6a12ea16e26","6622cc76a867ee3cbc3fd72c","
    <div id=""grid-container"">
        <!-- Grid items will be dynamically added here -->
    </div>    ","null","","","","","","","","","","","",""
"","null","html-keyboard-response","64","191160","0.0-9.0-3.13","nl8z3IONYr","63d8915c1adeaab48c7f2029","6617fad957f7c6a12ea16e26","6622cc76a867ee3cbc3fd72c","feedback screen","null","","","","","","","","","","","",""
"","null","html-keyboard-response","65","191660","0.0-9.0-0.14","nl8z3IONYr","63d8915c1adeaab48c7f2029","6617fad957f7c6a12ea16e26","6622cc76a867ee3cbc3fd72c","fixation cross","null","","","","","","","","","","","",""
"","1364","html-keyboard-response","66","193023","0.0-9.0-1.14","nl8z3IONYr","63d8915c1adeaab48c7f2029","6617fad957f7c6a12ea16e26","6622cc76a867ee3cbc3fd72c","image grid","q","","","","","Ontogenetic_Distractor_Threat_target","ongrid","1600","q","6","Ontogenetic","true","practice"
"","null","html-keyboard-response","67","193175","0.0-9.0-2.14","nl8z3IONYr","63d8915c1adeaab48c7f2029","6617fad957f7c6a12ea16e26","6622cc76a867ee3cbc3fd72c","
    <div id=""grid-container"">
        <!-- Grid items will be dynamically added here -->
    </div>    ","null","","","","","","","","","","","",""
"","null","html-keyboard-response","68","194377","0.0-9.0-3.14","nl8z3IONYr","63d8915c1adeaab48c7f2029","6617fad957f7c6a12ea16e26","6622cc76a867ee3cbc3fd72c","feedback screen","null","","","","","","","","","","","",""
"","null","html-keyboard-response","69","194877","0.0-9.0-0.15","nl8z3IONYr","63d8915c1adeaab48c7f2029","6617fad957f7c6a12ea16e26","6622cc76a867ee3cbc3fd72c","fixation cross","null","","","","","","","","","","","",""
"","null","html-keyboard-response","70","196379","0.0-9.0-1.15","nl8z3IONYr","63d8915c1adeaab48c7f2029","6617fad957f7c6a12ea16e26","6622cc76a867ee3cbc3fd72c","
        <div id=""grid-container"">
        <!-- Grid items will be dynamically added here -->
    </div>    ","null","","","","","","","","","","","",""
"","1792","html-keyboard-response","71","196672","0.0-9.0-2.15","nl8z3IONYr","63d8915c1adeaab48c7f2029","6617fad957f7c6a12ea16e26","6622cc76a867ee3cbc3fd72c","mask grid","q","","","","","Ontogenetic_Distractor_notarget","onmask","1500"," ","7","Ontogenetic","false","practice"
"","null","html-keyboard-response","72","197876","0.0-9.0-3.15","nl8z3IONYr","63d8915c1adeaab48c7f2029","6617fad957f7c6a12ea16e26","6622cc76a867ee3cbc3fd72c","feedback screen","null","","","","","","","","","","","",""
"","null","html-keyboard-response","73","198379","0.0-9.0-0.16","nl8z3IONYr","63d8915c1adeaab48c7f2029","6617fad957f7c6a12ea16e26","6622cc76a867ee3cbc3fd72c","fixation cross","null","","","","","","","","","","","",""
"","null","html-keyboard-response","74","199781","0.0-9.0-1.16","nl8z3IONYr","63d8915c1adeaab48c7f2029","6617fad957f7c6a12ea16e26","6622cc76a867ee3cbc3fd72c","
        <div id=""grid-container"">
        <!-- Grid items will be dynamically added here -->
    </div>    ","null","","","","","","","","","","","",""
"","1400","html-keyboard-response","75","204987","0.0-9.0-2.16","nl8z3IONYr","63d8915c1adeaab48c7f2029","6617fad957f7c6a12ea16e26","6622cc76a867ee3cbc3fd72c","mask grid","null","","","","","Phylogenetic_Distractor_Threat_target","onmask","1400","q","9","Ontogenetic","false","practice"
"","null","html-keyboard-response","76","206188","0.0-9.0-3.16","nl8z3IONYr","63d8915c1adeaab48c7f2029","6617fad957f7c6a12ea16e26","6622cc76a867ee3cbc3fd72c","feedback screen","null","","","","","","","","","","","",""
"","null","html-keyboard-response","77","206690","0.0-9.0-0.17","nl8z3IONYr","63d8915c1adeaab48c7f2029","6617fad957f7c6a12ea16e26","6622cc76a867ee3cbc3fd72c","fixation cross","null","","","","","","","","","","","",""
"","null","html-keyboard-response","78","207992","0.0-9.0-1.17","nl8z3IONYr","63d8915c1adeaab48c7f2029","6617fad957f7c6a12ea16e26","6622cc76a867ee3cbc3fd72c","
        <div id=""grid-container"">
        <!-- Grid items will be dynamically added here -->
    </div>    ","null","","","","","","","","","","","",""
"","1421","html-keyboard-response","79","208114","0.0-9.0-2.17","nl8z3IONYr","63d8915c1adeaab48c7f2029","6617fad957f7c6a12ea16e26","6622cc76a867ee3cbc3fd72c","mask grid","q","","","","","Phylogenetic_Distractor_Nonthreat_target","onmask","1300","p","7","Ontogenetic","false","practice"
"","null","html-keyboard-response","80","209315","0.0-9.0-3.17","nl8z3IONYr","63d8915c1adeaab48c7f2029","6617fad957f7c6a12ea16e26","6622cc76a867ee3cbc3fd72c","feedback screen","null","","","","","","","","","","","",""
"","null","html-keyboard-response","81","209818","0.0-9.0-0.18","nl8z3IONYr","63d8915c1adeaab48c7f2029","6617fad957f7c6a12ea16e26","6622cc76a867ee3cbc3fd72c","fixation cross","null","","","","","","","","","","","",""
"","775","html-keyboard-response","82","210594","0.0-9.0-1.18","nl8z3IONYr","63d8915c1adeaab48c7f2029","6617fad957f7c6a12ea16e26","6622cc76a867ee3cbc3fd72c","image grid","q","","","","","Ontogenetic_Distractor_Threat_target","ongrid","1200","q","5","Ontogenetic","true","practice"
"","null","html-keyboard-response","83","210745","0.0-9.0-2.18","nl8z3IONYr","63d8915c1adeaab48c7f2029","6617fad957f7c6a12ea16e26","6622cc76a867ee3cbc3fd72c","
    <div id=""grid-container"">
        <!-- Grid items will be dynamically added here -->
    </div>    ","null","","","","","","","","","","","",""
"","null","html-keyboard-response","84","211946","0.0-9.0-3.18","nl8z3IONYr","63d8915c1adeaab48c7f2029","6617fad957f7c6a12ea16e26","6622cc76a867ee3cbc3fd72c","feedback screen","null","","","","","","","","","","","",""
"","null","html-keyboard-response","85","212448","0.0-9.0-0.19","nl8z3IONYr","63d8915c1adeaab48c7f2029","6617fad957f7c6a12ea16e26","6622cc76a867ee3cbc3fd72c","fixation cross","null","","","","","","","","","","","",""
"","null","html-keyboard-response","86","213549","0.0-9.0-1.19","nl8z3IONYr","63d8915c1adeaab48c7f2029","6617fad957f7c6a12ea16e26","6622cc76a867ee3cbc3fd72c","
        <div id=""grid-container"">
        <!-- Grid items will be dynamically added here -->
    </div>    ","null","","","","","","","","","","","",""
"","1264","html-keyboard-response","87","213713","0.0-9.0-2.19","nl8z3IONYr","63d8915c1adeaab48c7f2029","6617fad957f7c6a12ea16e26","6622cc76a867ee3cbc3fd72c","mask grid","p","","","","","Phylogenetic_Distractor_notarget","onmask","1100"," ","9","Ontogenetic","false","practice"
"","null","html-keyboard-response","88","214916","0.0-9.0-3.19","nl8z3IONYr","63d8915c1adeaab48c7f2029","6617fad957f7c6a12ea16e26","6622cc76a867ee3cbc3fd72c","feedback screen","null","","","","","","","","","","","",""
"","8229","html-keyboard-response","89","223147","0.0-10.0","nl8z3IONYr","63d8915c1adeaab48c7f2029","6617fad957f7c6a12ea16e26","6622cc76a867ee3cbc3fd72c","pre-experimental_briefing"," ","","","","","","","","","","","",""
"","null","html-keyboard-response","90","225648","0.0-11.0-0.0","nl8z3IONYr","63d8915c1adeaab48c7f2029","6617fad957f7c6a12ea16e26","6622cc76a867ee3cbc3fd72c","fixation cross","null","","","","","","","","","","","",""
"","2107","html-keyboard-response","91","227755","0.0-11.0-1.0","nl8z3IONYr","63d8915c1adeaab48c7f2029","6617fad957f7c6a12ea16e26","6622cc76a867ee3cbc3fd72c","image grid","q","","","","","Ontogenetic_Distractor_Threat_target","ongrid","2500","q","7","Ontogenetic","true","experimental"
"","null","html-keyboard-response","92","227907","0.0-11.0-2.0","nl8z3IONYr","63d8915c1adeaab48c7f2029","6617fad957f7c6a12ea16e26","6622cc76a867ee3cbc3fd72c","
    <div id=""grid-container"">
        <!-- Grid items will be dynamically added here -->
    </div>    ","null","","","","","","","","","","","",""
"","null","html-keyboard-response","93","228608","0.0-11.0-0.1","nl8z3IONYr","63d8915c1adeaab48c7f2029","6617fad957f7c6a12ea16e26","6622cc76a867ee3cbc3fd72c","fixation cross","null","","","","","","","","","","","",""
"","2250","html-keyboard-response","94","230860","0.0-11.0-1.1","nl8z3IONYr","63d8915c1adeaab48c7f2029","6617fad957f7c6a12ea16e26","6622cc76a867ee3cbc3fd72c","image grid"," ","","","","","Ontogenetic_Distractor_notarget","ongrid","2500"," ","4","Ontogenetic","true","experimental"
"","null","html-keyboard-response","95","231010","0.0-11.0-2.1","nl8z3IONYr","63d8915c1adeaab48c7f2029","6617fad957f7c6a12ea16e26","6622cc76a867ee3cbc3fd72c","
    <div id=""grid-container"">
        <!-- Grid items will be dynamically added here -->
    </div>    ","null","","","","","","","","","","","",""
"","null","html-keyboard-response","96","231712","0.0-11.0-0.2","nl8z3IONYr","63d8915c1adeaab48c7f2029","6617fad957f7c6a12ea16e26","6622cc76a867ee3cbc3fd72c","fixation cross","null","","","","","","","","","","","",""
"","1890","html-keyboard-response","97","233603","0.0-11.0-1.2","nl8z3IONYr","63d8915c1adeaab48c7f2029","6617fad957f7c6a12ea16e26","6622cc76a867ee3cbc3fd72c","image grid","q","","","","","Ontogenetic_Distractor_Threat_target","ongrid","2500","q","9","Ontogenetic","true","experimental"
"","null","html-keyboard-response","98","233756","0.0-11.0-2.2","nl8z3IONYr","63d8915c1adeaab48c7f2029","6617fad957f7c6a12ea16e26","6622cc76a867ee3cbc3fd72c","
    <div id=""grid-container"">
        <!-- Grid items will be dynamically added here -->
    </div>    ","null","","","","","","","","","","","",""
"","null","html-keyboard-response","99","234458","0.0-11.0-0.3","nl8z3IONYr","63d8915c1adeaab48c7f2029","6617fad957f7c6a12ea16e26","6622cc76a867ee3cbc3fd72c","fixation cross","null","","","","","","","","","","","",""
"","1457","html-keyboard-response","100","235915","0.0-11.0-1.3","nl8z3IONYr","63d8915c1adeaab48c7f2029","6617fad957f7c6a12ea16e26","6622cc76a867ee3cbc3fd72c","image grid","p","","","","","Ontogenetic_Distractor_Nonthreat_target","ongrid","2500","p","2","Ontogenetic","true","experimental"
"","null","html-keyboard-response","101","236067","0.0-11.0-2.3","nl8z3IONYr","63d8915c1adeaab48c7f2029","6617fad957f7c6a12ea16e26","6622cc76a867ee3cbc3fd72c","
    <div id=""grid-container"">
        <!-- Grid items will be dynamically added here -->
    </div>    ","null","","","","","","","","","","","",""
"","null","html-keyboard-response","102","236770","0.0-11.0-0.4","nl8z3IONYr","63d8915c1adeaab48c7f2029","6617fad957f7c6a12ea16e26","6622cc76a867ee3cbc3fd72c","fixation cross","null","","","","","","","","","","","",""
"","1522","html-keyboard-response","103","238292","0.0-11.0-1.4","nl8z3IONYr","63d8915c1adeaab48c7f2029","6617fad957f7c6a12ea16e26","6622cc76a867ee3cbc3fd72c","image grid","p","","","","","Ontogenetic_Distractor_Nonthreat_target","ongrid","2500","p","6","Ontogenetic","true","experimental"
"","null","html-keyboard-response","104","238443","0.0-11.0-2.4","nl8z3IONYr","63d8915c1adeaab48c7f2029","6617fad957f7c6a12ea16e26","6622cc76a867ee3cbc3fd72c","
    <div id=""grid-container"">
        <!-- Grid items will be dynamically added here -->
    </div>    ","null","","","","","","","","","","","",""
"","null","html-keyboard-response","105","239145","0.0-11.0-0.5","nl8z3IONYr","63d8915c1adeaab48c7f2029","6617fad957f7c6a12ea16e26","6622cc76a867ee3cbc3fd72c","fixation cross","null","","","","","","","","","","","",""
"","1706","html-keyboard-response","106","240852","0.0-11.0-1.5","nl8z3IONYr","63d8915c1adeaab48c7f2029","6617fad957f7c6a12ea16e26","6622cc76a867ee3cbc3fd72c","image grid","q","","","","","Ontogenetic_Distractor_Threat_target","ongrid","2500","q","1","Ontogenetic","true","experimental"
"","null","html-keyboard-response","107","241003","0.0-11.0-2.5","nl8z3IONYr","63d8915c1adeaab48c7f2029","6617fad957f7c6a12ea16e26","6622cc76a867ee3cbc3fd72c","
    <div id=""grid-container"">
        <!-- Grid items will be dynamically added here -->
    </div>    ","null","","","","","","","","","","","",""
"","null","html-keyboard-response","108","241706","0.0-11.0-0.6","nl8z3IONYr","63d8915c1adeaab48c7f2029","6617fad957f7c6a12ea16e26","6622cc76a867ee3cbc3fd72c","fixation cross","null","","","","","","","","","","","",""
"","1602","html-keyboard-response","109","243308","0.0-11.0-1.6","nl8z3IONYr","63d8915c1adeaab48c7f2029","6617fad957f7c6a12ea16e26","6622cc76a867ee3cbc3fd72c","image grid","p","","","","","Ontogenetic_Distractor_Threat_target","ongrid","2500","q","9","Ontogenetic","false","experimental"
"","null","html-keyboard-response","110","243459","0.0-11.0-2.6","nl8z3IONYr","63d8915c1adeaab48c7f2029","6617fad957f7c6a12ea16e26","6622cc76a867ee3cbc3fd72c","
    <div id=""grid-container"">
        <!-- Grid items will be dynamically added here -->
    </div>    ","null","","","","","","","","","","","",""
"","null","html-keyboard-response","111","244162","0.0-11.0-0.7","nl8z3IONYr","63d8915c1adeaab48c7f2029","6617fad957f7c6a12ea16e26","6622cc76a867ee3cbc3fd72c","fixation cross","null","","","","","","","","","","","",""
"","2027","html-keyboard-response","112","246189","0.0-11.0-1.7","nl8z3IONYr","63d8915c1adeaab48c7f2029","6617fad957f7c6a12ea16e26","6622cc76a867ee3cbc3fd72c","image grid","q","","","","","Ontogenetic_Distractor_Threat_target","ongrid","2500","q","6","Ontogenetic","true","experimental"
"","null","html-keyboard-response","113","246340","0.0-11.0-2.7","nl8z3IONYr","63d8915c1adeaab48c7f2029","6617fad957f7c6a12ea16e26","6622cc76a867ee3cbc3fd72c","
    <div id=""grid-container"">
        <!-- Grid items will be dynamically added here -->
    </div>    ","null","","","","","","","","","","","",""
"","null","html-keyboard-response","114","247042","0.0-11.0-0.8","nl8z3IONYr","63d8915c1adeaab48c7f2029","6617fad957f7c6a12ea16e26","6622cc76a867ee3cbc3fd72c","fixation cross","null","","","","","","","","","","","",""
"","2210","html-keyboard-response","115","249253","0.0-11.0-1.8","nl8z3IONYr","63d8915c1adeaab48c7f2029","6617fad957f7c6a12ea16e26","6622cc76a867ee3cbc3fd72c","image grid"," ","","","","","Ontogenetic_Distractor_notarget","ongrid","2500"," ","4","Ontogenetic","true","experimental"
"","null","html-keyboard-response","116","249405","0.0-11.0-2.8","nl8z3IONYr","63d8915c1adeaab48c7f2029","6617fad957f7c6a12ea16e26","6622cc76a867ee3cbc3fd72c","
    <div id=""grid-container"">
        <!-- Grid items will be dynamically added here -->
    </div>    ","null","","","","","","","","","","","",""
"","null","html-keyboard-response","117","250105","0.0-11.0-0.9","nl8z3IONYr","63d8915c1adeaab48c7f2029","6617fad957f7c6a12ea16e26","6622cc76a867ee3cbc3fd72c","fixation cross","null","","","","","","","","","","","",""
"","2283","html-keyboard-response","118","252390","0.0-11.0-1.9","nl8z3IONYr","63d8915c1adeaab48c7f2029","6617fad957f7c6a12ea16e26","6622cc76a867ee3cbc3fd72c","image grid","p","","","","","Ontogenetic_Distractor_Nonthreat_target","ongrid","2500","p","5","Ontogenetic","true","experimental"
"","null","html-keyboard-response","119","252542","0.0-11.0-2.9","nl8z3IONYr","63d8915c1adeaab48c7f2029","6617fad957f7c6a12ea16e26","6622cc76a867ee3cbc3fd72c","
    <div id=""grid-container"">
        <!-- Grid items will be dynamically added here -->
    </div>    ","null","","","","","","","","","","","",""
"","null","html-keyboard-response","120","253245","0.0-11.0-0.10","nl8z3IONYr","63d8915c1adeaab48c7f2029","6617fad957f7c6a12ea16e26","6622cc76a867ee3cbc3fd72c","fixation cross","null","","","","","","","","","","","",""
"","2273","html-keyboard-response","121","255518","0.0-11.0-1.10","nl8z3IONYr","63d8915c1adeaab48c7f2029","6617fad957f7c6a12ea16e26","6622cc76a867ee3cbc3fd72c","image grid","p","","","","","Ontogenetic_Distractor_Nonthreat_target","ongrid","2500","p","9","Ontogenetic","true","experimental"
"","null","html-keyboard-response","122","255669","0.0-11.0-2.10","nl8z3IONYr","63d8915c1adeaab48c7f2029","6617fad957f7c6a12ea16e26","6622cc76a867ee3cbc3fd72c","
    <div id=""grid-container"">
        <!-- Grid items will be dynamically added here -->
    </div>    ","null","","","","","","","","","","","",""
"","null","html-keyboard-response","123","256407","0.0-11.0-0.11","nl8z3IONYr","63d8915c1adeaab48c7f2029","6617fad957f7c6a12ea16e26","6622cc76a867ee3cbc3fd72c","fixation cross","null","","","","","","","","","","","",""
"","1768","html-keyboard-response","124","258174","0.0-11.0-1.11","nl8z3IONYr","63d8915c1adeaab48c7f2029","6617fad957f7c6a12ea16e26","6622cc76a867ee3cbc3fd72c","image grid","q","","","","","Ontogenetic_Distractor_Threat_target","ongrid","2500","q","9","Ontogenetic","true","experimental"
"","null","html-keyboard-response","125","258327","0.0-11.0-2.11","nl8z3IONYr","63d8915c1adeaab48c7f2029","6617fad957f7c6a12ea16e26","6622cc76a867ee3cbc3fd72c","
    <div id=""grid-container"">
        <!-- Grid items will be dynamically added here -->
    </div>    ","null","","","","","","","","","","","",""
"","null","html-keyboard-response","126","259029","0.0-11.0-0.12","nl8z3IONYr","63d8915c1adeaab48c7f2029","6617fad957f7c6a12ea16e26","6622cc76a867ee3cbc3fd72c","fixation cross","null","","","","","","","","","","","",""
"","1505","html-keyboard-response","127","260535","0.0-11.0-1.12","nl8z3IONYr","63d8915c1adeaab48c7f2029","6617fad957f7c6a12ea16e26","6622cc76a867ee3cbc3fd72c","image grid","q","","","","","Ontogenetic_Distractor_Threat_target","ongrid","2500","q","1","Ontogenetic","true","experimental"
"","null","html-keyboard-response","128","260685","0.0-11.0-2.12","nl8z3IONYr","63d8915c1adeaab48c7f2029","6617fad957f7c6a12ea16e26","6622cc76a867ee3cbc3fd72c","
    <div id=""grid-container"">
        <!-- Grid items will be dynamically added here -->
    </div>    ","null","","","","","","","","","","","",""
"","null","html-keyboard-response","129","261386","0.0-11.0-0.13","nl8z3IONYr","63d8915c1adeaab48c7f2029","6617fad957f7c6a12ea16e26","6622cc76a867ee3cbc3fd72c","fixation cross","null","","","","","","","","","","","",""
"","1461","html-keyboard-response","130","262846","0.0-11.0-1.13","nl8z3IONYr","63d8915c1adeaab48c7f2029","6617fad957f7c6a12ea16e26","6622cc76a867ee3cbc3fd72c","image grid","q","","","","","Ontogenetic_Distractor_Threat_target","ongrid","2500","q","9","Ontogenetic","true","experimental"
"","null","html-keyboard-response","131","262997","0.0-11.0-2.13","nl8z3IONYr","63d8915c1adeaab48c7f2029","6617fad957f7c6a12ea16e26","6622cc76a867ee3cbc3fd72c","
    <div id=""grid-container"">
        <!-- Grid items will be dynamically added here -->
    </div>    ","null","","","","","","","","","","","",""
"","null","html-keyboard-response","132","263701","0.0-11.0-0.14","nl8z3IONYr","63d8915c1adeaab48c7f2029","6617fad957f7c6a12ea16e26","6622cc76a867ee3cbc3fd72c","fixation cross","null","","","","","","","","","","","",""
"","978","html-keyboard-response","133","264679","0.0-11.0-1.14","nl8z3IONYr","63d8915c1adeaab48c7f2029","6617fad957f7c6a12ea16e26","6622cc76a867ee3cbc3fd72c","image grid","p","","","","","Ontogenetic_Distractor_Nonthreat_target","ongrid","2500","p","3","Ontogenetic","true","experimental"
"","null","html-keyboard-response","134","264831","0.0-11.0-2.14","nl8z3IONYr","63d8915c1adeaab48c7f2029","6617fad957f7c6a12ea16e26","6622cc76a867ee3cbc3fd72c","
    <div id=""grid-container"">
        <!-- Grid items will be dynamically added here -->
    </div>    ","null","","","","","","","","","","","",""
"","null","html-keyboard-response","135","265534","0.0-11.0-0.15","nl8z3IONYr","63d8915c1adeaab48c7f2029","6617fad957f7c6a12ea16e26","6622cc76a867ee3cbc3fd72c","fixation cross","null","","","","","","","","","","","",""
"","984","html-keyboard-response","136","266519","0.0-11.0-1.15","nl8z3IONYr","63d8915c1adeaab48c7f2029","6617fad957f7c6a12ea16e26","6622cc76a867ee3cbc3fd72c","image grid","p","","","","","Ontogenetic_Distractor_Nonthreat_target","ongrid","2500","p","4","Ontogenetic","true","experimental"
"","null","html-keyboard-response","137","266670","0.0-11.0-2.15","nl8z3IONYr","63d8915c1adeaab48c7f2029","6617fad957f7c6a12ea16e26","6622cc76a867ee3cbc3fd72c","
    <div id=""grid-container"">
        <!-- Grid items will be dynamically added here -->
    </div>    ","null","","","","","","","","","","","",""
"","null","html-keyboard-response","138","267373","0.0-11.0-0.16","nl8z3IONYr","63d8915c1adeaab48c7f2029","6617fad957f7c6a12ea16e26","6622cc76a867ee3cbc3fd72c","fixation cross","null","","","","","","","","","","","",""
"","995","html-keyboard-response","139","268367","0.0-11.0-1.16","nl8z3IONYr","63d8915c1adeaab48c7f2029","6617fad957f7c6a12ea16e26","6622cc76a867ee3cbc3fd72c","image grid","q","","","","","Ontogenetic_Distractor_Threat_target","ongrid","2500","q","7","Ontogenetic","true","experimental"
"","null","html-keyboard-response","140","268519","0.0-11.0-2.16","nl8z3IONYr","63d8915c1adeaab48c7f2029","6617fad957f7c6a12ea16e26","6622cc76a867ee3cbc3fd72c","
    <div id=""grid-container"">
        <!-- Grid items will be dynamically added here -->
    </div>    ","null","","","","","","","","","","","",""
"","null","html-keyboard-response","141","269221","0.0-11.0-0.17","nl8z3IONYr","63d8915c1adeaab48c7f2029","6617fad957f7c6a12ea16e26","6622cc76a867ee3cbc3fd72c","fixation cross","null","","","","","","","","","","","",""
"","1442","html-keyboard-response","142","270664","0.0-11.0-1.17","nl8z3IONYr","63d8915c1adeaab48c7f2029","6617fad957f7c6a12ea16e26","6622cc76a867ee3cbc3fd72c","image grid"," ","","","","","Ontogenetic_Distractor_notarget","ongrid","2500"," ","5","Ontogenetic","true","experimental"
"","null","html-keyboard-response","143","270814","0.0-11.0-2.17","nl8z3IONYr","63d8915c1adeaab48c7f2029","6617fad957f7c6a12ea16e26","6622cc76a867ee3cbc3fd72c","
    <div id=""grid-container"">
        <!-- Grid items will be dynamically added here -->
    </div>    ","null","","","","","","","","","","","",""
"","null","html-keyboard-response","144","271516","0.0-11.0-0.18","nl8z3IONYr","63d8915c1adeaab48c7f2029","6617fad957f7c6a12ea16e26","6622cc76a867ee3cbc3fd72c","fixation cross","null","","","","","","","","","","","",""
"","1043","html-keyboard-response","145","272559","0.0-11.0-1.18","nl8z3IONYr","63d8915c1adeaab48c7f2029","6617fad957f7c6a12ea16e26","6622cc76a867ee3cbc3fd72c","image grid","p","","","","","Ontogenetic_Distractor_Nonthreat_target","ongrid","2500","p","5","Ontogenetic","true","experimental"
"","null","html-keyboard-response","146","272711","0.0-11.0-2.18","nl8z3IONYr","63d8915c1adeaab48c7f2029","6617fad957f7c6a12ea16e26","6622cc76a867ee3cbc3fd72c","
    <div id=""grid-container"">
        <!-- Grid items will be dynamically added here -->
    </div>    ","null","","","","","","","","","","","",""
"","null","html-keyboard-response","147","273413","0.0-11.0-0.19","nl8z3IONYr","63d8915c1adeaab48c7f2029","6617fad957f7c6a12ea16e26","6622cc76a867ee3cbc3fd72c","fixation cross","null","","","","","","","","","","","",""
"","1386","html-keyboard-response","148","274800","0.0-11.0-1.19","nl8z3IONYr","63d8915c1adeaab48c7f2029","6617fad957f7c6a12ea16e26","6622cc76a867ee3cbc3fd72c","image grid","q","","","","","Ontogenetic_Distractor_Threat_target","ongrid","2500","q","8","Ontogenetic","true","experimental"
"","null","html-keyboard-response","149","274951","0.0-11.0-2.19","nl8z3IONYr","63d8915c1adeaab48c7f2029","6617fad957f7c6a12ea16e26","6622cc76a867ee3cbc3fd72c","
    <div id=""grid-container"">
        <!-- Grid items will be dynamically added here -->
    </div>    ","null","","","","","","","","","","","",""
"","null","html-keyboard-response","150","275652","0.0-11.0-0.20","nl8z3IONYr","63d8915c1adeaab48c7f2029","6617fad957f7c6a12ea16e26","6622cc76a867ee3cbc3fd72c","fixation cross","null","","","","","","","","","","","",""
"","1035","html-keyboard-response","151","276688","0.0-11.0-1.20","nl8z3IONYr","63d8915c1adeaab48c7f2029","6617fad957f7c6a12ea16e26","6622cc76a867ee3cbc3fd72c","image grid","p","","","","","Ontogenetic_Distractor_Nonthreat_target","ongrid","2500","p","8","Ontogenetic","true","experimental"
"","null","html-keyboard-response","152","276839","0.0-11.0-2.20","nl8z3IONYr","63d8915c1adeaab48c7f2029","6617fad957f7c6a12ea16e26","6622cc76a867ee3cbc3fd72c","
    <div id=""grid-container"">
        <!-- Grid items will be dynamically added here -->
    </div>    ","null","","","","","","","","","","","",""
"","null","html-keyboard-response","153","277541","0.0-11.0-0.21","nl8z3IONYr","63d8915c1adeaab48c7f2029","6617fad957f7c6a12ea16e26","6622cc76a867ee3cbc3fd72c","fixation cross","null","","","","","","","","","","","",""
"","858","html-keyboard-response","154","278401","0.0-11.0-1.21","nl8z3IONYr","63d8915c1adeaab48c7f2029","6617fad957f7c6a12ea16e26","6622cc76a867ee3cbc3fd72c","image grid","q","","","","","Ontogenetic_Distractor_Threat_target","ongrid","2500","q","2","Ontogenetic","true","experimental"
"","null","html-keyboard-response","155","278560","0.0-11.0-2.21","nl8z3IONYr","63d8915c1adeaab48c7f2029","6617fad957f7c6a12ea16e26","6622cc76a867ee3cbc3fd72c","
    <div id=""grid-container"">
        <!-- Grid items will be dynamically added here -->
    </div>    ","null","","","","","","","","","","","",""
"","null","html-keyboard-response","156","279261","0.0-11.0-0.22","nl8z3IONYr","63d8915c1adeaab48c7f2029","6617fad957f7c6a12ea16e26","6622cc76a867ee3cbc3fd72c","fixation cross","null","","","","","","","","","","","",""
"","915","html-keyboard-response","157","280176","0.0-11.0-1.22","nl8z3IONYr","63d8915c1adeaab48c7f2029","6617fad957f7c6a12ea16e26","6622cc76a867ee3cbc3fd72c","image grid","q","","","","","Ontogenetic_Distractor_Threat_target","ongrid","2500","q","2","Ontogenetic","true","experimental"
"","null","html-keyboard-response","158","280328","0.0-11.0-2.22","nl8z3IONYr","63d8915c1adeaab48c7f2029","6617fad957f7c6a12ea16e26","6622cc76a867ee3cbc3fd72c","
    <div id=""grid-container"">
        <!-- Grid items will be dynamically added here -->
    </div>    ","null","","","","","","","","","","","",""
"","null","html-keyboard-response","159","281030","0.0-11.0-0.23","nl8z3IONYr","63d8915c1adeaab48c7f2029","6617fad957f7c6a12ea16e26","6622cc76a867ee3cbc3fd72c","fixation cross","null","","","","","","","","","","","",""
"","1281","html-keyboard-response","160","282313","0.0-11.0-1.23","nl8z3IONYr","63d8915c1adeaab48c7f2029","6617fad957f7c6a12ea16e26","6622cc76a867ee3cbc3fd72c","image grid","q","","","","","Ontogenetic_Distractor_Threat_target","ongrid","2500","q","7","Ontogenetic","true","experimental"
"","null","html-keyboard-response","161","282465","0.0-11.0-2.23","nl8z3IONYr","63d8915c1adeaab48c7f2029","6617fad957f7c6a12ea16e26","6622cc76a867ee3cbc3fd72c","
    <div id=""grid-container"">
        <!-- Grid items will be dynamically added here -->
    </div>    ","null","","","","","","","","","","","",""
"","null","html-keyboard-response","162","283166","0.0-11.0-0.24","nl8z3IONYr","63d8915c1adeaab48c7f2029","6617fad957f7c6a12ea16e26","6622cc76a867ee3cbc3fd72c","fixation cross","null","","","","","","","","","","","",""
"","898","html-keyboard-response","163","284065","0.0-11.0-1.24","nl8z3IONYr","63d8915c1adeaab48c7f2029","6617fad957f7c6a12ea16e26","6622cc76a867ee3cbc3fd72c","image grid","q","","","","","Ontogenetic_Distractor_Threat_target","ongrid","2500","q","3","Ontogenetic","true","experimental"
"","null","html-keyboard-response","164","284215","0.0-11.0-2.24","nl8z3IONYr","63d8915c1adeaab48c7f2029","6617fad957f7c6a12ea16e26","6622cc76a867ee3cbc3fd72c","
    <div id=""grid-container"">
        <!-- Grid items will be dynamically added here -->
    </div>    ","null","","","","","","","","","","","",""
"","null","html-keyboard-response","165","284916","0.0-11.0-0.25","nl8z3IONYr","63d8915c1adeaab48c7f2029","6617fad957f7c6a12ea16e26","6622cc76a867ee3cbc3fd72c","fixation cross","null","","","","","","","","","","","",""
"","964","html-keyboard-response","166","285881","0.0-11.0-1.25","nl8z3IONYr","63d8915c1adeaab48c7f2029","6617fad957f7c6a12ea16e26","6622cc76a867ee3cbc3fd72c","image grid","q","","","","","Ontogenetic_Distractor_Threat_target","ongrid","2500","q","2","Ontogenetic","true","experimental"
"","null","html-keyboard-response","167","286032","0.0-11.0-2.25","nl8z3IONYr","63d8915c1adeaab48c7f2029","6617fad957f7c6a12ea16e26","6622cc76a867ee3cbc3fd72c","
    <div id=""grid-container"">
        <!-- Grid items will be dynamically added here -->
    </div>    ","null","","","","","","","","","","","",""
"","null","html-keyboard-response","168","286735","0.0-11.0-0.26","nl8z3IONYr","63d8915c1adeaab48c7f2029","6617fad957f7c6a12ea16e26","6622cc76a867ee3cbc3fd72c","fixation cross","null","","","","","","","","","","","",""
"","2265","html-keyboard-response","169","289000","0.0-11.0-1.26","nl8z3IONYr","63d8915c1adeaab48c7f2029","6617fad957f7c6a12ea16e26","6622cc76a867ee3cbc3fd72c","image grid"," ","","","","","Ontogenetic_Distractor_notarget","ongrid","2500"," ","2","Ontogenetic","true","experimental"
"","null","html-keyboard-response","170","289152","0.0-11.0-2.26","nl8z3IONYr","63d8915c1adeaab48c7f2029","6617fad957f7c6a12ea16e26","6622cc76a867ee3cbc3fd72c","
    <div id=""grid-container"">
        <!-- Grid items will be dynamically added here -->
    </div>    ","null","","","","","","","","","","","",""
"","null","html-keyboard-response","171","289854","0.0-11.0-0.27","nl8z3IONYr","63d8915c1adeaab48c7f2029","6617fad957f7c6a12ea16e26","6622cc76a867ee3cbc3fd72c","fixation cross","null","","","","","","","","","","","",""
"","915","html-keyboard-response","172","290769","0.0-11.0-1.27","nl8z3IONYr","63d8915c1adeaab48c7f2029","6617fad957f7c6a12ea16e26","6622cc76a867ee3cbc3fd72c","image grid","p","","","","","Ontogenetic_Distractor_Nonthreat_target","ongrid","2500","p","5","Ontogenetic","true","experimental"
"","null","html-keyboard-response","173","290920","0.0-11.0-2.27","nl8z3IONYr","63d8915c1adeaab48c7f2029","6617fad957f7c6a12ea16e26","6622cc76a867ee3cbc3fd72c","
    <div id=""grid-container"">
        <!-- Grid items will be dynamically added here -->
    </div>    ","null","","","","","","","","","","","",""
"","null","html-keyboard-response","174","291623","0.0-11.0-0.28","nl8z3IONYr","63d8915c1adeaab48c7f2029","6617fad957f7c6a12ea16e26","6622cc76a867ee3cbc3fd72c","fixation cross","null","","","","","","","","","","","",""
"","762","html-keyboard-response","175","292385","0.0-11.0-1.28","nl8z3IONYr","63d8915c1adeaab48c7f2029","6617fad957f7c6a12ea16e26","6622cc76a867ee3cbc3fd72c","image grid","q","","","","","Ontogenetic_Distractor_Threat_target","ongrid","2500","q","1","Ontogenetic","true","experimental"
"","null","html-keyboard-response","176","292539","0.0-11.0-2.28","nl8z3IONYr","63d8915c1adeaab48c7f2029","6617fad957f7c6a12ea16e26","6622cc76a867ee3cbc3fd72c","
    <div id=""grid-container"">
        <!-- Grid items will be dynamically added here -->
    </div>    ","null","","","","","","","","","","","",""
"","null","html-keyboard-response","177","293241","0.0-11.0-0.29","nl8z3IONYr","63d8915c1adeaab48c7f2029","6617fad957f7c6a12ea16e26","6622cc76a867ee3cbc3fd72c","fixation cross","null","","","","","","","","","","","",""
"","1376","html-keyboard-response","178","294618","0.0-11.0-1.29","nl8z3IONYr","63d8915c1adeaab48c7f2029","6617fad957f7c6a12ea16e26","6622cc76a867ee3cbc3fd72c","image grid","p","","","","","Ontogenetic_Distractor_Nonthreat_target","ongrid","2500","p","8","Ontogenetic","true","experimental"
"","null","html-keyboard-response","179","294769","0.0-11.0-2.29","nl8z3IONYr","63d8915c1adeaab48c7f2029","6617fad957f7c6a12ea16e26","6622cc76a867ee3cbc3fd72c","
    <div id=""grid-container"">
        <!-- Grid items will be dynamically added here -->
    </div>    ","null","","","","","","","","","","","",""
"","null","html-keyboard-response","180","295471","0.0-11.0-0.30","nl8z3IONYr","63d8915c1adeaab48c7f2029","6617fad957f7c6a12ea16e26","6622cc76a867ee3cbc3fd72c","fixation cross","null","","","","","","","","","","","",""
"","763","html-keyboard-response","181","296234","0.0-11.0-1.30","nl8z3IONYr","63d8915c1adeaab48c7f2029","6617fad957f7c6a12ea16e26","6622cc76a867ee3cbc3fd72c","image grid","p","","","","","Ontogenetic_Distractor_Nonthreat_target","ongrid","2500","p","5","Ontogenetic","true","experimental"
"","null","html-keyboard-response","182","296385","0.0-11.0-2.30","nl8z3IONYr","63d8915c1adeaab48c7f2029","6617fad957f7c6a12ea16e26","6622cc76a867ee3cbc3fd72c","
    <div id=""grid-container"">
        <!-- Grid items will be dynamically added here -->
    </div>    ","null","","","","","","","","","","","",""
"","null","html-keyboard-response","183","297089","0.0-11.0-0.31","nl8z3IONYr","63d8915c1adeaab48c7f2029","6617fad957f7c6a12ea16e26","6622cc76a867ee3cbc3fd72c","fixation cross","null","","","","","","","","","","","",""
"","776","html-keyboard-response","184","297865","0.0-11.0-1.31","nl8z3IONYr","63d8915c1adeaab48c7f2029","6617fad957f7c6a12ea16e26","6622cc76a867ee3cbc3fd72c","image grid","p","","","","","Ontogenetic_Distractor_Nonthreat_target","ongrid","2500","p","2","Ontogenetic","true","experimental"
"","null","html-keyboard-response","185","298016","0.0-11.0-2.31","nl8z3IONYr","63d8915c1adeaab48c7f2029","6617fad957f7c6a12ea16e26","6622cc76a867ee3cbc3fd72c","
    <div id=""grid-container"">
        <!-- Grid items will be dynamically added here -->
    </div>    ","null","","","","","","","","","","","",""
"","null","html-keyboard-response","186","298718","0.0-11.0-0.32","nl8z3IONYr","63d8915c1adeaab48c7f2029","6617fad957f7c6a12ea16e26","6622cc76a867ee3cbc3fd72c","fixation cross","null","","","","","","","","","","","",""
"","1324","html-keyboard-response","187","300044","0.0-11.0-1.32","nl8z3IONYr","63d8915c1adeaab48c7f2029","6617fad957f7c6a12ea16e26","6622cc76a867ee3cbc3fd72c","image grid","p","","","","","Ontogenetic_Distractor_Nonthreat_target","ongrid","2500","p","5","Ontogenetic","true","experimental"
"","null","html-keyboard-response","188","300197","0.0-11.0-2.32","nl8z3IONYr","63d8915c1adeaab48c7f2029","6617fad957f7c6a12ea16e26","6622cc76a867ee3cbc3fd72c","
    <div id=""grid-container"">
        <!-- Grid items will be dynamically added here -->
    </div>    ","null","","","","","","","","","","","",""
"","null","html-keyboard-response","189","300899","0.0-11.0-0.33","nl8z3IONYr","63d8915c1adeaab48c7f2029","6617fad957f7c6a12ea16e26","6622cc76a867ee3cbc3fd72c","fixation cross","null","","","","","","","","","","","",""
"","975","html-keyboard-response","190","301874","0.0-11.0-1.33","nl8z3IONYr","63d8915c1adeaab48c7f2029","6617fad957f7c6a12ea16e26","6622cc76a867ee3cbc3fd72c","image grid","p","","","","","Ontogenetic_Distractor_Nonthreat_target","ongrid","2500","p","9","Ontogenetic","true","experimental"
"","null","html-keyboard-response","191","302025","0.0-11.0-2.33","nl8z3IONYr","63d8915c1adeaab48c7f2029","6617fad957f7c6a12ea16e26","6622cc76a867ee3cbc3fd72c","
    <div id=""grid-container"">
        <!-- Grid items will be dynamically added here -->
    </div>    ","null","","","","","","","","","","","",""
"","null","html-keyboard-response","192","302729","0.0-11.0-0.34","nl8z3IONYr","63d8915c1adeaab48c7f2029","6617fad957f7c6a12ea16e26","6622cc76a867ee3cbc3fd72c","fixation cross","null","","","","","","","","","","","",""
"","816","html-keyboard-response","193","303546","0.0-11.0-1.34","nl8z3IONYr","63d8915c1adeaab48c7f2029","6617fad957f7c6a12ea16e26","6622cc76a867ee3cbc3fd72c","image grid","p","","","","","Ontogenetic_Distractor_Nonthreat_target","ongrid","2500","p","3","Ontogenetic","true","experimental"
"","null","html-keyboard-response","194","303697","0.0-11.0-2.34","nl8z3IONYr","63d8915c1adeaab48c7f2029","6617fad957f7c6a12ea16e26","6622cc76a867ee3cbc3fd72c","
    <div id=""grid-container"">
        <!-- Grid items will be dynamically added here -->
    </div>    ","null","","","","","","","","","","","",""
"","null","html-keyboard-response","195","304398","0.0-11.0-0.35","nl8z3IONYr","63d8915c1adeaab48c7f2029","6617fad957f7c6a12ea16e26","6622cc76a867ee3cbc3fd72c","fixation cross","null","","","","","","","","","","","",""
"","979","html-keyboard-response","196","305379","0.0-11.0-1.35","nl8z3IONYr","63d8915c1adeaab48c7f2029","6617fad957f7c6a12ea16e26","6622cc76a867ee3cbc3fd72c","image grid","q","","","","","Ontogenetic_Distractor_Threat_target","ongrid","2500","q","7","Ontogenetic","true","experimental"
"","null","html-keyboard-response","197","305530","0.0-11.0-2.35","nl8z3IONYr","63d8915c1adeaab48c7f2029","6617fad957f7c6a12ea16e26","6622cc76a867ee3cbc3fd72c","
    <div id=""grid-container"">
        <!-- Grid items will be dynamically added here -->
    </div>    ","null","","","","","","","","","","","",""
"","null","html-keyboard-response","198","306232","0.0-11.0-0.36","nl8z3IONYr","63d8915c1adeaab48c7f2029","6617fad957f7c6a12ea16e26","6622cc76a867ee3cbc3fd72c","fixation cross","null","","","","","","","","","","","",""
"","714","html-keyboard-response","199","306947","0.0-11.0-1.36","nl8z3IONYr","63d8915c1adeaab48c7f2029","6617fad957f7c6a12ea16e26","6622cc76a867ee3cbc3fd72c","image grid","q","","","","","Ontogenetic_Distractor_Threat_target","ongrid","2500","q","2","Ontogenetic","true","experimental"
"","null","html-keyboard-response","200","307098","0.0-11.0-2.36","nl8z3IONYr","63d8915c1adeaab48c7f2029","6617fad957f7c6a12ea16e26","6622cc76a867ee3cbc3fd72c","
    <div id=""grid-container"">
        <!-- Grid items will be dynamically added here -->
    </div>    ","null","","","","","","","","","","","",""
"","null","html-keyboard-response","201","307798","0.0-11.0-0.37","nl8z3IONYr","63d8915c1adeaab48c7f2029","6617fad957f7c6a12ea16e26","6622cc76a867ee3cbc3fd72c","fixation cross","null","","","","","","","","","","","",""
"","1189","html-keyboard-response","202","308987","0.0-11.0-1.37","nl8z3IONYr","63d8915c1adeaab48c7f2029","6617fad957f7c6a12ea16e26","6622cc76a867ee3cbc3fd72c","image grid","p","","","","","Ontogenetic_Distractor_Nonthreat_target","ongrid","2500","p","9","Ontogenetic","true","experimental"
"","null","html-keyboard-response","203","309138","0.0-11.0-2.37","nl8z3IONYr","63d8915c1adeaab48c7f2029","6617fad957f7c6a12ea16e26","6622cc76a867ee3cbc3fd72c","
    <div id=""grid-container"">
        <!-- Grid items will be dynamically added here -->
    </div>    ","null","","","","","","","","","","","",""
"","null","html-keyboard-response","204","309839","0.0-11.0-0.38","nl8z3IONYr","63d8915c1adeaab48c7f2029","6617fad957f7c6a12ea16e26","6622cc76a867ee3cbc3fd72c","fixation cross","null","","","","","","","","","","","",""
"","917","html-keyboard-response","205","310755","0.0-11.0-1.38","nl8z3IONYr","63d8915c1adeaab48c7f2029","6617fad957f7c6a12ea16e26","6622cc76a867ee3cbc3fd72c","image grid","p","","","","","Ontogenetic_Distractor_Nonthreat_target","ongrid","2500","p","8","Ontogenetic","true","experimental"
"","null","html-keyboard-response","206","310907","0.0-11.0-2.38","nl8z3IONYr","63d8915c1adeaab48c7f2029","6617fad957f7c6a12ea16e26","6622cc76a867ee3cbc3fd72c","
    <div id=""grid-container"">
        <!-- Grid items will be dynamically added here -->
    </div>    ","null","","","","","","","","","","","",""
"","null","html-keyboard-response","207","311609","0.0-11.0-0.39","nl8z3IONYr","63d8915c1adeaab48c7f2029","6617fad957f7c6a12ea16e26","6622cc76a867ee3cbc3fd72c","fixation cross","null","","","","","","","","","","","",""
"","987","html-keyboard-response","208","312597","0.0-11.0-1.39","nl8z3IONYr","63d8915c1adeaab48c7f2029","6617fad957f7c6a12ea16e26","6622cc76a867ee3cbc3fd72c","image grid","p","","","","","Ontogenetic_Distractor_Nonthreat_target","ongrid","2500","p","1","Ontogenetic","true","experimental"
"","null","html-keyboard-response","209","312748","0.0-11.0-2.39","nl8z3IONYr","63d8915c1adeaab48c7f2029","6617fad957f7c6a12ea16e26","6622cc76a867ee3cbc3fd72c","
    <div id=""grid-container"">
        <!-- Grid items will be dynamically added here -->
    </div>    ","null","","","","","","","","","","","",""
"","3494","html-keyboard-response","210","316444","0.0-12.0","nl8z3IONYr","63d8915c1adeaab48c7f2029","6617fad957f7c6a12ea16e26","6622cc76a867ee3cbc3fd72c","break screen"," ","","","","","","","","","","","",""
"","null","html-keyboard-response","211","318945","0.0-13.0-0.0","nl8z3IONYr","63d8915c1adeaab48c7f2029","6617fad957f7c6a12ea16e26","6622cc76a867ee3cbc3fd72c","fixation cross","null","","","","","","","","","","","",""
"","963","html-keyboard-response","212","319908","0.0-13.0-1.0","nl8z3IONYr","63d8915c1adeaab48c7f2029","6617fad957f7c6a12ea16e26","6622cc76a867ee3cbc3fd72c","image grid","q","","","","","Ontogenetic_Distractor_Threat_target","ongrid","2500","q","2","Ontogenetic","true","experimental"
"","null","html-keyboard-response","213","320059","0.0-13.0-2.0","nl8z3IONYr","63d8915c1adeaab48c7f2029","6617fad957f7c6a12ea16e26","6622cc76a867ee3cbc3fd72c","
    <div id=""grid-container"">
        <!-- Grid items will be dynamically added here -->
    </div>    ","null","","","","","","","","","","","",""
"","null","html-keyboard-response","214","320761","0.0-13.0-0.1","nl8z3IONYr","63d8915c1adeaab48c7f2029","6617fad957f7c6a12ea16e26","6622cc76a867ee3cbc3fd72c","fixation cross","null","","","","","","","","","","","",""
"","1098","html-keyboard-response","215","321861","0.0-13.0-1.1","nl8z3IONYr","63d8915c1adeaab48c7f2029","6617fad957f7c6a12ea16e26","6622cc76a867ee3cbc3fd72c","image grid","p","","","","","Ontogenetic_Distractor_Nonthreat_target","ongrid","2500","p","9","Ontogenetic","true","experimental"
"","null","html-keyboard-response","216","322013","0.0-13.0-2.1","nl8z3IONYr","63d8915c1adeaab48c7f2029","6617fad957f7c6a12ea16e26","6622cc76a867ee3cbc3fd72c","
    <div id=""grid-container"">
        <!-- Grid items will be dynamically added here -->
    </div>    ","null","","","","","","","","","","","",""
"","null","html-keyboard-response","217","322761","0.0-13.0-0.2","nl8z3IONYr","63d8915c1adeaab48c7f2029","6617fad957f7c6a12ea16e26","6622cc76a867ee3cbc3fd72c","fixation cross","null","","","","","","","","","","","",""
"","908","html-keyboard-response","218","323669","0.0-13.0-1.2","nl8z3IONYr","63d8915c1adeaab48c7f2029","6617fad957f7c6a12ea16e26","6622cc76a867ee3cbc3fd72c","image grid","p","","","","","Ontogenetic_Distractor_Nonthreat_target","ongrid","2500","p","9","Ontogenetic","true","experimental"
"","null","html-keyboard-response","219","323820","0.0-13.0-2.2","nl8z3IONYr","63d8915c1adeaab48c7f2029","6617fad957f7c6a12ea16e26","6622cc76a867ee3cbc3fd72c","
    <div id=""grid-container"">
        <!-- Grid items will be dynamically added here -->
    </div>    ","null","","","","","","","","","","","",""
"","null","html-keyboard-response","220","324521","0.0-13.0-0.3","nl8z3IONYr","63d8915c1adeaab48c7f2029","6617fad957f7c6a12ea16e26","6622cc76a867ee3cbc3fd72c","fixation cross","null","","","","","","","","","","","",""
"","683","html-keyboard-response","221","325206","0.0-13.0-1.3","nl8z3IONYr","63d8915c1adeaab48c7f2029","6617fad957f7c6a12ea16e26","6622cc76a867ee3cbc3fd72c","image grid","q","","","","","Ontogenetic_Distractor_Threat_target","ongrid","2500","q","4","Ontogenetic","true","experimental"
"","null","html-keyboard-response","222","325358","0.0-13.0-2.3","nl8z3IONYr","63d8915c1adeaab48c7f2029","6617fad957f7c6a12ea16e26","6622cc76a867ee3cbc3fd72c","
    <div id=""grid-container"">
        <!-- Grid items will be dynamically added here -->
    </div>    ","null","","","","","","","","","","","",""
"","null","html-keyboard-response","223","326058","0.0-13.0-0.4","nl8z3IONYr","63d8915c1adeaab48c7f2029","6617fad957f7c6a12ea16e26","6622cc76a867ee3cbc3fd72c","fixation cross","null","","","","","","","","","","","",""
"","954","html-keyboard-response","224","327012","0.0-13.0-1.4","nl8z3IONYr","63d8915c1adeaab48c7f2029","6617fad957f7c6a12ea16e26","6622cc76a867ee3cbc3fd72c","image grid"," ","","","","","Ontogenetic_Distractor_notarget","ongrid","2500"," ","1","Ontogenetic","true","experimental"
"","null","html-keyboard-response","225","327163","0.0-13.0-2.4","nl8z3IONYr","63d8915c1adeaab48c7f2029","6617fad957f7c6a12ea16e26","6622cc76a867ee3cbc3fd72c","
    <div id=""grid-container"">
        <!-- Grid items will be dynamically added here -->
    </div>    ","null","","","","","","","","","","","",""
"","null","html-keyboard-response","226","327864","0.0-13.0-0.5","nl8z3IONYr","63d8915c1adeaab48c7f2029","6617fad957f7c6a12ea16e26","6622cc76a867ee3cbc3fd72c","fixation cross","null","","","","","","","","","","","",""
"","844","html-keyboard-response","227","328709","0.0-13.0-1.5","nl8z3IONYr","63d8915c1adeaab48c7f2029","6617fad957f7c6a12ea16e26","6622cc76a867ee3cbc3fd72c","image grid","q","","","","","Ontogenetic_Distractor_Threat_target","ongrid","2500","q","5","Ontogenetic","true","experimental"
"","null","html-keyboard-response","228","328861","0.0-13.0-2.5","nl8z3IONYr","63d8915c1adeaab48c7f2029","6617fad957f7c6a12ea16e26","6622cc76a867ee3cbc3fd72c","
    <div id=""grid-container"">
        <!-- Grid items will be dynamically added here -->
    </div>    ","null","","","","","","","","","","","",""
"","null","html-keyboard-response","229","329563","0.0-13.0-0.6","nl8z3IONYr","63d8915c1adeaab48c7f2029","6617fad957f7c6a12ea16e26","6622cc76a867ee3cbc3fd72c","fixation cross","null","","","","","","","","","","","",""
"","737","html-keyboard-response","230","330301","0.0-13.0-1.6","nl8z3IONYr","63d8915c1adeaab48c7f2029","6617fad957f7c6a12ea16e26","6622cc76a867ee3cbc3fd72c","image grid","q","","","","","Ontogenetic_Distractor_Threat_target","ongrid","2500","q","4","Ontogenetic","true","experimental"
"","null","html-keyboard-response","231","330452","0.0-13.0-2.6","nl8z3IONYr","63d8915c1adeaab48c7f2029","6617fad957f7c6a12ea16e26","6622cc76a867ee3cbc3fd72c","
    <div id=""grid-container"">
        <!-- Grid items will be dynamically added here -->
    </div>    ","null","","","","","","","","","","","",""
"","null","html-keyboard-response","232","331153","0.0-13.0-0.7","nl8z3IONYr","63d8915c1adeaab48c7f2029","6617fad957f7c6a12ea16e26","6622cc76a867ee3cbc3fd72c","fixation cross","null","","","","","","","","","","","",""
"","836","html-keyboard-response","233","331990","0.0-13.0-1.7","nl8z3IONYr","63d8915c1adeaab48c7f2029","6617fad957f7c6a12ea16e26","6622cc76a867ee3cbc3fd72c","image grid","p","","","","","Ontogenetic_Distractor_Nonthreat_target","ongrid","2500","p","3","Ontogenetic","true","experimental"
"","null","html-keyboard-response","234","332141","0.0-13.0-2.7","nl8z3IONYr","63d8915c1adeaab48c7f2029","6617fad957f7c6a12ea16e26","6622cc76a867ee3cbc3fd72c","
    <div id=""grid-container"">
        <!-- Grid items will be dynamically added here -->
    </div>    ","null","","","","","","","","","","","",""
"","null","html-keyboard-response","235","332842","0.0-13.0-0.8","nl8z3IONYr","63d8915c1adeaab48c7f2029","6617fad957f7c6a12ea16e26","6622cc76a867ee3cbc3fd72c","fixation cross","null","","","","","","","","","","","",""
"","1506","html-keyboard-response","236","334349","0.0-13.0-1.8","nl8z3IONYr","63d8915c1adeaab48c7f2029","6617fad957f7c6a12ea16e26","6622cc76a867ee3cbc3fd72c","image grid","p","","","","","Ontogenetic_Distractor_Nonthreat_target","ongrid","2500","p","9","Ontogenetic","true","experimental"
"","null","html-keyboard-response","237","334502","0.0-13.0-2.8","nl8z3IONYr","63d8915c1adeaab48c7f2029","6617fad957f7c6a12ea16e26","6622cc76a867ee3cbc3fd72c","
    <div id=""grid-container"">
        <!-- Grid items will be dynamically added here -->
    </div>    ","null","","","","","","","","","","","",""
"","null","html-keyboard-response","238","335203","0.0-13.0-0.9","nl8z3IONYr","63d8915c1adeaab48c7f2029","6617fad957f7c6a12ea16e26","6622cc76a867ee3cbc3fd72c","fixation cross","null","","","","","","","","","","","",""
"","938","html-keyboard-response","239","336141","0.0-13.0-1.9","nl8z3IONYr","63d8915c1adeaab48c7f2029","6617fad957f7c6a12ea16e26","6622cc76a867ee3cbc3fd72c","image grid","p","","","","","Ontogenetic_Distractor_Nonthreat_target","ongrid","2500","p","9","Ontogenetic","true","experimental"
"","null","html-keyboard-response","240","336293","0.0-13.0-2.9","nl8z3IONYr","63d8915c1adeaab48c7f2029","6617fad957f7c6a12ea16e26","6622cc76a867ee3cbc3fd72c","
    <div id=""grid-container"">
        <!-- Grid items will be dynamically added here -->
    </div>    ","null","","","","","","","","","","","",""
"","null","html-keyboard-response","241","336996","0.0-13.0-0.10","nl8z3IONYr","63d8915c1adeaab48c7f2029","6617fad957f7c6a12ea16e26","6622cc76a867ee3cbc3fd72c","fixation cross","null","","","","","","","","","","","",""
"","738","html-keyboard-response","242","337733","0.0-13.0-1.10","nl8z3IONYr","63d8915c1adeaab48c7f2029","6617fad957f7c6a12ea16e26","6622cc76a867ee3cbc3fd72c","image grid","p","","","","","Ontogenetic_Distractor_Nonthreat_target","ongrid","2500","p","1","Ontogenetic","true","experimental"
"","null","html-keyboard-response","243","337886","0.0-13.0-2.10","nl8z3IONYr","63d8915c1adeaab48c7f2029","6617fad957f7c6a12ea16e26","6622cc76a867ee3cbc3fd72c","
    <div id=""grid-container"">
        <!-- Grid items will be dynamically added here -->
    </div>    ","null","","","","","","","","","","","",""
"","null","html-keyboard-response","244","338586","0.0-13.0-0.11","nl8z3IONYr","63d8915c1adeaab48c7f2029","6617fad957f7c6a12ea16e26","6622cc76a867ee3cbc3fd72c","fixation cross","null","","","","","","","","","","","",""
"","843","html-keyboard-response","245","339430","0.0-13.0-1.11","nl8z3IONYr","63d8915c1adeaab48c7f2029","6617fad957f7c6a12ea16e26","6622cc76a867ee3cbc3fd72c","image grid","q","","","","","Ontogenetic_Distractor_Threat_target","ongrid","2500","q","6","Ontogenetic","true","experimental"
"","null","html-keyboard-response","246","339583","0.0-13.0-2.11","nl8z3IONYr","63d8915c1adeaab48c7f2029","6617fad957f7c6a12ea16e26","6622cc76a867ee3cbc3fd72c","
    <div id=""grid-container"">
        <!-- Grid items will be dynamically added here -->
    </div>    ","null","","","","","","","","","","","",""
"","null","html-keyboard-response","247","340312","0.0-13.0-0.12","nl8z3IONYr","63d8915c1adeaab48c7f2029","6617fad957f7c6a12ea16e26","6622cc76a867ee3cbc3fd72c","fixation cross","null","","","","","","","","","","","",""
"","654","html-keyboard-response","248","340966","0.0-13.0-1.12","nl8z3IONYr","63d8915c1adeaab48c7f2029","6617fad957f7c6a12ea16e26","6622cc76a867ee3cbc3fd72c","image grid","q","","","","","Ontogenetic_Distractor_Threat_target","ongrid","2500","q","5","Ontogenetic","true","experimental"
"","null","html-keyboard-response","249","341119","0.0-13.0-2.12","nl8z3IONYr","63d8915c1adeaab48c7f2029","6617fad957f7c6a12ea16e26","6622cc76a867ee3cbc3fd72c","
    <div id=""grid-container"">
        <!-- Grid items will be dynamically added here -->
    </div>    ","null","","","","","","","","","","","",""
"","null","html-keyboard-response","250","341821","0.0-13.0-0.13","nl8z3IONYr","63d8915c1adeaab48c7f2029","6617fad957f7c6a12ea16e26","6622cc76a867ee3cbc3fd72c","fixation cross","null","","","","","","","","","","","",""
"","2169","html-keyboard-response","251","343990","0.0-13.0-1.13","nl8z3IONYr","63d8915c1adeaab48c7f2029","6617fad957f7c6a12ea16e26","6622cc76a867ee3cbc3fd72c","image grid","q","","","","","Ontogenetic_Distractor_Threat_target","ongrid","2500","q","7","Ontogenetic","true","experimental"
"","null","html-keyboard-response","252","344142","0.0-13.0-2.13","nl8z3IONYr","63d8915c1adeaab48c7f2029","6617fad957f7c6a12ea16e26","6622cc76a867ee3cbc3fd72c","
    <div id=""grid-container"">
        <!-- Grid items will be dynamically added here -->
    </div>    ","null","","","","","","","","","","","",""
"","null","html-keyboard-response","253","344843","0.0-13.0-0.14","nl8z3IONYr","63d8915c1adeaab48c7f2029","6617fad957f7c6a12ea16e26","6622cc76a867ee3cbc3fd72c","fixation cross","null","","","","","","","","","","","",""
"","956","html-keyboard-response","254","345798","0.0-13.0-1.14","nl8z3IONYr","63d8915c1adeaab48c7f2029","6617fad957f7c6a12ea16e26","6622cc76a867ee3cbc3fd72c","image grid","q","","","","","Ontogenetic_Distractor_Threat_target","ongrid","2500","q","8","Ontogenetic","true","experimental"
"","null","html-keyboard-response","255","345951","0.0-13.0-2.14","nl8z3IONYr","63d8915c1adeaab48c7f2029","6617fad957f7c6a12ea16e26","6622cc76a867ee3cbc3fd72c","
    <div id=""grid-container"">
        <!-- Grid items will be dynamically added here -->
    </div>    ","null","","","","","","","","","","","",""
"","null","html-keyboard-response","256","346652","0.0-13.0-0.15","nl8z3IONYr","63d8915c1adeaab48c7f2029","6617fad957f7c6a12ea16e26","6622cc76a867ee3cbc3fd72c","fixation cross","null","","","","","","","","","","","",""
"","778","html-keyboard-response","257","347430","0.0-13.0-1.15","nl8z3IONYr","63d8915c1adeaab48c7f2029","6617fad957f7c6a12ea16e26","6622cc76a867ee3cbc3fd72c","image grid","q","","","","","Ontogenetic_Distractor_Threat_target","ongrid","2500","q","2","Ontogenetic","true","experimental"
"","null","html-keyboard-response","258","347582","0.0-13.0-2.15","nl8z3IONYr","63d8915c1adeaab48c7f2029","6617fad957f7c6a12ea16e26","6622cc76a867ee3cbc3fd72c","
    <div id=""grid-container"">
        <!-- Grid items will be dynamically added here -->
    </div>    ","null","","","","","","","","","","","",""
"","null","html-keyboard-response","259","348284","0.0-13.0-0.16","nl8z3IONYr","63d8915c1adeaab48c7f2029","6617fad957f7c6a12ea16e26","6622cc76a867ee3cbc3fd72c","fixation cross","null","","","","","","","","","","","",""
"","723","html-keyboard-response","260","349006","0.0-13.0-1.16","nl8z3IONYr","63d8915c1adeaab48c7f2029","6617fad957f7c6a12ea16e26","6622cc76a867ee3cbc3fd72c","image grid","p","","","","","Ontogenetic_Distractor_Nonthreat_target","ongrid","2500","p","5","Ontogenetic","true","experimental"
"","null","html-keyboard-response","261","349157","0.0-13.0-2.16","nl8z3IONYr","63d8915c1adeaab48c7f2029","6617fad957f7c6a12ea16e26","6622cc76a867ee3cbc3fd72c","
    <div id=""grid-container"">
        <!-- Grid items will be dynamically added here -->
    </div>    ","null","","","","","","","","","","","",""
"","null","html-keyboard-response","262","349858","0.0-13.0-0.17","nl8z3IONYr","63d8915c1adeaab48c7f2029","6617fad957f7c6a12ea16e26","6622cc76a867ee3cbc3fd72c","fixation cross","null","","","","","","","","","","","",""
"","1101","html-keyboard-response","263","350959","0.0-13.0-1.17","nl8z3IONYr","63d8915c1adeaab48c7f2029","6617fad957f7c6a12ea16e26","6622cc76a867ee3cbc3fd72c","image grid","p","","","","","Ontogenetic_Distractor_Nonthreat_target","ongrid","2500","p","3","Ontogenetic","true","experimental"
"","null","html-keyboard-response","264","351111","0.0-13.0-2.17","nl8z3IONYr","63d8915c1adeaab48c7f2029","6617fad957f7c6a12ea16e26","6622cc76a867ee3cbc3fd72c","
    <div id=""grid-container"">
        <!-- Grid items will be dynamically added here -->
    </div>    ","null","","","","","","","","","","","",""
"","null","html-keyboard-response","265","351813","0.0-13.0-0.18","nl8z3IONYr","63d8915c1adeaab48c7f2029","6617fad957f7c6a12ea16e26","6622cc76a867ee3cbc3fd72c","fixation cross","null","","","","","","","","","","","",""
"","1722","html-keyboard-response","266","353535","0.0-13.0-1.18","nl8z3IONYr","63d8915c1adeaab48c7f2029","6617fad957f7c6a12ea16e26","6622cc76a867ee3cbc3fd72c","image grid"," ","","","","","Ontogenetic_Distractor_notarget","ongrid","2500"," ","7","Ontogenetic","true","experimental"
"","null","html-keyboard-response","267","353687","0.0-13.0-2.18","nl8z3IONYr","63d8915c1adeaab48c7f2029","6617fad957f7c6a12ea16e26","6622cc76a867ee3cbc3fd72c","
    <div id=""grid-container"">
        <!-- Grid items will be dynamically added here -->
    </div>    ","null","","","","","","","","","","","",""
"","null","html-keyboard-response","268","354388","0.0-13.0-0.19","nl8z3IONYr","63d8915c1adeaab48c7f2029","6617fad957f7c6a12ea16e26","6622cc76a867ee3cbc3fd72c","fixation cross","null","","","","","","","","","","","",""
"","883","html-keyboard-response","269","355272","0.0-13.0-1.19","nl8z3IONYr","63d8915c1adeaab48c7f2029","6617fad957f7c6a12ea16e26","6622cc76a867ee3cbc3fd72c","image grid","p","","","","","Ontogenetic_Distractor_Nonthreat_target","ongrid","2500","p","4","Ontogenetic","true","experimental"
"","null","html-keyboard-response","270","355424","0.0-13.0-2.19","nl8z3IONYr","63d8915c1adeaab48c7f2029","6617fad957f7c6a12ea16e26","6622cc76a867ee3cbc3fd72c","
    <div id=""grid-container"">
        <!-- Grid items will be dynamically added here -->
    </div>    ","null","","","","","","","","","","","",""
"","null","html-keyboard-response","271","356126","0.0-13.0-0.20","nl8z3IONYr","63d8915c1adeaab48c7f2029","6617fad957f7c6a12ea16e26","6622cc76a867ee3cbc3fd72c","fixation cross","null","","","","","","","","","","","",""
"","1160","html-keyboard-response","272","357287","0.0-13.0-1.20","nl8z3IONYr","63d8915c1adeaab48c7f2029","6617fad957f7c6a12ea16e26","6622cc76a867ee3cbc3fd72c","image grid","p","","","","","Ontogenetic_Distractor_Nonthreat_target","ongrid","2500","p","3","Ontogenetic","true","experimental"
"","null","html-keyboard-response","273","357439","0.0-13.0-2.20","nl8z3IONYr","63d8915c1adeaab48c7f2029","6617fad957f7c6a12ea16e26","6622cc76a867ee3cbc3fd72c","
    <div id=""grid-container"">
        <!-- Grid items will be dynamically added here -->
    </div>    ","null","","","","","","","","","","","",""
"","null","html-keyboard-response","274","358140","0.0-13.0-0.21","nl8z3IONYr","63d8915c1adeaab48c7f2029","6617fad957f7c6a12ea16e26","6622cc76a867ee3cbc3fd72c","fixation cross","null","","","","","","","","","","","",""
"","819","html-keyboard-response","275","358960","0.0-13.0-1.21","nl8z3IONYr","63d8915c1adeaab48c7f2029","6617fad957f7c6a12ea16e26","6622cc76a867ee3cbc3fd72c","image grid","p","","","","","Ontogenetic_Distractor_Nonthreat_target","ongrid","2500","p","3","Ontogenetic","true","experimental"
"","null","html-keyboard-response","276","359111","0.0-13.0-2.21","nl8z3IONYr","63d8915c1adeaab48c7f2029","6617fad957f7c6a12ea16e26","6622cc76a867ee3cbc3fd72c","
    <div id=""grid-container"">
        <!-- Grid items will be dynamically added here -->
    </div>    ","null","","","","","","","","","","","",""
"","null","html-keyboard-response","277","359811","0.0-13.0-0.22","nl8z3IONYr","63d8915c1adeaab48c7f2029","6617fad957f7c6a12ea16e26","6622cc76a867ee3cbc3fd72c","fixation cross","null","","","","","","","","","","","",""
"","2043","html-keyboard-response","278","361855","0.0-13.0-1.22","nl8z3IONYr","63d8915c1adeaab48c7f2029","6617fad957f7c6a12ea16e26","6622cc76a867ee3cbc3fd72c","image grid"," ","","","","","Ontogenetic_Distractor_notarget","ongrid","2500"," ","4","Ontogenetic","true","experimental"
"","null","html-keyboard-response","279","362007","0.0-13.0-2.22","nl8z3IONYr","63d8915c1adeaab48c7f2029","6617fad957f7c6a12ea16e26","6622cc76a867ee3cbc3fd72c","
    <div id=""grid-container"">
        <!-- Grid items will be dynamically added here -->
    </div>    ","null","","","","","","","","","","","",""
"","null","html-keyboard-response","280","362709","0.0-13.0-0.23","nl8z3IONYr","63d8915c1adeaab48c7f2029","6617fad957f7c6a12ea16e26","6622cc76a867ee3cbc3fd72c","fixation cross","null","","","","","","","","","","","",""
"","1226","html-keyboard-response","281","363936","0.0-13.0-1.23","nl8z3IONYr","63d8915c1adeaab48c7f2029","6617fad957f7c6a12ea16e26","6622cc76a867ee3cbc3fd72c","image grid","q","","","","","Ontogenetic_Distractor_Threat_target","ongrid","2500","q","3","Ontogenetic","true","experimental"
"","null","html-keyboard-response","282","364087","0.0-13.0-2.23","nl8z3IONYr","63d8915c1adeaab48c7f2029","6617fad957f7c6a12ea16e26","6622cc76a867ee3cbc3fd72c","
    <div id=""grid-container"">
        <!-- Grid items will be dynamically added here -->
    </div>    ","null","","","","","","","","","","","",""
"","null","html-keyboard-response","283","364789","0.0-13.0-0.24","nl8z3IONYr","63d8915c1adeaab48c7f2029","6617fad957f7c6a12ea16e26","6622cc76a867ee3cbc3fd72c","fixation cross","null","","","","","","","","","","","",""
"","1020","html-keyboard-response","284","365808","0.0-13.0-1.24","nl8z3IONYr","63d8915c1adeaab48c7f2029","6617fad957f7c6a12ea16e26","6622cc76a867ee3cbc3fd72c","image grid","p","","","","","Ontogenetic_Distractor_Nonthreat_target","ongrid","2500","p","9","Ontogenetic","true","experimental"
"","null","html-keyboard-response","285","365959","0.0-13.0-2.24","nl8z3IONYr","63d8915c1adeaab48c7f2029","6617fad957f7c6a12ea16e26","6622cc76a867ee3cbc3fd72c","
    <div id=""grid-container"">
        <!-- Grid items will be dynamically added here -->
    </div>    ","null","","","","","","","","","","","",""
"","null","html-keyboard-response","286","366660","0.0-13.0-0.25","nl8z3IONYr","63d8915c1adeaab48c7f2029","6617fad957f7c6a12ea16e26","6622cc76a867ee3cbc3fd72c","fixation cross","null","","","","","","","","","","","",""
"","820","html-keyboard-response","287","367481","0.0-13.0-1.25","nl8z3IONYr","63d8915c1adeaab48c7f2029","6617fad957f7c6a12ea16e26","6622cc76a867ee3cbc3fd72c","image grid","p","","","","","Ontogenetic_Distractor_Nonthreat_target","ongrid","2500","p","1","Ontogenetic","true","experimental"
"","null","html-keyboard-response","288","367632","0.0-13.0-2.25","nl8z3IONYr","63d8915c1adeaab48c7f2029","6617fad957f7c6a12ea16e26","6622cc76a867ee3cbc3fd72c","
    <div id=""grid-container"">
        <!-- Grid items will be dynamically added here -->
    </div>    ","null","","","","","","","","","","","",""
"","null","html-keyboard-response","289","368332","0.0-13.0-0.26","nl8z3IONYr","63d8915c1adeaab48c7f2029","6617fad957f7c6a12ea16e26","6622cc76a867ee3cbc3fd72c","fixation cross","null","","","","","","","","","","","",""
"","1548","html-keyboard-response","290","369881","0.0-13.0-1.26","nl8z3IONYr","63d8915c1adeaab48c7f2029","6617fad957f7c6a12ea16e26","6622cc76a867ee3cbc3fd72c","image grid","q","","","","","Ontogenetic_Distractor_Threat_target","ongrid","2500","q","9","Ontogenetic","true","experimental"
"","null","html-keyboard-response","291","370032","0.0-13.0-2.26","nl8z3IONYr","63d8915c1adeaab48c7f2029","6617fad957f7c6a12ea16e26","6622cc76a867ee3cbc3fd72c","
    <div id=""grid-container"">
        <!-- Grid items will be dynamically added here -->
    </div>    ","null","","","","","","","","","","","",""
"","null","html-keyboard-response","292","370734","0.0-13.0-0.27","nl8z3IONYr","63d8915c1adeaab48c7f2029","6617fad957f7c6a12ea16e26","6622cc76a867ee3cbc3fd72c","fixation cross","null","","","","","","","","","","","",""
"","785","html-keyboard-response","293","371521","0.0-13.0-1.27","nl8z3IONYr","63d8915c1adeaab48c7f2029","6617fad957f7c6a12ea16e26","6622cc76a867ee3cbc3fd72c","image grid","q","","","","","Ontogenetic_Distractor_Threat_target","ongrid","2500","q","5","Ontogenetic","true","experimental"
"","null","html-keyboard-response","294","371672","0.0-13.0-2.27","nl8z3IONYr","63d8915c1adeaab48c7f2029","6617fad957f7c6a12ea16e26","6622cc76a867ee3cbc3fd72c","
    <div id=""grid-container"">
        <!-- Grid items will be dynamically added here -->
    </div>    ","null","","","","","","","","","","","",""
"","null","html-keyboard-response","295","372373","0.0-13.0-0.28","nl8z3IONYr","63d8915c1adeaab48c7f2029","6617fad957f7c6a12ea16e26","6622cc76a867ee3cbc3fd72c","fixation cross","null","","","","","","","","","","","",""
"","890","html-keyboard-response","296","373264","0.0-13.0-1.28","nl8z3IONYr","63d8915c1adeaab48c7f2029","6617fad957f7c6a12ea16e26","6622cc76a867ee3cbc3fd72c","image grid","p","","","","","Ontogenetic_Distractor_Nonthreat_target","ongrid","2500","p","5","Ontogenetic","true","experimental"
"","null","html-keyboard-response","297","373416","0.0-13.0-2.28","nl8z3IONYr","63d8915c1adeaab48c7f2029","6617fad957f7c6a12ea16e26","6622cc76a867ee3cbc3fd72c","
    <div id=""grid-container"">
        <!-- Grid items will be dynamically added here -->
    </div>    ","null","","","","","","","","","","","",""
"","null","html-keyboard-response","298","374118","0.0-13.0-0.29","nl8z3IONYr","63d8915c1adeaab48c7f2029","6617fad957f7c6a12ea16e26","6622cc76a867ee3cbc3fd72c","fixation cross","null","","","","","","","","","","","",""
"","1114","html-keyboard-response","299","375233","0.0-13.0-1.29","nl8z3IONYr","63d8915c1adeaab48c7f2029","6617fad957f7c6a12ea16e26","6622cc76a867ee3cbc3fd72c","image grid","q","","","","","Ontogenetic_Distractor_Threat_target","ongrid","2500","q","3","Ontogenetic","true","experimental"
"","null","html-keyboard-response","300","375384","0.0-13.0-2.29","nl8z3IONYr","63d8915c1adeaab48c7f2029","6617fad957f7c6a12ea16e26","6622cc76a867ee3cbc3fd72c","
    <div id=""grid-container"">
        <!-- Grid items will be dynamically added here -->
    </div>    ","null","","","","","","","","","","","",""
"","null","html-keyboard-response","301","376088","0.0-13.0-0.30","nl8z3IONYr","63d8915c1adeaab48c7f2029","6617fad957f7c6a12ea16e26","6622cc76a867ee3cbc3fd72c","fixation cross","null","","","","","","","","","","","",""
"","1321","html-keyboard-response","302","377409","0.0-13.0-1.30","nl8z3IONYr","63d8915c1adeaab48c7f2029","6617fad957f7c6a12ea16e26","6622cc76a867ee3cbc3fd72c","image grid","p","","","","","Ontogenetic_Distractor_Nonthreat_target","ongrid","2500","p","9","Ontogenetic","true","experimental"
"","null","html-keyboard-response","303","377560","0.0-13.0-2.30","nl8z3IONYr","63d8915c1adeaab48c7f2029","6617fad957f7c6a12ea16e26","6622cc76a867ee3cbc3fd72c","
    <div id=""grid-container"">
        <!-- Grid items will be dynamically added here -->
    </div>    ","null","","","","","","","","","","","",""
"","null","html-keyboard-response","304","378261","0.0-13.0-0.31","nl8z3IONYr","63d8915c1adeaab48c7f2029","6617fad957f7c6a12ea16e26","6622cc76a867ee3cbc3fd72c","fixation cross","null","","","","","","","","","","","",""
"","1363","html-keyboard-response","305","379624","0.0-13.0-1.31","nl8z3IONYr","63d8915c1adeaab48c7f2029","6617fad957f7c6a12ea16e26","6622cc76a867ee3cbc3fd72c","image grid","p","","","","","Ontogenetic_Distractor_Nonthreat_target","ongrid","2500","p","4","Ontogenetic","true","experimental"
"","null","html-keyboard-response","306","379776","0.0-13.0-2.31","nl8z3IONYr","63d8915c1adeaab48c7f2029","6617fad957f7c6a12ea16e26","6622cc76a867ee3cbc3fd72c","
    <div id=""grid-container"">
        <!-- Grid items will be dynamically added here -->
    </div>    ","null","","","","","","","","","","","",""
"","null","html-keyboard-response","307","380478","0.0-13.0-0.32","nl8z3IONYr","63d8915c1adeaab48c7f2029","6617fad957f7c6a12ea16e26","6622cc76a867ee3cbc3fd72c","fixation cross","null","","","","","","","","","","","",""
"","722","html-keyboard-response","308","381201","0.0-13.0-1.32","nl8z3IONYr","63d8915c1adeaab48c7f2029","6617fad957f7c6a12ea16e26","6622cc76a867ee3cbc3fd72c","image grid","q","","","","","Ontogenetic_Distractor_Threat_target","ongrid","2500","q","5","Ontogenetic","true","experimental"
"","null","html-keyboard-response","309","381353","0.0-13.0-2.32","nl8z3IONYr","63d8915c1adeaab48c7f2029","6617fad957f7c6a12ea16e26","6622cc76a867ee3cbc3fd72c","
    <div id=""grid-container"">
        <!-- Grid items will be dynamically added here -->
    </div>    ","null","","","","","","","","","","","",""
"","null","html-keyboard-response","310","382055","0.0-13.0-0.33","nl8z3IONYr","63d8915c1adeaab48c7f2029","6617fad957f7c6a12ea16e26","6622cc76a867ee3cbc3fd72c","fixation cross","null","","","","","","","","","","","",""
"","1338","html-keyboard-response","311","383394","0.0-13.0-1.33","nl8z3IONYr","63d8915c1adeaab48c7f2029","6617fad957f7c6a12ea16e26","6622cc76a867ee3cbc3fd72c","image grid"," ","","","","","Ontogenetic_Distractor_notarget","ongrid","2500"," ","9","Ontogenetic","true","experimental"
"","null","html-keyboard-response","312","383546","0.0-13.0-2.33","nl8z3IONYr","63d8915c1adeaab48c7f2029","6617fad957f7c6a12ea16e26","6622cc76a867ee3cbc3fd72c","
    <div id=""grid-container"">
        <!-- Grid items will be dynamically added here -->
    </div>    ","null","","","","","","","","","","","",""
"","null","html-keyboard-response","313","384248","0.0-13.0-0.34","nl8z3IONYr","63d8915c1adeaab48c7f2029","6617fad957f7c6a12ea16e26","6622cc76a867ee3cbc3fd72c","fixation cross","null","","","","","","","","","","","",""
"","984","html-keyboard-response","314","385233","0.0-13.0-1.34","nl8z3IONYr","63d8915c1adeaab48c7f2029","6617fad957f7c6a12ea16e26","6622cc76a867ee3cbc3fd72c","image grid","q","","","","","Ontogenetic_Distractor_Threat_target","ongrid","2500","q","6","Ontogenetic","true","experimental"
"","null","html-keyboard-response","315","385384","0.0-13.0-2.34","nl8z3IONYr","63d8915c1adeaab48c7f2029","6617fad957f7c6a12ea16e26","6622cc76a867ee3cbc3fd72c","
    <div id=""grid-container"">
        <!-- Grid items will be dynamically added here -->
    </div>    ","null","","","","","","","","","","","",""
"","null","html-keyboard-response","316","386087","0.0-13.0-0.35","nl8z3IONYr","63d8915c1adeaab48c7f2029","6617fad957f7c6a12ea16e26","6622cc76a867ee3cbc3fd72c","fixation cross","null","","","","","","","","","","","",""
"","914","html-keyboard-response","317","387001","0.0-13.0-1.35","nl8z3IONYr","63d8915c1adeaab48c7f2029","6617fad957f7c6a12ea16e26","6622cc76a867ee3cbc3fd72c","image grid","p","","","","","Ontogenetic_Distractor_Nonthreat_target","ongrid","2500","p","3","Ontogenetic","true","experimental"
"","null","html-keyboard-response","318","387152","0.0-13.0-2.35","nl8z3IONYr","63d8915c1adeaab48c7f2029","6617fad957f7c6a12ea16e26","6622cc76a867ee3cbc3fd72c","
    <div id=""grid-container"">
        <!-- Grid items will be dynamically added here -->
    </div>    ","null","","","","","","","","","","","",""
"","null","html-keyboard-response","319","387854","0.0-13.0-0.36","nl8z3IONYr","63d8915c1adeaab48c7f2029","6617fad957f7c6a12ea16e26","6622cc76a867ee3cbc3fd72c","fixation cross","null","","","","","","","","","","","",""
"","778","html-keyboard-response","320","388634","0.0-13.0-1.36","nl8z3IONYr","63d8915c1adeaab48c7f2029","6617fad957f7c6a12ea16e26","6622cc76a867ee3cbc3fd72c","image grid","p","","","","","Ontogenetic_Distractor_Nonthreat_target","ongrid","2500","p","4","Ontogenetic","true","experimental"
"","null","html-keyboard-response","321","388784","0.0-13.0-2.36","nl8z3IONYr","63d8915c1adeaab48c7f2029","6617fad957f7c6a12ea16e26","6622cc76a867ee3cbc3fd72c","
    <div id=""grid-container"">
        <!-- Grid items will be dynamically added here -->
    </div>    ","null","","","","","","","","","","","",""
"","null","html-keyboard-response","322","389502","0.0-13.0-0.37","nl8z3IONYr","63d8915c1adeaab48c7f2029","6617fad957f7c6a12ea16e26","6622cc76a867ee3cbc3fd72c","fixation cross","null","","","","","","","","","","","",""
"","748","html-keyboard-response","323","390251","0.0-13.0-1.37","nl8z3IONYr","63d8915c1adeaab48c7f2029","6617fad957f7c6a12ea16e26","6622cc76a867ee3cbc3fd72c","image grid","q","","","","","Ontogenetic_Distractor_Threat_target","ongrid","2500","q","8","Ontogenetic","true","experimental"
"","null","html-keyboard-response","324","390402","0.0-13.0-2.37","nl8z3IONYr","63d8915c1adeaab48c7f2029","6617fad957f7c6a12ea16e26","6622cc76a867ee3cbc3fd72c","
    <div id=""grid-container"">
        <!-- Grid items will be dynamically added here -->
    </div>    ","null","","","","","","","","","","","",""
"","null","html-keyboard-response","325","391103","0.0-13.0-0.38","nl8z3IONYr","63d8915c1adeaab48c7f2029","6617fad957f7c6a12ea16e26","6622cc76a867ee3cbc3fd72c","fixation cross","null","","","","","","","","","","","",""
"","858","html-keyboard-response","326","391962","0.0-13.0-1.38","nl8z3IONYr","63d8915c1adeaab48c7f2029","6617fad957f7c6a12ea16e26","6622cc76a867ee3cbc3fd72c","image grid","q","","","","","Ontogenetic_Distractor_Threat_target","ongrid","2500","q","7","Ontogenetic","true","experimental"
"","null","html-keyboard-response","327","392113","0.0-13.0-2.38","nl8z3IONYr","63d8915c1adeaab48c7f2029","6617fad957f7c6a12ea16e26","6622cc76a867ee3cbc3fd72c","
    <div id=""grid-container"">
        <!-- Grid items will be dynamically added here -->
    </div>    ","null","","","","","","","","","","","",""
"","null","html-keyboard-response","328","392815","0.0-13.0-0.39","nl8z3IONYr","63d8915c1adeaab48c7f2029","6617fad957f7c6a12ea16e26","6622cc76a867ee3cbc3fd72c","fixation cross","null","","","","","","","","","","","",""
"","778","html-keyboard-response","329","393594","0.0-13.0-1.39","nl8z3IONYr","63d8915c1adeaab48c7f2029","6617fad957f7c6a12ea16e26","6622cc76a867ee3cbc3fd72c","image grid","q","","","","","Ontogenetic_Distractor_Threat_target","ongrid","2500","q","4","Ontogenetic","true","experimental"
"","null","html-keyboard-response","330","393746","0.0-13.0-2.39","nl8z3IONYr","63d8915c1adeaab48c7f2029","6617fad957f7c6a12ea16e26","6622cc76a867ee3cbc3fd72c","
    <div id=""grid-container"">
        <!-- Grid items will be dynamically added here -->
    </div>    ","null","","","","","","","","","","","",""
"","3792","html-keyboard-response","331","397738","0.0-14.0","nl8z3IONYr","63d8915c1adeaab48c7f2029","6617fad957f7c6a12ea16e26","6622cc76a867ee3cbc3fd72c","break screen"," ","","","","","","","","","","","",""
"","null","html-keyboard-response","332","400240","0.0-15.0-0.0","nl8z3IONYr","63d8915c1adeaab48c7f2029","6617fad957f7c6a12ea16e26","6622cc76a867ee3cbc3fd72c","fixation cross","null","","","","","","","","","","","",""
"","null","html-keyboard-response","333","401040","0.0-15.0-1.0","nl8z3IONYr","63d8915c1adeaab48c7f2029","6617fad957f7c6a12ea16e26","6622cc76a867ee3cbc3fd72c","
        <div id=""grid-container"">
        <!-- Grid items will be dynamically added here -->
    </div>    ","null","","","","","","","","","","","",""
"","2465","html-keyboard-response","334","402707","0.0-15.0-2.0","nl8z3IONYr","63d8915c1adeaab48c7f2029","6617fad957f7c6a12ea16e26","6622cc76a867ee3cbc3fd72c","mask grid","q","","","","","Phylogenetic_Distractor_Nonthreat_target","onmask","800","p","9","Phylogenetic","false","experimental"
"","null","html-keyboard-response","335","403411","0.0-15.0-0.1","nl8z3IONYr","63d8915c1adeaab48c7f2029","6617fad957f7c6a12ea16e26","6622cc76a867ee3cbc3fd72c","fixation cross","null","","","","","","","","","","","",""
"","null","html-keyboard-response","336","404211","0.0-15.0-1.1","nl8z3IONYr","63d8915c1adeaab48c7f2029","6617fad957f7c6a12ea16e26","6622cc76a867ee3cbc3fd72c","
        <div id=""grid-container"">
        <!-- Grid items will be dynamically added here -->
    </div>    ","null","","","","","","","","","","","",""
"","1343","html-keyboard-response","337","404754","0.0-15.0-2.1","nl8z3IONYr","63d8915c1adeaab48c7f2029","6617fad957f7c6a12ea16e26","6622cc76a867ee3cbc3fd72c","mask grid","q","","","","","Phylogenetic_Distractor_Threat_target","onmask","800","q","9","Phylogenetic","true","experimental"
"","null","html-keyboard-response","338","405457","0.0-15.0-0.2","nl8z3IONYr","63d8915c1adeaab48c7f2029","6617fad957f7c6a12ea16e26","6622cc76a867ee3cbc3fd72c","fixation cross","null","","","","","","","","","","","",""
"","null","html-keyboard-response","339","406291","0.0-15.0-1.2","nl8z3IONYr","63d8915c1adeaab48c7f2029","6617fad957f7c6a12ea16e26","6622cc76a867ee3cbc3fd72c","
        <div id=""grid-container"">
        <!-- Grid items will be dynamically added here -->
    </div>    ","null","","","","","","","","","","","",""
"","873","html-keyboard-response","340","406363","0.0-15.0-2.2","nl8z3IONYr","63d8915c1adeaab48c7f2029","6617fad957f7c6a12ea16e26","6622cc76a867ee3cbc3fd72c","mask grid","q","","","","","Phylogenetic_Distractor_Threat_target","onmask","800","q","6","Phylogenetic","true","experimental"
"","null","html-keyboard-response","341","407066","0.0-15.0-0.3","nl8z3IONYr","63d8915c1adeaab48c7f2029","6617fad957f7c6a12ea16e26","6622cc76a867ee3cbc3fd72c","fixation cross","null","","","","","","","","","","","",""
"","null","html-keyboard-response","342","407869","0.0-15.0-1.3","nl8z3IONYr","63d8915c1adeaab48c7f2029","6617fad957f7c6a12ea16e26","6622cc76a867ee3cbc3fd72c","
        <div id=""grid-container"">
        <!-- Grid items will be dynamically added here -->
    </div>    ","null","","","","","","","","","","","",""
"","845","html-keyboard-response","343","407915","0.0-15.0-2.3","nl8z3IONYr","63d8915c1adeaab48c7f2029","6617fad957f7c6a12ea16e26","6622cc76a867ee3cbc3fd72c","mask grid","q","","","","","Phylogenetic_Distractor_Threat_target","onmask","800","q","6","Phylogenetic","true","experimental"
"","null","html-keyboard-response","344","408618","0.0-15.0-0.4","nl8z3IONYr","63d8915c1adeaab48c7f2029","6617fad957f7c6a12ea16e26","6622cc76a867ee3cbc3fd72c","fixation cross","null","","","","","","","","","","","",""
"","746","html-keyboard-response","345","409363","0.0-15.0-1.4","nl8z3IONYr","63d8915c1adeaab48c7f2029","6617fad957f7c6a12ea16e26","6622cc76a867ee3cbc3fd72c","image grid","q","","","","","Phylogenetic_Distractor_Threat_target","ongrid","800","q","4","Phylogenetic","true","experimental"
"","null","html-keyboard-response","346","409515","0.0-15.0-2.4","nl8z3IONYr","63d8915c1adeaab48c7f2029","6617fad957f7c6a12ea16e26","6622cc76a867ee3cbc3fd72c","
    <div id=""grid-container"">
        <!-- Grid items will be dynamically added here -->
    </div>    ","null","","","","","","","","","","","",""
"","null","html-keyboard-response","347","410217","0.0-15.0-0.5","nl8z3IONYr","63d8915c1adeaab48c7f2029","6617fad957f7c6a12ea16e26","6622cc76a867ee3cbc3fd72c","fixation cross","null","","","","","","","","","","","",""
"","705","html-keyboard-response","348","410923","0.0-15.0-1.5","nl8z3IONYr","63d8915c1adeaab48c7f2029","6617fad957f7c6a12ea16e26","6622cc76a867ee3cbc3fd72c","image grid","p","","","","","Phylogenetic_Distractor_Nonthreat_target","ongrid","800","p","1","Phylogenetic","true","experimental"
"","null","html-keyboard-response","349","411074","0.0-15.0-2.5","nl8z3IONYr","63d8915c1adeaab48c7f2029","6617fad957f7c6a12ea16e26","6622cc76a867ee3cbc3fd72c","
    <div id=""grid-container"">
        <!-- Grid items will be dynamically added here -->
    </div>    ","null","","","","","","","","","","","",""
"","null","html-keyboard-response","350","411777","0.0-15.0-0.6","nl8z3IONYr","63d8915c1adeaab48c7f2029","6617fad957f7c6a12ea16e26","6622cc76a867ee3cbc3fd72c","fixation cross","null","","","","","","","","","","","",""
"","null","html-keyboard-response","351","412578","0.0-15.0-1.6","nl8z3IONYr","63d8915c1adeaab48c7f2029","6617fad957f7c6a12ea16e26","6622cc76a867ee3cbc3fd72c","
        <div id=""grid-container"">
        <!-- Grid items will be dynamically added here -->
    </div>    ","null","","","","","","","","","","","",""
"","1178","html-keyboard-response","352","412955","0.0-15.0-2.6","nl8z3IONYr","63d8915c1adeaab48c7f2029","6617fad957f7c6a12ea16e26","6622cc76a867ee3cbc3fd72c","mask grid","q","","","","","Phylogenetic_Distractor_Threat_target","onmask","800","q","4","Phylogenetic","true","experimental"
"","null","html-keyboard-response","353","413657","0.0-15.0-0.7","nl8z3IONYr","63d8915c1adeaab48c7f2029","6617fad957f7c6a12ea16e26","6622cc76a867ee3cbc3fd72c","fixation cross","null","","","","","","","","","","","",""
"","null","html-keyboard-response","354","414459","0.0-15.0-1.7","nl8z3IONYr","63d8915c1adeaab48c7f2029","6617fad957f7c6a12ea16e26","6622cc76a867ee3cbc3fd72c","
        <div id=""grid-container"">
        <!-- Grid items will be dynamically added here -->
    </div>    ","null","","","","","","","","","","","",""
"","1368","html-keyboard-response","355","415027","0.0-15.0-2.7","nl8z3IONYr","63d8915c1adeaab48c7f2029","6617fad957f7c6a12ea16e26","6622cc76a867ee3cbc3fd72c","mask grid","p","","","","","Phylogenetic_Distractor_Nonthreat_target","onmask","800","p","5","Phylogenetic","true","experimental"
"","null","html-keyboard-response","356","415729","0.0-15.0-0.8","nl8z3IONYr","63d8915c1adeaab48c7f2029","6617fad957f7c6a12ea16e26","6622cc76a867ee3cbc3fd72c","fixation cross","null","","","","","","","","","","","",""
"","650","html-keyboard-response","357","416379","0.0-15.0-1.8","nl8z3IONYr","63d8915c1adeaab48c7f2029","6617fad957f7c6a12ea16e26","6622cc76a867ee3cbc3fd72c","image grid","q","","","","","Phylogenetic_Distractor_Threat_target","ongrid","800","q","6","Phylogenetic","true","experimental"
"","null","html-keyboard-response","358","416531","0.0-15.0-2.8","nl8z3IONYr","63d8915c1adeaab48c7f2029","6617fad957f7c6a12ea16e26","6622cc76a867ee3cbc3fd72c","
    <div id=""grid-container"">
        <!-- Grid items will be dynamically added here -->
    </div>    ","null","","","","","","","","","","","",""
"","null","html-keyboard-response","359","417233","0.0-15.0-0.9","nl8z3IONYr","63d8915c1adeaab48c7f2029","6617fad957f7c6a12ea16e26","6622cc76a867ee3cbc3fd72c","fixation cross","null","","","","","","","","","","","",""
"","754","html-keyboard-response","360","417988","0.0-15.0-1.9","nl8z3IONYr","63d8915c1adeaab48c7f2029","6617fad957f7c6a12ea16e26","6622cc76a867ee3cbc3fd72c","image grid","p","","","","","Phylogenetic_Distractor_Nonthreat_target","ongrid","800","p","2","Phylogenetic","true","experimental"
"","null","html-keyboard-response","361","418139","0.0-15.0-2.9","nl8z3IONYr","63d8915c1adeaab48c7f2029","6617fad957f7c6a12ea16e26","6622cc76a867ee3cbc3fd72c","
    <div id=""grid-container"">
        <!-- Grid items will be dynamically added here -->
    </div>    ","null","","","","","","","","","","","",""
"","null","html-keyboard-response","362","418840","0.0-15.0-0.10","nl8z3IONYr","63d8915c1adeaab48c7f2029","6617fad957f7c6a12ea16e26","6622cc76a867ee3cbc3fd72c","fixation cross","null","","","","","","","","","","","",""
"","738","html-keyboard-response","363","419580","0.0-15.0-1.10","nl8z3IONYr","63d8915c1adeaab48c7f2029","6617fad957f7c6a12ea16e26","6622cc76a867ee3cbc3fd72c","image grid","q","","","","","Phylogenetic_Distractor_Threat_target","ongrid","800","q","5","Phylogenetic","true","experimental"
"","null","html-keyboard-response","364","419731","0.0-15.0-2.10","nl8z3IONYr","63d8915c1adeaab48c7f2029","6617fad957f7c6a12ea16e26","6622cc76a867ee3cbc3fd72c","
    <div id=""grid-container"">
        <!-- Grid items will be dynamically added here -->
    </div>    ","null","","","","","","","","","","","",""
"","null","html-keyboard-response","365","420432","0.0-15.0-0.11","nl8z3IONYr","63d8915c1adeaab48c7f2029","6617fad957f7c6a12ea16e26","6622cc76a867ee3cbc3fd72c","fixation cross","null","","","","","","","","","","","",""
"","null","html-keyboard-response","366","421234","0.0-15.0-1.11","nl8z3IONYr","63d8915c1adeaab48c7f2029","6617fad957f7c6a12ea16e26","6622cc76a867ee3cbc3fd72c","
        <div id=""grid-container"">
        <!-- Grid items will be dynamically added here -->
    </div>    ","null","","","","","","","","","","","",""
"","858","html-keyboard-response","367","421292","0.0-15.0-2.11","nl8z3IONYr","63d8915c1adeaab48c7f2029","6617fad957f7c6a12ea16e26","6622cc76a867ee3cbc3fd72c","mask grid","p","","","","","Phylogenetic_Distractor_Nonthreat_target","onmask","800","p","6","Phylogenetic","true","experimental"
"","null","html-keyboard-response","368","421994","0.0-15.0-0.12","nl8z3IONYr","63d8915c1adeaab48c7f2029","6617fad957f7c6a12ea16e26","6622cc76a867ee3cbc3fd72c","fixation cross","null","","","","","","","","","","","",""
"","665","html-keyboard-response","369","422660","0.0-15.0-1.12","nl8z3IONYr","63d8915c1adeaab48c7f2029","6617fad957f7c6a12ea16e26","6622cc76a867ee3cbc3fd72c","image grid","q","","","","","Phylogenetic_Distractor_Threat_target","ongrid","800","q","3","Phylogenetic","true","experimental"
"","null","html-keyboard-response","370","422811","0.0-15.0-2.12","nl8z3IONYr","63d8915c1adeaab48c7f2029","6617fad957f7c6a12ea16e26","6622cc76a867ee3cbc3fd72c","
    <div id=""grid-container"">
        <!-- Grid items will be dynamically added here -->
