"success","rt","trial_type","trial_index","time_elapsed","internal_node_id","unique_identifier","subject_id","study_id","session_id","stimulus","response","timeout","failed_images","failed_audio","failed_video","task","respondedwhen","time_manipulation","correctresponse","targetimagelocation","blocktype","correct","roundtype"
"true","59154","fullscreen","0","60175","0.0-0.0","NRmXToZJYS","65eb5fae5d67438e95786d00","6617fad957f7c6a12ea16e26","6622cf45afefd392cfa1f4ed","","","","","","","","","","","","","",""
"","24415","html-keyboard-response","1","84591","0.0-1.0","NRmXToZJYS","65eb5fae5d67438e95786d00","6617fad957f7c6a12ea16e26","6622cf45afefd392cfa1f4ed","instruction screen 0","arrowright","","","","","","","","","","","",""
"true","","preload","2","87110","0.0-2.0","NRmXToZJYS","65eb5fae5d67438e95786d00","6617fad957f7c6a12ea16e26","6622cf45afefd392cfa1f4ed","","","false","[]","[]","[]","","","","","","","",""
"","6485","html-keyboard-response","3","93596","0.0-3.0","NRmXToZJYS","65eb5fae5d67438e95786d00","6617fad957f7c6a12ea16e26","6622cf45afefd392cfa1f4ed","instruction screen 1","arrowright","","","","","","","","","","","",""
"","6597","html-keyboard-response","4","100212","0.0-4.0","NRmXToZJYS","65eb5fae5d67438e95786d00","6617fad957f7c6a12ea16e26","6622cf45afefd392cfa1f4ed","instruction screen 2","q","","","","","","","","","","","",""
"","2973","html-keyboard-response","5","103203","0.0-5.0","NRmXToZJYS","65eb5fae5d67438e95786d00","6617fad957f7c6a12ea16e26","6622cf45afefd392cfa1f4ed","instruction screen 3","p","","","","","","","","","","","",""
"","1920","html-keyboard-response","6","105142","0.0-6.0","NRmXToZJYS","65eb5fae5d67438e95786d00","6617fad957f7c6a12ea16e26","6622cf45afefd392cfa1f4ed","instruction screen 4"," ","","","","","","","","","","","",""
"","1067","html-keyboard-response","7","106211","0.0-7.0","NRmXToZJYS","65eb5fae5d67438e95786d00","6617fad957f7c6a12ea16e26","6622cf45afefd392cfa1f4ed","instruction screen 5"," ","","","","","","","","","","","",""
"","null","html-keyboard-response","8","106714","0.0-8.0","NRmXToZJYS","65eb5fae5d67438e95786d00","6617fad957f7c6a12ea16e26","6622cf45afefd392cfa1f4ed","fixation cross","null","","","","","","","","","","","",""
"","null","html-keyboard-response","9","107218","0.0-9.0-0.0","NRmXToZJYS","65eb5fae5d67438e95786d00","6617fad957f7c6a12ea16e26","6622cf45afefd392cfa1f4ed","fixation cross","null","","","","","","","","","","","",""
"","null","html-keyboard-response","10","110222","0.0-9.0-1.0","NRmXToZJYS","65eb5fae5d67438e95786d00","6617fad957f7c6a12ea16e26","6622cf45afefd392cfa1f4ed","
        <div id=""grid-container"">
        <!-- Grid items will be dynamically added here -->
    </div>    ","null","","","","","","","","","","","",""
"","3924","html-keyboard-response","11","111146","0.0-9.0-2.0","NRmXToZJYS","65eb5fae5d67438e95786d00","6617fad957f7c6a12ea16e26","6622cf45afefd392cfa1f4ed","mask grid","p","","","","","Phylogenetic_Distractor_Threat_target","onmask","3000","q","7","Ontogenetic","false","practice"
"","null","html-keyboard-response","12","112364","0.0-9.0-3.0","NRmXToZJYS","65eb5fae5d67438e95786d00","6617fad957f7c6a12ea16e26","6622cf45afefd392cfa1f4ed","feedback screen","null","","","","","","","","","","","",""
"","null","html-keyboard-response","13","112874","0.0-9.0-0.1","NRmXToZJYS","65eb5fae5d67438e95786d00","6617fad957f7c6a12ea16e26","6622cf45afefd392cfa1f4ed","fixation cross","null","","","","","","","","","","","",""
"","2523","html-keyboard-response","14","115397","0.0-9.0-1.1","NRmXToZJYS","65eb5fae5d67438e95786d00","6617fad957f7c6a12ea16e26","6622cf45afefd392cfa1f4ed","image grid","p","","","","","Ontogenetic_Distractor_Threat_target","ongrid","2900","q","1","Ontogenetic","false","practice"
"","null","html-keyboard-response","15","115560","0.0-9.0-2.1","NRmXToZJYS","65eb5fae5d67438e95786d00","6617fad957f7c6a12ea16e26","6622cf45afefd392cfa1f4ed","
    <div id=""grid-container"">
        <!-- Grid items will be dynamically added here -->
    </div>    ","null","","","","","","","","","","","",""
"","null","html-keyboard-response","16","116783","0.0-9.0-3.1","NRmXToZJYS","65eb5fae5d67438e95786d00","6617fad957f7c6a12ea16e26","6622cf45afefd392cfa1f4ed","feedback screen","null","","","","","","","","","","","",""
"","null","html-keyboard-response","17","117294","0.0-9.0-0.2","NRmXToZJYS","65eb5fae5d67438e95786d00","6617fad957f7c6a12ea16e26","6622cf45afefd392cfa1f4ed","fixation cross","null","","","","","","","","","","","",""
"","null","html-keyboard-response","18","120097","0.0-9.0-1.2","NRmXToZJYS","65eb5fae5d67438e95786d00","6617fad957f7c6a12ea16e26","6622cf45afefd392cfa1f4ed","
        <div id=""grid-container"">
        <!-- Grid items will be dynamically added here -->
    </div>    ","null","","","","","","","","","","","",""
"","4593","html-keyboard-response","19","121890","0.0-9.0-2.2","NRmXToZJYS","65eb5fae5d67438e95786d00","6617fad957f7c6a12ea16e26","6622cf45afefd392cfa1f4ed","mask grid","p","","","","","Phylogenetic_Distractor_Threat_target","onmask","2800","q","3","Ontogenetic","false","practice"
"","null","html-keyboard-response","20","123108","0.0-9.0-3.2","NRmXToZJYS","65eb5fae5d67438e95786d00","6617fad957f7c6a12ea16e26","6622cf45afefd392cfa1f4ed","feedback screen","null","","","","","","","","","","","",""
"","null","html-keyboard-response","21","123617","0.0-9.0-0.3","NRmXToZJYS","65eb5fae5d67438e95786d00","6617fad957f7c6a12ea16e26","6622cf45afefd392cfa1f4ed","fixation cross","null","","","","","","","","","","","",""
"","2670","html-keyboard-response","22","126288","0.0-9.0-1.3","NRmXToZJYS","65eb5fae5d67438e95786d00","6617fad957f7c6a12ea16e26","6622cf45afefd392cfa1f4ed","image grid","q","","","","","Phylogenetic_Distractor_Nonthreat_target","ongrid","2700","p","2","Ontogenetic","false","practice"
"","null","html-keyboard-response","23","126453","0.0-9.0-2.3","NRmXToZJYS","65eb5fae5d67438e95786d00","6617fad957f7c6a12ea16e26","6622cf45afefd392cfa1f4ed","
    <div id=""grid-container"">
        <!-- Grid items will be dynamically added here -->
    </div>    ","null","","","","","","","","","","","",""
"","null","html-keyboard-response","24","127678","0.0-9.0-3.3","NRmXToZJYS","65eb5fae5d67438e95786d00","6617fad957f7c6a12ea16e26","6622cf45afefd392cfa1f4ed","feedback screen","null","","","","","","","","","","","",""
"","null","html-keyboard-response","25","128186","0.0-9.0-0.4","NRmXToZJYS","65eb5fae5d67438e95786d00","6617fad957f7c6a12ea16e26","6622cf45afefd392cfa1f4ed","fixation cross","null","","","","","","","","","","","",""
"","null","html-keyboard-response","26","130792","0.0-9.0-1.4","NRmXToZJYS","65eb5fae5d67438e95786d00","6617fad957f7c6a12ea16e26","6622cf45afefd392cfa1f4ed","
        <div id=""grid-container"">
        <!-- Grid items will be dynamically added here -->
    </div>    ","null","","","","","","","","","","","",""
"","3078","html-keyboard-response","27","131271","0.0-9.0-2.4","NRmXToZJYS","65eb5fae5d67438e95786d00","6617fad957f7c6a12ea16e26","6622cf45afefd392cfa1f4ed","mask grid","q","","","","","Phylogenetic_Distractor_Threat_target","onmask","2600","q","7","Ontogenetic","true","practice"
"","null","html-keyboard-response","28","132496","0.0-9.0-3.4","NRmXToZJYS","65eb5fae5d67438e95786d00","6617fad957f7c6a12ea16e26","6622cf45afefd392cfa1f4ed","feedback screen","null","","","","","","","","","","","",""
"","null","html-keyboard-response","29","133008","0.0-9.0-0.5","NRmXToZJYS","65eb5fae5d67438e95786d00","6617fad957f7c6a12ea16e26","6622cf45afefd392cfa1f4ed","fixation cross","null","","","","","","","","","","","",""
"","2078","html-keyboard-response","30","135086","0.0-9.0-1.5","NRmXToZJYS","65eb5fae5d67438e95786d00","6617fad957f7c6a12ea16e26","6622cf45afefd392cfa1f4ed","image grid","q","","","","","Phylogenetic_Distractor_Threat_target","ongrid","2500","q","6","Ontogenetic","true","practice"
"","null","html-keyboard-response","31","135240","0.0-9.0-2.5","NRmXToZJYS","65eb5fae5d67438e95786d00","6617fad957f7c6a12ea16e26","6622cf45afefd392cfa1f4ed","
    <div id=""grid-container"">
        <!-- Grid items will be dynamically added here -->
    </div>    ","null","","","","","","","","","","","",""
"","null","html-keyboard-response","32","136472","0.0-9.0-3.5","NRmXToZJYS","65eb5fae5d67438e95786d00","6617fad957f7c6a12ea16e26","6622cf45afefd392cfa1f4ed","feedback screen","null","","","","","","","","","","","",""
"","null","html-keyboard-response","33","136975","0.0-9.0-0.6","NRmXToZJYS","65eb5fae5d67438e95786d00","6617fad957f7c6a12ea16e26","6622cf45afefd392cfa1f4ed","fixation cross","null","","","","","","","","","","","",""
"","1518","html-keyboard-response","34","138493","0.0-9.0-1.6","NRmXToZJYS","65eb5fae5d67438e95786d00","6617fad957f7c6a12ea16e26","6622cf45afefd392cfa1f4ed","image grid","q","","","","","Ontogenetic_Distractor_Threat_target","ongrid","2400","q","1","Ontogenetic","true","practice"
"","null","html-keyboard-response","35","138644","0.0-9.0-2.6","NRmXToZJYS","65eb5fae5d67438e95786d00","6617fad957f7c6a12ea16e26","6622cf45afefd392cfa1f4ed","
    <div id=""grid-container"">
        <!-- Grid items will be dynamically added here -->
    </div>    ","null","","","","","","","","","","","",""
"","null","html-keyboard-response","36","139872","0.0-9.0-3.6","NRmXToZJYS","65eb5fae5d67438e95786d00","6617fad957f7c6a12ea16e26","6622cf45afefd392cfa1f4ed","feedback screen","null","","","","","","","","","","","",""
"","null","html-keyboard-response","37","140381","0.0-9.0-0.7","NRmXToZJYS","65eb5fae5d67438e95786d00","6617fad957f7c6a12ea16e26","6622cf45afefd392cfa1f4ed","fixation cross","null","","","","","","","","","","","",""
"","1792","html-keyboard-response","38","142172","0.0-9.0-1.7","NRmXToZJYS","65eb5fae5d67438e95786d00","6617fad957f7c6a12ea16e26","6622cf45afefd392cfa1f4ed","image grid","p","","","","","Phylogenetic_Distractor_notarget","ongrid","2300"," ","1","Ontogenetic","false","practice"
"","null","html-keyboard-response","39","142332","0.0-9.0-2.7","NRmXToZJYS","65eb5fae5d67438e95786d00","6617fad957f7c6a12ea16e26","6622cf45afefd392cfa1f4ed","
    <div id=""grid-container"">
        <!-- Grid items will be dynamically added here -->
    </div>    ","null","","","","","","","","","","","",""
"","null","html-keyboard-response","40","143555","0.0-9.0-3.7","NRmXToZJYS","65eb5fae5d67438e95786d00","6617fad957f7c6a12ea16e26","6622cf45afefd392cfa1f4ed","feedback screen","null","","","","","","","","","","","",""
"","null","html-keyboard-response","41","144066","0.0-9.0-0.8","NRmXToZJYS","65eb5fae5d67438e95786d00","6617fad957f7c6a12ea16e26","6622cf45afefd392cfa1f4ed","fixation cross","null","","","","","","","","","","","",""
"","null","html-keyboard-response","42","146281","0.0-9.0-1.8","NRmXToZJYS","65eb5fae5d67438e95786d00","6617fad957f7c6a12ea16e26","6622cf45afefd392cfa1f4ed","
        <div id=""grid-container"">
        <!-- Grid items will be dynamically added here -->
    </div>    ","null","","","","","","","","","","","",""
"","2390","html-keyboard-response","43","146471","0.0-9.0-2.8","NRmXToZJYS","65eb5fae5d67438e95786d00","6617fad957f7c6a12ea16e26","6622cf45afefd392cfa1f4ed","mask grid","p","","","","","Phylogenetic_Distractor_Nonthreat_target","onmask","2200","p","8","Ontogenetic","true","practice"
"","null","html-keyboard-response","44","147693","0.0-9.0-3.8","NRmXToZJYS","65eb5fae5d67438e95786d00","6617fad957f7c6a12ea16e26","6622cf45afefd392cfa1f4ed","feedback screen","null","","","","","","","","","","","",""
"","null","html-keyboard-response","45","148202","0.0-9.0-0.9","NRmXToZJYS","65eb5fae5d67438e95786d00","6617fad957f7c6a12ea16e26","6622cf45afefd392cfa1f4ed","fixation cross","null","","","","","","","","","","","",""
"","null","html-keyboard-response","46","150314","0.0-9.0-1.9","NRmXToZJYS","65eb5fae5d67438e95786d00","6617fad957f7c6a12ea16e26","6622cf45afefd392cfa1f4ed","
        <div id=""grid-container"">
        <!-- Grid items will be dynamically added here -->
    </div>    ","null","","","","","","","","","","","",""
"","2903","html-keyboard-response","47","151117","0.0-9.0-2.9","NRmXToZJYS","65eb5fae5d67438e95786d00","6617fad957f7c6a12ea16e26","6622cf45afefd392cfa1f4ed","mask grid","p","","","","","Ontogenetic_Distractor_Nonthreat_target","onmask","2100","p","6","Ontogenetic","true","practice"
"","null","html-keyboard-response","48","152346","0.0-9.0-3.9","NRmXToZJYS","65eb5fae5d67438e95786d00","6617fad957f7c6a12ea16e26","6622cf45afefd392cfa1f4ed","feedback screen","null","","","","","","","","","","","",""
"","null","html-keyboard-response","49","152857","0.0-9.0-0.10","NRmXToZJYS","65eb5fae5d67438e95786d00","6617fad957f7c6a12ea16e26","6622cf45afefd392cfa1f4ed","fixation cross","null","","","","","","","","","","","",""
"","null","html-keyboard-response","50","154858","0.0-9.0-1.10","NRmXToZJYS","65eb5fae5d67438e95786d00","6617fad957f7c6a12ea16e26","6622cf45afefd392cfa1f4ed","
        <div id=""grid-container"">
        <!-- Grid items will be dynamically added here -->
    </div>    ","null","","","","","","","","","","","",""
"","2659","html-keyboard-response","51","155517","0.0-9.0-2.10","NRmXToZJYS","65eb5fae5d67438e95786d00","6617fad957f7c6a12ea16e26","6622cf45afefd392cfa1f4ed","mask grid","p","","","","","Ontogenetic_Distractor_notarget","onmask","2000"," ","8","Ontogenetic","false","practice"
"","null","html-keyboard-response","52","156732","0.0-9.0-3.10","NRmXToZJYS","65eb5fae5d67438e95786d00","6617fad957f7c6a12ea16e26","6622cf45afefd392cfa1f4ed","feedback screen","null","","","","","","","","","","","",""
"","null","html-keyboard-response","53","157242","0.0-9.0-0.11","NRmXToZJYS","65eb5fae5d67438e95786d00","6617fad957f7c6a12ea16e26","6622cf45afefd392cfa1f4ed","fixation cross","null","","","","","","","","","","","",""
"","null","html-keyboard-response","54","159149","0.0-9.0-1.11","NRmXToZJYS","65eb5fae5d67438e95786d00","6617fad957f7c6a12ea16e26","6622cf45afefd392cfa1f4ed","
        <div id=""grid-container"">
        <!-- Grid items will be dynamically added here -->
    </div>    ","null","","","","","","","","","","","",""
"","2328","html-keyboard-response","55","159578","0.0-9.0-2.11","NRmXToZJYS","65eb5fae5d67438e95786d00","6617fad957f7c6a12ea16e26","6622cf45afefd392cfa1f4ed","mask grid","p","","","","","Ontogenetic_Distractor_Nonthreat_target","onmask","1900","p","7","Ontogenetic","true","practice"
"","null","html-keyboard-response","56","160804","0.0-9.0-3.11","NRmXToZJYS","65eb5fae5d67438e95786d00","6617fad957f7c6a12ea16e26","6622cf45afefd392cfa1f4ed","feedback screen","null","","","","","","","","","","","",""
"","null","html-keyboard-response","57","161314","0.0-9.0-0.12","NRmXToZJYS","65eb5fae5d67438e95786d00","6617fad957f7c6a12ea16e26","6622cf45afefd392cfa1f4ed","fixation cross","null","","","","","","","","","","","",""
"","null","html-keyboard-response","58","163123","0.0-9.0-1.12","NRmXToZJYS","65eb5fae5d67438e95786d00","6617fad957f7c6a12ea16e26","6622cf45afefd392cfa1f4ed","
        <div id=""grid-container"">
        <!-- Grid items will be dynamically added here -->
    </div>    ","null","","","","","","","","","","","",""
"","2214","html-keyboard-response","59","163538","0.0-9.0-2.12","NRmXToZJYS","65eb5fae5d67438e95786d00","6617fad957f7c6a12ea16e26","6622cf45afefd392cfa1f4ed","mask grid","p","","","","","Ontogenetic_Distractor_notarget","onmask","1800"," ","1","Ontogenetic","false","practice"
"","null","html-keyboard-response","60","164757","0.0-9.0-3.12","NRmXToZJYS","65eb5fae5d67438e95786d00","6617fad957f7c6a12ea16e26","6622cf45afefd392cfa1f4ed","feedback screen","null","","","","","","","","","","","",""
"","null","html-keyboard-response","61","165267","0.0-9.0-0.13","NRmXToZJYS","65eb5fae5d67438e95786d00","6617fad957f7c6a12ea16e26","6622cf45afefd392cfa1f4ed","fixation cross","null","","","","","","","","","","","",""
"","1690","html-keyboard-response","62","166957","0.0-9.0-1.13","NRmXToZJYS","65eb5fae5d67438e95786d00","6617fad957f7c6a12ea16e26","6622cf45afefd392cfa1f4ed","image grid","p","","","","","Phylogenetic_Distractor_Nonthreat_target","ongrid","1700","p","8","Ontogenetic","true","practice"
"","null","html-keyboard-response","63","167117","0.0-9.0-2.13","NRmXToZJYS","65eb5fae5d67438e95786d00","6617fad957f7c6a12ea16e26","6622cf45afefd392cfa1f4ed","
    <div id=""grid-container"">
        <!-- Grid items will be dynamically added here -->
    </div>    ","null","","","","","","","","","","","",""
"","null","html-keyboard-response","64","168331","0.0-9.0-3.13","NRmXToZJYS","65eb5fae5d67438e95786d00","6617fad957f7c6a12ea16e26","6622cf45afefd392cfa1f4ed","feedback screen","null","","","","","","","","","","","",""
"","null","html-keyboard-response","65","168836","0.0-9.0-0.14","NRmXToZJYS","65eb5fae5d67438e95786d00","6617fad957f7c6a12ea16e26","6622cf45afefd392cfa1f4ed","fixation cross","null","","","","","","","","","","","",""
"","1383","html-keyboard-response","66","170219","0.0-9.0-1.14","NRmXToZJYS","65eb5fae5d67438e95786d00","6617fad957f7c6a12ea16e26","6622cf45afefd392cfa1f4ed","image grid","q","","","","","Ontogenetic_Distractor_Threat_target","ongrid","1600","q","6","Ontogenetic","true","practice"
"","null","html-keyboard-response","67","170372","0.0-9.0-2.14","NRmXToZJYS","65eb5fae5d67438e95786d00","6617fad957f7c6a12ea16e26","6622cf45afefd392cfa1f4ed","
    <div id=""grid-container"">
        <!-- Grid items will be dynamically added here -->
    </div>    ","null","","","","","","","","","","","",""
"","null","html-keyboard-response","68","171586","0.0-9.0-3.14","NRmXToZJYS","65eb5fae5d67438e95786d00","6617fad957f7c6a12ea16e26","6622cf45afefd392cfa1f4ed","feedback screen","null","","","","","","","","","","","",""
"","null","html-keyboard-response","69","172102","0.0-9.0-0.15","NRmXToZJYS","65eb5fae5d67438e95786d00","6617fad957f7c6a12ea16e26","6622cf45afefd392cfa1f4ed","fixation cross","null","","","","","","","","","","","",""
"","null","html-keyboard-response","70","173612","0.0-9.0-1.15","NRmXToZJYS","65eb5fae5d67438e95786d00","6617fad957f7c6a12ea16e26","6622cf45afefd392cfa1f4ed","
        <div id=""grid-container"">
        <!-- Grid items will be dynamically added here -->
    </div>    ","null","","","","","","","","","","","",""
"","1955","html-keyboard-response","71","174068","0.0-9.0-2.15","NRmXToZJYS","65eb5fae5d67438e95786d00","6617fad957f7c6a12ea16e26","6622cf45afefd392cfa1f4ed","mask grid","p","","","","","Phylogenetic_Distractor_Nonthreat_target","onmask","1500","p","6","Ontogenetic","true","practice"
"","null","html-keyboard-response","72","175284","0.0-9.0-3.15","NRmXToZJYS","65eb5fae5d67438e95786d00","6617fad957f7c6a12ea16e26","6622cf45afefd392cfa1f4ed","feedback screen","null","","","","","","","","","","","",""
"","null","html-keyboard-response","73","175789","0.0-9.0-0.16","NRmXToZJYS","65eb5fae5d67438e95786d00","6617fad957f7c6a12ea16e26","6622cf45afefd392cfa1f4ed","fixation cross","null","","","","","","","","","","","",""
"","null","html-keyboard-response","74","177199","0.0-9.0-1.16","NRmXToZJYS","65eb5fae5d67438e95786d00","6617fad957f7c6a12ea16e26","6622cf45afefd392cfa1f4ed","
        <div id=""grid-container"">
        <!-- Grid items will be dynamically added here -->
    </div>    ","null","","","","","","","","","","","",""
"","2171","html-keyboard-response","75","177970","0.0-9.0-2.16","NRmXToZJYS","65eb5fae5d67438e95786d00","6617fad957f7c6a12ea16e26","6622cf45afefd392cfa1f4ed","mask grid","p","","","","","Ontogenetic_Distractor_Nonthreat_target","onmask","1400","p","1","Ontogenetic","true","practice"
"","null","html-keyboard-response","76","179188","0.0-9.0-3.16","NRmXToZJYS","65eb5fae5d67438e95786d00","6617fad957f7c6a12ea16e26","6622cf45afefd392cfa1f4ed","feedback screen","null","","","","","","","","","","","",""
"","null","html-keyboard-response","77","179696","0.0-9.0-0.17","NRmXToZJYS","65eb5fae5d67438e95786d00","6617fad957f7c6a12ea16e26","6622cf45afefd392cfa1f4ed","fixation cross","null","","","","","","","","","","","",""
"","null","html-keyboard-response","78","181010","0.0-9.0-1.17","NRmXToZJYS","65eb5fae5d67438e95786d00","6617fad957f7c6a12ea16e26","6622cf45afefd392cfa1f4ed","
        <div id=""grid-container"">
        <!-- Grid items will be dynamically added here -->
    </div>    ","null","","","","","","","","","","","",""
"","1974","html-keyboard-response","79","181684","0.0-9.0-2.17","NRmXToZJYS","65eb5fae5d67438e95786d00","6617fad957f7c6a12ea16e26","6622cf45afefd392cfa1f4ed","mask grid","p","","","","","Phylogenetic_Distractor_notarget","onmask","1300"," ","9","Ontogenetic","false","practice"
"","null","html-keyboard-response","80","182908","0.0-9.0-3.17","NRmXToZJYS","65eb5fae5d67438e95786d00","6617fad957f7c6a12ea16e26","6622cf45afefd392cfa1f4ed","feedback screen","null","","","","","","","","","","","",""
"","null","html-keyboard-response","81","183414","0.0-9.0-0.18","NRmXToZJYS","65eb5fae5d67438e95786d00","6617fad957f7c6a12ea16e26","6622cf45afefd392cfa1f4ed","fixation cross","null","","","","","","","","","","","",""
"","null","html-keyboard-response","82","184628","0.0-9.0-1.18","NRmXToZJYS","65eb5fae5d67438e95786d00","6617fad957f7c6a12ea16e26","6622cf45afefd392cfa1f4ed","
        <div id=""grid-container"">
        <!-- Grid items will be dynamically added here -->
    </div>    ","null","","","","","","","","","","","",""
"","1879","html-keyboard-response","83","185307","0.0-9.0-2.18","NRmXToZJYS","65eb5fae5d67438e95786d00","6617fad957f7c6a12ea16e26","6622cf45afefd392cfa1f4ed","mask grid","p","","","","","Ontogenetic_Distractor_Nonthreat_target","onmask","1200","p","3","Ontogenetic","true","practice"
"","null","html-keyboard-response","84","186522","0.0-9.0-3.18","NRmXToZJYS","65eb5fae5d67438e95786d00","6617fad957f7c6a12ea16e26","6622cf45afefd392cfa1f4ed","feedback screen","null","","","","","","","","","","","",""
"","null","html-keyboard-response","85","187032","0.0-9.0-0.19","NRmXToZJYS","65eb5fae5d67438e95786d00","6617fad957f7c6a12ea16e26","6622cf45afefd392cfa1f4ed","fixation cross","null","","","","","","","","","","","",""
"","null","html-keyboard-response","86","188140","0.0-9.0-1.19","NRmXToZJYS","65eb5fae5d67438e95786d00","6617fad957f7c6a12ea16e26","6622cf45afefd392cfa1f4ed","
        <div id=""grid-container"">
        <!-- Grid items will be dynamically added here -->
    </div>    ","null","","","","","","","","","","","",""
"","1124","html-keyboard-response","87","188164","0.0-9.0-2.19","NRmXToZJYS","65eb5fae5d67438e95786d00","6617fad957f7c6a12ea16e26","6622cf45afefd392cfa1f4ed","mask grid","q","","","","","Ontogenetic_Distractor_Threat_target","onmask","1100","q","1","Ontogenetic","true","practice"
"","null","html-keyboard-response","88","189374","0.0-9.0-3.19","NRmXToZJYS","65eb5fae5d67438e95786d00","6617fad957f7c6a12ea16e26","6622cf45afefd392cfa1f4ed","feedback screen","null","","","","","","","","","","","",""
"","5542","html-keyboard-response","89","194937","0.0-10.0","NRmXToZJYS","65eb5fae5d67438e95786d00","6617fad957f7c6a12ea16e26","6622cf45afefd392cfa1f4ed","pre-experimental_briefing"," ","","","","","","","","","","","",""
"","null","html-keyboard-response","90","197476","0.0-11.0-0.0","NRmXToZJYS","65eb5fae5d67438e95786d00","6617fad957f7c6a12ea16e26","6622cf45afefd392cfa1f4ed","fixation cross","null","","","","","","","","","","","",""
"","1274","html-keyboard-response","91","198750","0.0-11.0-1.0","NRmXToZJYS","65eb5fae5d67438e95786d00","6617fad957f7c6a12ea16e26","6622cf45afefd392cfa1f4ed","image grid","q","","","","","Ontogenetic_Distractor_Threat_target","ongrid","2500","q","1","Ontogenetic","true","experimental"
"","null","html-keyboard-response","92","198912","0.0-11.0-2.0","NRmXToZJYS","65eb5fae5d67438e95786d00","6617fad957f7c6a12ea16e26","6622cf45afefd392cfa1f4ed","
    <div id=""grid-container"">
        <!-- Grid items will be dynamically added here -->
    </div>    ","null","","","","","","","","","","","",""
"","null","html-keyboard-response","93","199625","0.0-11.0-0.1","NRmXToZJYS","65eb5fae5d67438e95786d00","6617fad957f7c6a12ea16e26","6622cf45afefd392cfa1f4ed","fixation cross","null","","","","","","","","","","","",""
"","1892","html-keyboard-response","94","201518","0.0-11.0-1.1","NRmXToZJYS","65eb5fae5d67438e95786d00","6617fad957f7c6a12ea16e26","6622cf45afefd392cfa1f4ed","image grid","p","","","","","Ontogenetic_Distractor_Nonthreat_target","ongrid","2500","p","6","Ontogenetic","true","experimental"
"","null","html-keyboard-response","95","201679","0.0-11.0-2.1","NRmXToZJYS","65eb5fae5d67438e95786d00","6617fad957f7c6a12ea16e26","6622cf45afefd392cfa1f4ed","
    <div id=""grid-container"">
        <!-- Grid items will be dynamically added here -->
    </div>    ","null","","","","","","","","","","","",""
"","null","html-keyboard-response","96","202397","0.0-11.0-0.2","NRmXToZJYS","65eb5fae5d67438e95786d00","6617fad957f7c6a12ea16e26","6622cf45afefd392cfa1f4ed","fixation cross","null","","","","","","","","","","","",""
"","880","html-keyboard-response","97","203277","0.0-11.0-1.2","NRmXToZJYS","65eb5fae5d67438e95786d00","6617fad957f7c6a12ea16e26","6622cf45afefd392cfa1f4ed","image grid","q","","","","","Ontogenetic_Distractor_Threat_target","ongrid","2500","q","9","Ontogenetic","true","experimental"
"","null","html-keyboard-response","98","203431","0.0-11.0-2.2","NRmXToZJYS","65eb5fae5d67438e95786d00","6617fad957f7c6a12ea16e26","6622cf45afefd392cfa1f4ed","
    <div id=""grid-container"">
        <!-- Grid items will be dynamically added here -->
    </div>    ","null","","","","","","","","","","","",""
"","null","html-keyboard-response","99","204149","0.0-11.0-0.3","NRmXToZJYS","65eb5fae5d67438e95786d00","6617fad957f7c6a12ea16e26","6622cf45afefd392cfa1f4ed","fixation cross","null","","","","","","","","","","","",""
"","1153","html-keyboard-response","100","205302","0.0-11.0-1.3","NRmXToZJYS","65eb5fae5d67438e95786d00","6617fad957f7c6a12ea16e26","6622cf45afefd392cfa1f4ed","image grid","p","","","","","Ontogenetic_Distractor_Nonthreat_target","ongrid","2500","p","5","Ontogenetic","true","experimental"
"","null","html-keyboard-response","101","205466","0.0-11.0-2.3","NRmXToZJYS","65eb5fae5d67438e95786d00","6617fad957f7c6a12ea16e26","6622cf45afefd392cfa1f4ed","
    <div id=""grid-container"">
        <!-- Grid items will be dynamically added here -->
    </div>    ","null","","","","","","","","","","","",""
"","null","html-keyboard-response","102","206186","0.0-11.0-0.4","NRmXToZJYS","65eb5fae5d67438e95786d00","6617fad957f7c6a12ea16e26","6622cf45afefd392cfa1f4ed","fixation cross","null","","","","","","","","","","","",""
"","1321","html-keyboard-response","103","207508","0.0-11.0-1.4","NRmXToZJYS","65eb5fae5d67438e95786d00","6617fad957f7c6a12ea16e26","6622cf45afefd392cfa1f4ed","image grid","p","","","","","Ontogenetic_Distractor_Threat_target","ongrid","2500","q","3","Ontogenetic","false","experimental"
"","null","html-keyboard-response","104","207669","0.0-11.0-2.4","NRmXToZJYS","65eb5fae5d67438e95786d00","6617fad957f7c6a12ea16e26","6622cf45afefd392cfa1f4ed","
    <div id=""grid-container"">
        <!-- Grid items will be dynamically added here -->
    </div>    ","null","","","","","","","","","","","",""
"","null","html-keyboard-response","105","208399","0.0-11.0-0.5","NRmXToZJYS","65eb5fae5d67438e95786d00","6617fad957f7c6a12ea16e26","6622cf45afefd392cfa1f4ed","fixation cross","null","","","","","","","","","","","",""
"","1308","html-keyboard-response","106","209708","0.0-11.0-1.5","NRmXToZJYS","65eb5fae5d67438e95786d00","6617fad957f7c6a12ea16e26","6622cf45afefd392cfa1f4ed","image grid","p","","","","","Ontogenetic_Distractor_Nonthreat_target","ongrid","2500","p","9","Ontogenetic","true","experimental"
"","null","html-keyboard-response","107","209870","0.0-11.0-2.5","NRmXToZJYS","65eb5fae5d67438e95786d00","6617fad957f7c6a12ea16e26","6622cf45afefd392cfa1f4ed","
    <div id=""grid-container"">
        <!-- Grid items will be dynamically added here -->
    </div>    ","null","","","","","","","","","","","",""
"","null","html-keyboard-response","108","210589","0.0-11.0-0.6","NRmXToZJYS","65eb5fae5d67438e95786d00","6617fad957f7c6a12ea16e26","6622cf45afefd392cfa1f4ed","fixation cross","null","","","","","","","","","","","",""
"","1103","html-keyboard-response","109","211692","0.0-11.0-1.6","NRmXToZJYS","65eb5fae5d67438e95786d00","6617fad957f7c6a12ea16e26","6622cf45afefd392cfa1f4ed","image grid","q","","","","","Ontogenetic_Distractor_Threat_target","ongrid","2500","q","5","Ontogenetic","true","experimental"
"","null","html-keyboard-response","110","211853","0.0-11.0-2.6","NRmXToZJYS","65eb5fae5d67438e95786d00","6617fad957f7c6a12ea16e26","6622cf45afefd392cfa1f4ed","
    <div id=""grid-container"">
        <!-- Grid items will be dynamically added here -->
    </div>    ","null","","","","","","","","","","","",""
"","null","html-keyboard-response","111","212572","0.0-11.0-0.7","NRmXToZJYS","65eb5fae5d67438e95786d00","6617fad957f7c6a12ea16e26","6622cf45afefd392cfa1f4ed","fixation cross","null","","","","","","","","","","","",""
"","953","html-keyboard-response","112","213526","0.0-11.0-1.7","NRmXToZJYS","65eb5fae5d67438e95786d00","6617fad957f7c6a12ea16e26","6622cf45afefd392cfa1f4ed","image grid","q","","","","","Ontogenetic_Distractor_Threat_target","ongrid","2500","q","3","Ontogenetic","true","experimental"
"","null","html-keyboard-response","113","213690","0.0-11.0-2.7","NRmXToZJYS","65eb5fae5d67438e95786d00","6617fad957f7c6a12ea16e26","6622cf45afefd392cfa1f4ed","
    <div id=""grid-container"">
        <!-- Grid items will be dynamically added here -->
    </div>    ","null","","","","","","","","","","","",""
"","null","html-keyboard-response","114","214408","0.0-11.0-0.8","NRmXToZJYS","65eb5fae5d67438e95786d00","6617fad957f7c6a12ea16e26","6622cf45afefd392cfa1f4ed","fixation cross","null","","","","","","","","","","","",""
"","null","html-keyboard-response","115","216919","0.0-11.0-1.8","NRmXToZJYS","65eb5fae5d67438e95786d00","6617fad957f7c6a12ea16e26","6622cf45afefd392cfa1f4ed","
        <div id=""grid-container"">
        <!-- Grid items will be dynamically added here -->
    </div>    ","null","","","","","","","","","","","",""
"","3198","html-keyboard-response","116","217617","0.0-11.0-2.8","NRmXToZJYS","65eb5fae5d67438e95786d00","6617fad957f7c6a12ea16e26","6622cf45afefd392cfa1f4ed","mask grid","p","","","","","Ontogenetic_Distractor_Nonthreat_target","onmask","2500","p","6","Ontogenetic","true","experimental"
"","null","html-keyboard-response","117","218324","0.0-11.0-0.9","NRmXToZJYS","65eb5fae5d67438e95786d00","6617fad957f7c6a12ea16e26","6622cf45afefd392cfa1f4ed","fixation cross","null","","","","","","","","","","","",""
"","1565","html-keyboard-response","118","219890","0.0-11.0-1.9","NRmXToZJYS","65eb5fae5d67438e95786d00","6617fad957f7c6a12ea16e26","6622cf45afefd392cfa1f4ed","image grid","q","","","","","Ontogenetic_Distractor_Threat_target","ongrid","2500","q","7","Ontogenetic","true","experimental"
"","null","html-keyboard-response","119","220046","0.0-11.0-2.9","NRmXToZJYS","65eb5fae5d67438e95786d00","6617fad957f7c6a12ea16e26","6622cf45afefd392cfa1f4ed","
    <div id=""grid-container"">
        <!-- Grid items will be dynamically added here -->
    </div>    ","null","","","","","","","","","","","",""
"","null","html-keyboard-response","120","220760","0.0-11.0-0.10","NRmXToZJYS","65eb5fae5d67438e95786d00","6617fad957f7c6a12ea16e26","6622cf45afefd392cfa1f4ed","fixation cross","null","","","","","","","","","","","",""
"","1278","html-keyboard-response","121","222038","0.0-11.0-1.10","NRmXToZJYS","65eb5fae5d67438e95786d00","6617fad957f7c6a12ea16e26","6622cf45afefd392cfa1f4ed","image grid","p","","","","","Ontogenetic_Distractor_Nonthreat_target","ongrid","2500","p","4","Ontogenetic","true","experimental"
"","null","html-keyboard-response","122","222196","0.0-11.0-2.10","NRmXToZJYS","65eb5fae5d67438e95786d00","6617fad957f7c6a12ea16e26","6622cf45afefd392cfa1f4ed","
    <div id=""grid-container"">
        <!-- Grid items will be dynamically added here -->
    </div>    ","null","","","","","","","","","","","",""
"","null","html-keyboard-response","123","222913","0.0-11.0-0.11","NRmXToZJYS","65eb5fae5d67438e95786d00","6617fad957f7c6a12ea16e26","6622cf45afefd392cfa1f4ed","fixation cross","null","","","","","","","","","","","",""
"","669","html-keyboard-response","124","223583","0.0-11.0-1.11","NRmXToZJYS","65eb5fae5d67438e95786d00","6617fad957f7c6a12ea16e26","6622cf45afefd392cfa1f4ed","image grid","q","","","","","Ontogenetic_Distractor_Threat_target","ongrid","2500","q","3","Ontogenetic","true","experimental"
"","null","html-keyboard-response","125","223748","0.0-11.0-2.11","NRmXToZJYS","65eb5fae5d67438e95786d00","6617fad957f7c6a12ea16e26","6622cf45afefd392cfa1f4ed","
    <div id=""grid-container"">
        <!-- Grid items will be dynamically added here -->
    </div>    ","null","","","","","","","","","","","",""
"","null","html-keyboard-response","126","224465","0.0-11.0-0.12","NRmXToZJYS","65eb5fae5d67438e95786d00","6617fad957f7c6a12ea16e26","6622cf45afefd392cfa1f4ed","fixation cross","null","","","","","","","","","","","",""
"","1837","html-keyboard-response","127","226302","0.0-11.0-1.12","NRmXToZJYS","65eb5fae5d67438e95786d00","6617fad957f7c6a12ea16e26","6622cf45afefd392cfa1f4ed","image grid","p","","","","","Ontogenetic_Distractor_Nonthreat_target","ongrid","2500","p","1","Ontogenetic","true","experimental"
"","null","html-keyboard-response","128","226467","0.0-11.0-2.12","NRmXToZJYS","65eb5fae5d67438e95786d00","6617fad957f7c6a12ea16e26","6622cf45afefd392cfa1f4ed","
    <div id=""grid-container"">
        <!-- Grid items will be dynamically added here -->
    </div>    ","null","","","","","","","","","","","",""
"","null","html-keyboard-response","129","227183","0.0-11.0-0.13","NRmXToZJYS","65eb5fae5d67438e95786d00","6617fad957f7c6a12ea16e26","6622cf45afefd392cfa1f4ed","fixation cross","null","","","","","","","","","","","",""
"","2010","html-keyboard-response","130","229193","0.0-11.0-1.13","NRmXToZJYS","65eb5fae5d67438e95786d00","6617fad957f7c6a12ea16e26","6622cf45afefd392cfa1f4ed","image grid","p","","","","","Ontogenetic_Distractor_notarget","ongrid","2500"," ","4","Ontogenetic","false","experimental"
"","null","html-keyboard-response","131","229353","0.0-11.0-2.13","NRmXToZJYS","65eb5fae5d67438e95786d00","6617fad957f7c6a12ea16e26","6622cf45afefd392cfa1f4ed","
    <div id=""grid-container"">
        <!-- Grid items will be dynamically added here -->
    </div>    ","null","","","","","","","","","","","",""
"","null","html-keyboard-response","132","230069","0.0-11.0-0.14","NRmXToZJYS","65eb5fae5d67438e95786d00","6617fad957f7c6a12ea16e26","6622cf45afefd392cfa1f4ed","fixation cross","null","","","","","","","","","","","",""
"","1340","html-keyboard-response","133","231409","0.0-11.0-1.14","NRmXToZJYS","65eb5fae5d67438e95786d00","6617fad957f7c6a12ea16e26","6622cf45afefd392cfa1f4ed","image grid","q","","","","","Ontogenetic_Distractor_Threat_target","ongrid","2500","q","9","Ontogenetic","true","experimental"
"","null","html-keyboard-response","134","231571","0.0-11.0-2.14","NRmXToZJYS","65eb5fae5d67438e95786d00","6617fad957f7c6a12ea16e26","6622cf45afefd392cfa1f4ed","
    <div id=""grid-container"">
        <!-- Grid items will be dynamically added here -->
    </div>    ","null","","","","","","","","","","","",""
"","null","html-keyboard-response","135","232287","0.0-11.0-0.15","NRmXToZJYS","65eb5fae5d67438e95786d00","6617fad957f7c6a12ea16e26","6622cf45afefd392cfa1f4ed","fixation cross","null","","","","","","","","","","","",""
"","1584","html-keyboard-response","136","233872","0.0-11.0-1.15","NRmXToZJYS","65eb5fae5d67438e95786d00","6617fad957f7c6a12ea16e26","6622cf45afefd392cfa1f4ed","image grid","p","","","","","Ontogenetic_Distractor_Nonthreat_target","ongrid","2500","p","7","Ontogenetic","true","experimental"
"","null","html-keyboard-response","137","234024","0.0-11.0-2.15","NRmXToZJYS","65eb5fae5d67438e95786d00","6617fad957f7c6a12ea16e26","6622cf45afefd392cfa1f4ed","
    <div id=""grid-container"">
        <!-- Grid items will be dynamically added here -->
    </div>    ","null","","","","","","","","","","","",""
"","null","html-keyboard-response","138","234738","0.0-11.0-0.16","NRmXToZJYS","65eb5fae5d67438e95786d00","6617fad957f7c6a12ea16e26","6622cf45afefd392cfa1f4ed","fixation cross","null","","","","","","","","","","","",""
"","995","html-keyboard-response","139","235734","0.0-11.0-1.16","NRmXToZJYS","65eb5fae5d67438e95786d00","6617fad957f7c6a12ea16e26","6622cf45afefd392cfa1f4ed","image grid","p","","","","","Ontogenetic_Distractor_Nonthreat_target","ongrid","2500","p","2","Ontogenetic","true","experimental"
"","null","html-keyboard-response","140","235889","0.0-11.0-2.16","NRmXToZJYS","65eb5fae5d67438e95786d00","6617fad957f7c6a12ea16e26","6622cf45afefd392cfa1f4ed","
    <div id=""grid-container"">
        <!-- Grid items will be dynamically added here -->
    </div>    ","null","","","","","","","","","","","",""
"","null","html-keyboard-response","141","236608","0.0-11.0-0.17","NRmXToZJYS","65eb5fae5d67438e95786d00","6617fad957f7c6a12ea16e26","6622cf45afefd392cfa1f4ed","fixation cross","null","","","","","","","","","","","",""
"","891","html-keyboard-response","142","237500","0.0-11.0-1.17","NRmXToZJYS","65eb5fae5d67438e95786d00","6617fad957f7c6a12ea16e26","6622cf45afefd392cfa1f4ed","image grid","q","","","","","Ontogenetic_Distractor_Threat_target","ongrid","2500","q","9","Ontogenetic","true","experimental"
"","null","html-keyboard-response","143","237660","0.0-11.0-2.17","NRmXToZJYS","65eb5fae5d67438e95786d00","6617fad957f7c6a12ea16e26","6622cf45afefd392cfa1f4ed","
    <div id=""grid-container"">
        <!-- Grid items will be dynamically added here -->
    </div>    ","null","","","","","","","","","","","",""
"","null","html-keyboard-response","144","238377","0.0-11.0-0.18","NRmXToZJYS","65eb5fae5d67438e95786d00","6617fad957f7c6a12ea16e26","6622cf45afefd392cfa1f4ed","fixation cross","null","","","","","","","","","","","",""
"","979","html-keyboard-response","145","239356","0.0-11.0-1.18","NRmXToZJYS","65eb5fae5d67438e95786d00","6617fad957f7c6a12ea16e26","6622cf45afefd392cfa1f4ed","image grid","q","","","","","Ontogenetic_Distractor_Threat_target","ongrid","2500","q","8","Ontogenetic","true","experimental"
"","null","html-keyboard-response","146","239515","0.0-11.0-2.18","NRmXToZJYS","65eb5fae5d67438e95786d00","6617fad957f7c6a12ea16e26","6622cf45afefd392cfa1f4ed","
    <div id=""grid-container"">
        <!-- Grid items will be dynamically added here -->
    </div>    ","null","","","","","","","","","","","",""
"","null","html-keyboard-response","147","240240","0.0-11.0-0.19","NRmXToZJYS","65eb5fae5d67438e95786d00","6617fad957f7c6a12ea16e26","6622cf45afefd392cfa1f4ed","fixation cross","null","","","","","","","","","","","",""
"","1039","html-keyboard-response","148","241276","0.0-11.0-1.19","NRmXToZJYS","65eb5fae5d67438e95786d00","6617fad957f7c6a12ea16e26","6622cf45afefd392cfa1f4ed","image grid","q","","","","","Ontogenetic_Distractor_Threat_target","ongrid","2500","q","1","Ontogenetic","true","experimental"
"","null","html-keyboard-response","149","241442","0.0-11.0-2.19","NRmXToZJYS","65eb5fae5d67438e95786d00","6617fad957f7c6a12ea16e26","6622cf45afefd392cfa1f4ed","
    <div id=""grid-container"">
        <!-- Grid items will be dynamically added here -->
    </div>    ","null","","","","","","","","","","","",""
"","null","html-keyboard-response","150","242163","0.0-11.0-0.20","NRmXToZJYS","65eb5fae5d67438e95786d00","6617fad957f7c6a12ea16e26","6622cf45afefd392cfa1f4ed","fixation cross","null","","","","","","","","","","","",""
"","1071","html-keyboard-response","151","243234","0.0-11.0-1.20","NRmXToZJYS","65eb5fae5d67438e95786d00","6617fad957f7c6a12ea16e26","6622cf45afefd392cfa1f4ed","image grid","p","","","","","Ontogenetic_Distractor_Nonthreat_target","ongrid","2500","p","7","Ontogenetic","true","experimental"
"","null","html-keyboard-response","152","243394","0.0-11.0-2.20","NRmXToZJYS","65eb5fae5d67438e95786d00","6617fad957f7c6a12ea16e26","6622cf45afefd392cfa1f4ed","
    <div id=""grid-container"">
        <!-- Grid items will be dynamically added here -->
    </div>    ","null","","","","","","","","","","","",""
"","null","html-keyboard-response","153","244109","0.0-11.0-0.21","NRmXToZJYS","65eb5fae5d67438e95786d00","6617fad957f7c6a12ea16e26","6622cf45afefd392cfa1f4ed","fixation cross","null","","","","","","","","","","","",""
"","1416","html-keyboard-response","154","245526","0.0-11.0-1.21","NRmXToZJYS","65eb5fae5d67438e95786d00","6617fad957f7c6a12ea16e26","6622cf45afefd392cfa1f4ed","image grid","p","","","","","Ontogenetic_Distractor_Nonthreat_target","ongrid","2500","p","4","Ontogenetic","true","experimental"
"","null","html-keyboard-response","155","245680","0.0-11.0-2.21","NRmXToZJYS","65eb5fae5d67438e95786d00","6617fad957f7c6a12ea16e26","6622cf45afefd392cfa1f4ed","
    <div id=""grid-container"">
        <!-- Grid items will be dynamically added here -->
    </div>    ","null","","","","","","","","","","","",""
"","null","html-keyboard-response","156","246399","0.0-11.0-0.22","NRmXToZJYS","65eb5fae5d67438e95786d00","6617fad957f7c6a12ea16e26","6622cf45afefd392cfa1f4ed","fixation cross","null","","","","","","","","","","","",""
"","862","html-keyboard-response","157","247261","0.0-11.0-1.22","NRmXToZJYS","65eb5fae5d67438e95786d00","6617fad957f7c6a12ea16e26","6622cf45afefd392cfa1f4ed","image grid","p","","","","","Ontogenetic_Distractor_Nonthreat_target","ongrid","2500","p","4","Ontogenetic","true","experimental"
"","null","html-keyboard-response","158","247415","0.0-11.0-2.22","NRmXToZJYS","65eb5fae5d67438e95786d00","6617fad957f7c6a12ea16e26","6622cf45afefd392cfa1f4ed","
    <div id=""grid-container"">
        <!-- Grid items will be dynamically added here -->
    </div>    ","null","","","","","","","","","","","",""
"","null","html-keyboard-response","159","248129","0.0-11.0-0.23","NRmXToZJYS","65eb5fae5d67438e95786d00","6617fad957f7c6a12ea16e26","6622cf45afefd392cfa1f4ed","fixation cross","null","","","","","","","","","","","",""
"","1389","html-keyboard-response","160","249519","0.0-11.0-1.23","NRmXToZJYS","65eb5fae5d67438e95786d00","6617fad957f7c6a12ea16e26","6622cf45afefd392cfa1f4ed","image grid","p","","","","","Ontogenetic_Distractor_Nonthreat_target","ongrid","2500","p","1","Ontogenetic","true","experimental"
"","null","html-keyboard-response","161","249682","0.0-11.0-2.23","NRmXToZJYS","65eb5fae5d67438e95786d00","6617fad957f7c6a12ea16e26","6622cf45afefd392cfa1f4ed","
    <div id=""grid-container"">
        <!-- Grid items will be dynamically added here -->
    </div>    ","null","","","","","","","","","","","",""
"","null","html-keyboard-response","162","250403","0.0-11.0-0.24","NRmXToZJYS","65eb5fae5d67438e95786d00","6617fad957f7c6a12ea16e26","6622cf45afefd392cfa1f4ed","fixation cross","null","","","","","","","","","","","",""
"","1714","html-keyboard-response","163","252117","0.0-11.0-1.24","NRmXToZJYS","65eb5fae5d67438e95786d00","6617fad957f7c6a12ea16e26","6622cf45afefd392cfa1f4ed","image grid","p","","","","","Ontogenetic_Distractor_notarget","ongrid","2500"," ","8","Ontogenetic","false","experimental"
"","null","html-keyboard-response","164","252269","0.0-11.0-2.24","NRmXToZJYS","65eb5fae5d67438e95786d00","6617fad957f7c6a12ea16e26","6622cf45afefd392cfa1f4ed","
    <div id=""grid-container"">
        <!-- Grid items will be dynamically added here -->
    </div>    ","null","","","","","","","","","","","",""
"","null","html-keyboard-response","165","252984","0.0-11.0-0.25","NRmXToZJYS","65eb5fae5d67438e95786d00","6617fad957f7c6a12ea16e26","6622cf45afefd392cfa1f4ed","fixation cross","null","","","","","","","","","","","",""
"","1439","html-keyboard-response","166","254424","0.0-11.0-1.25","NRmXToZJYS","65eb5fae5d67438e95786d00","6617fad957f7c6a12ea16e26","6622cf45afefd392cfa1f4ed","image grid","p","","","","","Ontogenetic_Distractor_Nonthreat_target","ongrid","2500","p","8","Ontogenetic","true","experimental"
"","null","html-keyboard-response","167","254585","0.0-11.0-2.25","NRmXToZJYS","65eb5fae5d67438e95786d00","6617fad957f7c6a12ea16e26","6622cf45afefd392cfa1f4ed","
    <div id=""grid-container"">
        <!-- Grid items will be dynamically added here -->
    </div>    ","null","","","","","","","","","","","",""
"","null","html-keyboard-response","168","255300","0.0-11.0-0.26","NRmXToZJYS","65eb5fae5d67438e95786d00","6617fad957f7c6a12ea16e26","6622cf45afefd392cfa1f4ed","fixation cross","null","","","","","","","","","","","",""
"","950","html-keyboard-response","169","256250","0.0-11.0-1.26","NRmXToZJYS","65eb5fae5d67438e95786d00","6617fad957f7c6a12ea16e26","6622cf45afefd392cfa1f4ed","image grid","q","","","","","Ontogenetic_Distractor_Threat_target","ongrid","2500","q","1","Ontogenetic","true","experimental"
"","null","html-keyboard-response","170","256404","0.0-11.0-2.26","NRmXToZJYS","65eb5fae5d67438e95786d00","6617fad957f7c6a12ea16e26","6622cf45afefd392cfa1f4ed","
    <div id=""grid-container"">
        <!-- Grid items will be dynamically added here -->
    </div>    ","null","","","","","","","","","","","",""
"","null","html-keyboard-response","171","257123","0.0-11.0-0.27","NRmXToZJYS","65eb5fae5d67438e95786d00","6617fad957f7c6a12ea16e26","6622cf45afefd392cfa1f4ed","fixation cross","null","","","","","","","","","","","",""
"","848","html-keyboard-response","172","257972","0.0-11.0-1.27","NRmXToZJYS","65eb5fae5d67438e95786d00","6617fad957f7c6a12ea16e26","6622cf45afefd392cfa1f4ed","image grid","p","","","","","Ontogenetic_Distractor_Nonthreat_target","ongrid","2500","p","3","Ontogenetic","true","experimental"
"","null","html-keyboard-response","173","258124","0.0-11.0-2.27","NRmXToZJYS","65eb5fae5d67438e95786d00","6617fad957f7c6a12ea16e26","6622cf45afefd392cfa1f4ed","
    <div id=""grid-container"">
        <!-- Grid items will be dynamically added here -->
    </div>    ","null","","","","","","","","","","","",""
"","null","html-keyboard-response","174","258851","0.0-11.0-0.28","NRmXToZJYS","65eb5fae5d67438e95786d00","6617fad957f7c6a12ea16e26","6622cf45afefd392cfa1f4ed","fixation cross","null","","","","","","","","","","","",""
"","999","html-keyboard-response","175","259850","0.0-11.0-1.28","NRmXToZJYS","65eb5fae5d67438e95786d00","6617fad957f7c6a12ea16e26","6622cf45afefd392cfa1f4ed","image grid","p","","","","","Ontogenetic_Distractor_Threat_target","ongrid","2500","q","6","Ontogenetic","false","experimental"
"","null","html-keyboard-response","176","260008","0.0-11.0-2.28","NRmXToZJYS","65eb5fae5d67438e95786d00","6617fad957f7c6a12ea16e26","6622cf45afefd392cfa1f4ed","
    <div id=""grid-container"">
        <!-- Grid items will be dynamically added here -->
    </div>    ","null","","","","","","","","","","","",""
"","null","html-keyboard-response","177","260724","0.0-11.0-0.29","NRmXToZJYS","65eb5fae5d67438e95786d00","6617fad957f7c6a12ea16e26","6622cf45afefd392cfa1f4ed","fixation cross","null","","","","","","","","","","","",""
"","903","html-keyboard-response","178","261628","0.0-11.0-1.29","NRmXToZJYS","65eb5fae5d67438e95786d00","6617fad957f7c6a12ea16e26","6622cf45afefd392cfa1f4ed","image grid","p","","","","","Ontogenetic_Distractor_Nonthreat_target","ongrid","2500","p","6","Ontogenetic","true","experimental"
"","null","html-keyboard-response","179","261794","0.0-11.0-2.29","NRmXToZJYS","65eb5fae5d67438e95786d00","6617fad957f7c6a12ea16e26","6622cf45afefd392cfa1f4ed","
    <div id=""grid-container"">
        <!-- Grid items will be dynamically added here -->
    </div>    ","null","","","","","","","","","","","",""
"","null","html-keyboard-response","180","262524","0.0-11.0-0.30","NRmXToZJYS","65eb5fae5d67438e95786d00","6617fad957f7c6a12ea16e26","6622cf45afefd392cfa1f4ed","fixation cross","null","","","","","","","","","","","",""
"","712","html-keyboard-response","181","263236","0.0-11.0-1.30","NRmXToZJYS","65eb5fae5d67438e95786d00","6617fad957f7c6a12ea16e26","6622cf45afefd392cfa1f4ed","image grid","q","","","","","Ontogenetic_Distractor_Threat_target","ongrid","2500","q","7","Ontogenetic","true","experimental"
"","null","html-keyboard-response","182","263394","0.0-11.0-2.30","NRmXToZJYS","65eb5fae5d67438e95786d00","6617fad957f7c6a12ea16e26","6622cf45afefd392cfa1f4ed","
    <div id=""grid-container"">
        <!-- Grid items will be dynamically added here -->
    </div>    ","null","","","","","","","","","","","",""
"","null","html-keyboard-response","183","264113","0.0-11.0-0.31","NRmXToZJYS","65eb5fae5d67438e95786d00","6617fad957f7c6a12ea16e26","6622cf45afefd392cfa1f4ed","fixation cross","null","","","","","","","","","","","",""
"","1378","html-keyboard-response","184","265492","0.0-11.0-1.31","NRmXToZJYS","65eb5fae5d67438e95786d00","6617fad957f7c6a12ea16e26","6622cf45afefd392cfa1f4ed","image grid","p","","","","","Ontogenetic_Distractor_Nonthreat_target","ongrid","2500","p","7","Ontogenetic","true","experimental"
"","null","html-keyboard-response","185","265645","0.0-11.0-2.31","NRmXToZJYS","65eb5fae5d67438e95786d00","6617fad957f7c6a12ea16e26","6622cf45afefd392cfa1f4ed","
    <div id=""grid-container"">
        <!-- Grid items will be dynamically added here -->
    </div>    ","null","","","","","","","","","","","",""
"","null","html-keyboard-response","186","266361","0.0-11.0-0.32","NRmXToZJYS","65eb5fae5d67438e95786d00","6617fad957f7c6a12ea16e26","6622cf45afefd392cfa1f4ed","fixation cross","null","","","","","","","","","","","",""
"","1574","html-keyboard-response","187","267935","0.0-11.0-1.32","NRmXToZJYS","65eb5fae5d67438e95786d00","6617fad957f7c6a12ea16e26","6622cf45afefd392cfa1f4ed","image grid","p","","","","","Ontogenetic_Distractor_notarget","ongrid","2500"," ","2","Ontogenetic","false","experimental"
"","null","html-keyboard-response","188","268098","0.0-11.0-2.32","NRmXToZJYS","65eb5fae5d67438e95786d00","6617fad957f7c6a12ea16e26","6622cf45afefd392cfa1f4ed","
    <div id=""grid-container"">
        <!-- Grid items will be dynamically added here -->
    </div>    ","null","","","","","","","","","","","",""
"","null","html-keyboard-response","189","268815","0.0-11.0-0.33","NRmXToZJYS","65eb5fae5d67438e95786d00","6617fad957f7c6a12ea16e26","6622cf45afefd392cfa1f4ed","fixation cross","null","","","","","","","","","","","",""
"","834","html-keyboard-response","190","269649","0.0-11.0-1.33","NRmXToZJYS","65eb5fae5d67438e95786d00","6617fad957f7c6a12ea16e26","6622cf45afefd392cfa1f4ed","image grid","q","","","","","Ontogenetic_Distractor_Threat_target","ongrid","2500","q","9","Ontogenetic","true","experimental"
"","null","html-keyboard-response","191","269815","0.0-11.0-2.33","NRmXToZJYS","65eb5fae5d67438e95786d00","6617fad957f7c6a12ea16e26","6622cf45afefd392cfa1f4ed","
    <div id=""grid-container"">
        <!-- Grid items will be dynamically added here -->
    </div>    ","null","","","","","","","","","","","",""
"","null","html-keyboard-response","192","270535","0.0-11.0-0.34","NRmXToZJYS","65eb5fae5d67438e95786d00","6617fad957f7c6a12ea16e26","6622cf45afefd392cfa1f4ed","fixation cross","null","","","","","","","","","","","",""
"","1206","html-keyboard-response","193","271741","0.0-11.0-1.34","NRmXToZJYS","65eb5fae5d67438e95786d00","6617fad957f7c6a12ea16e26","6622cf45afefd392cfa1f4ed","image grid","p","","","","","Ontogenetic_Distractor_Nonthreat_target","ongrid","2500","p","4","Ontogenetic","true","experimental"
"","null","html-keyboard-response","194","271900","0.0-11.0-2.34","NRmXToZJYS","65eb5fae5d67438e95786d00","6617fad957f7c6a12ea16e26","6622cf45afefd392cfa1f4ed","
    <div id=""grid-container"">
        <!-- Grid items will be dynamically added here -->
    </div>    ","null","","","","","","","","","","","",""
"","null","html-keyboard-response","195","272618","0.0-11.0-0.35","NRmXToZJYS","65eb5fae5d67438e95786d00","6617fad957f7c6a12ea16e26","6622cf45afefd392cfa1f4ed","fixation cross","null","","","","","","","","","","","",""
"","1137","html-keyboard-response","196","273755","0.0-11.0-1.35","NRmXToZJYS","65eb5fae5d67438e95786d00","6617fad957f7c6a12ea16e26","6622cf45afefd392cfa1f4ed","image grid","q","","","","","Ontogenetic_Distractor_Threat_target","ongrid","2500","q","2","Ontogenetic","true","experimental"
"","null","html-keyboard-response","197","273919","0.0-11.0-2.35","NRmXToZJYS","65eb5fae5d67438e95786d00","6617fad957f7c6a12ea16e26","6622cf45afefd392cfa1f4ed","
    <div id=""grid-container"">
        <!-- Grid items will be dynamically added here -->
    </div>    ","null","","","","","","","","","","","",""
"","null","html-keyboard-response","198","274636","0.0-11.0-0.36","NRmXToZJYS","65eb5fae5d67438e95786d00","6617fad957f7c6a12ea16e26","6622cf45afefd392cfa1f4ed","fixation cross","null","","","","","","","","","","","",""
"","1701","html-keyboard-response","199","276338","0.0-11.0-1.36","NRmXToZJYS","65eb5fae5d67438e95786d00","6617fad957f7c6a12ea16e26","6622cf45afefd392cfa1f4ed","image grid","p","","","","","Ontogenetic_Distractor_Nonthreat_target","ongrid","2500","p","6","Ontogenetic","true","experimental"
"","null","html-keyboard-response","200","276490","0.0-11.0-2.36","NRmXToZJYS","65eb5fae5d67438e95786d00","6617fad957f7c6a12ea16e26","6622cf45afefd392cfa1f4ed","
    <div id=""grid-container"">
        <!-- Grid items will be dynamically added here -->
    </div>    ","null","","","","","","","","","","","",""
"","null","html-keyboard-response","201","277218","0.0-11.0-0.37","NRmXToZJYS","65eb5fae5d67438e95786d00","6617fad957f7c6a12ea16e26","6622cf45afefd392cfa1f4ed","fixation cross","null","","","","","","","","","","","",""
"","1596","html-keyboard-response","202","278814","0.0-11.0-1.37","NRmXToZJYS","65eb5fae5d67438e95786d00","6617fad957f7c6a12ea16e26","6622cf45afefd392cfa1f4ed","image grid","q","","","","","Ontogenetic_Distractor_Threat_target","ongrid","2500","q","7","Ontogenetic","true","experimental"
"","null","html-keyboard-response","203","278973","0.0-11.0-2.37","NRmXToZJYS","65eb5fae5d67438e95786d00","6617fad957f7c6a12ea16e26","6622cf45afefd392cfa1f4ed","
    <div id=""grid-container"">
        <!-- Grid items will be dynamically added here -->
    </div>    ","null","","","","","","","","","","","",""
"","null","html-keyboard-response","204","279693","0.0-11.0-0.38","NRmXToZJYS","65eb5fae5d67438e95786d00","6617fad957f7c6a12ea16e26","6622cf45afefd392cfa1f4ed","fixation cross","null","","","","","","","","","","","",""
"","801","html-keyboard-response","205","280494","0.0-11.0-1.38","NRmXToZJYS","65eb5fae5d67438e95786d00","6617fad957f7c6a12ea16e26","6622cf45afefd392cfa1f4ed","image grid","q","","","","","Ontogenetic_Distractor_Threat_target","ongrid","2500","q","3","Ontogenetic","true","experimental"
"","null","html-keyboard-response","206","280657","0.0-11.0-2.38","NRmXToZJYS","65eb5fae5d67438e95786d00","6617fad957f7c6a12ea16e26","6622cf45afefd392cfa1f4ed","
    <div id=""grid-container"">
        <!-- Grid items will be dynamically added here -->
    </div>    ","null","","","","","","","","","","","",""
"","null","html-keyboard-response","207","281374","0.0-11.0-0.39","NRmXToZJYS","65eb5fae5d67438e95786d00","6617fad957f7c6a12ea16e26","6622cf45afefd392cfa1f4ed","fixation cross","null","","","","","","","","","","","",""
"","953","html-keyboard-response","208","282328","0.0-11.0-1.39","NRmXToZJYS","65eb5fae5d67438e95786d00","6617fad957f7c6a12ea16e26","6622cf45afefd392cfa1f4ed","image grid","p","","","","","Ontogenetic_Distractor_notarget","ongrid","2500"," ","6","Ontogenetic","false","experimental"
"","null","html-keyboard-response","209","282493","0.0-11.0-2.39","NRmXToZJYS","65eb5fae5d67438e95786d00","6617fad957f7c6a12ea16e26","6622cf45afefd392cfa1f4ed","
    <div id=""grid-container"">
        <!-- Grid items will be dynamically added here -->
    </div>    ","null","","","","","","","","","","","",""
"","17681","html-keyboard-response","210","300404","0.0-12.0","NRmXToZJYS","65eb5fae5d67438e95786d00","6617fad957f7c6a12ea16e26","6622cf45afefd392cfa1f4ed","break screen"," ","","","","","","","","","","","",""
"","null","html-keyboard-response","211","302942","0.0-13.0-0.0","NRmXToZJYS","65eb5fae5d67438e95786d00","6617fad957f7c6a12ea16e26","6622cf45afefd392cfa1f4ed","fixation cross","null","","","","","","","","","","","",""
"","null","html-keyboard-response","212","303751","0.0-13.0-1.0","NRmXToZJYS","65eb5fae5d67438e95786d00","6617fad957f7c6a12ea16e26","6622cf45afefd392cfa1f4ed","
        <div id=""grid-container"">
        <!-- Grid items will be dynamically added here -->
    </div>    ","null","","","","","","","","","","","",""
"","1021","html-keyboard-response","213","303972","0.0-13.0-2.0","NRmXToZJYS","65eb5fae5d67438e95786d00","6617fad957f7c6a12ea16e26","6622cf45afefd392cfa1f4ed","mask grid","p","","","","","Phylogenetic_Distractor_notarget","onmask","800"," ","5","Phylogenetic","false","experimental"
"","null","html-keyboard-response","214","304683","0.0-13.0-0.1","NRmXToZJYS","65eb5fae5d67438e95786d00","6617fad957f7c6a12ea16e26","6622cf45afefd392cfa1f4ed","fixation cross","null","","","","","","","","","","","",""
"","null","html-keyboard-response","215","305490","0.0-13.0-1.1","NRmXToZJYS","65eb5fae5d67438e95786d00","6617fad957f7c6a12ea16e26","6622cf45afefd392cfa1f4ed","
        <div id=""grid-container"">
        <!-- Grid items will be dynamically added here -->
    </div>    ","null","","","","","","","","","","","",""
"","1288","html-keyboard-response","216","305979","0.0-13.0-2.1","NRmXToZJYS","65eb5fae5d67438e95786d00","6617fad957f7c6a12ea16e26","6622cf45afefd392cfa1f4ed","mask grid","p","","","","","Phylogenetic_Distractor_Nonthreat_target","onmask","800","p","7","Phylogenetic","true","experimental"
"","null","html-keyboard-response","217","306698","0.0-13.0-0.2","NRmXToZJYS","65eb5fae5d67438e95786d00","6617fad957f7c6a12ea16e26","6622cf45afefd392cfa1f4ed","fixation cross","null","","","","","","","","","","","",""
"","null","html-keyboard-response","218","307503","0.0-13.0-1.2","NRmXToZJYS","65eb5fae5d67438e95786d00","6617fad957f7c6a12ea16e26","6622cf45afefd392cfa1f4ed","
        <div id=""grid-container"">
        <!-- Grid items will be dynamically added here -->
    </div>    ","null","","","","","","","","","","","",""
"","1008","html-keyboard-response","219","307711","0.0-13.0-2.2","NRmXToZJYS","65eb5fae5d67438e95786d00","6617fad957f7c6a12ea16e26","6622cf45afefd392cfa1f4ed","mask grid","p","","","","","Phylogenetic_Distractor_notarget","onmask","800"," ","4","Phylogenetic","false","experimental"
"","null","html-keyboard-response","220","308419","0.0-13.0-0.3","NRmXToZJYS","65eb5fae5d67438e95786d00","6617fad957f7c6a12ea16e26","6622cf45afefd392cfa1f4ed","fixation cross","null","","","","","","","","","","","",""
"","null","html-keyboard-response","221","309225","0.0-13.0-1.3","NRmXToZJYS","65eb5fae5d67438e95786d00","6617fad957f7c6a12ea16e26","6622cf45afefd392cfa1f4ed","
        <div id=""grid-container"">
        <!-- Grid items will be dynamically added here -->
    </div>    ","null","","","","","","","","","","","",""
"","951","html-keyboard-response","222","309376","0.0-13.0-2.3","NRmXToZJYS","65eb5fae5d67438e95786d00","6617fad957f7c6a12ea16e26","6622cf45afefd392cfa1f4ed","mask grid","p","","","","","Phylogenetic_Distractor_Threat_target","onmask","800","q","5","Phylogenetic","false","experimental"
"","null","html-keyboard-response","223","310084","0.0-13.0-0.4","NRmXToZJYS","65eb5fae5d67438e95786d00","6617fad957f7c6a12ea16e26","6622cf45afefd392cfa1f4ed","fixation cross","null","","","","","","","","","","","",""
"","null","html-keyboard-response","224","310891","0.0-13.0-1.4","NRmXToZJYS","65eb5fae5d67438e95786d00","6617fad957f7c6a12ea16e26","6622cf45afefd392cfa1f4ed","
        <div id=""grid-container"">
        <!-- Grid items will be dynamically added here -->
    </div>    ","null","","","","","","","","","","","",""
"","860","html-keyboard-response","225","310951","0.0-13.0-2.4","NRmXToZJYS","65eb5fae5d67438e95786d00","6617fad957f7c6a12ea16e26","6622cf45afefd392cfa1f4ed","mask grid","p","","","","","Phylogenetic_Distractor_Nonthreat_target","onmask","800","p","2","Phylogenetic","true","experimental"
"","null","html-keyboard-response","226","311667","0.0-13.0-0.5","NRmXToZJYS","65eb5fae5d67438e95786d00","6617fad957f7c6a12ea16e26","6622cf45afefd392cfa1f4ed","fixation cross","null","","","","","","","","","","","",""
"","712","html-keyboard-response","227","312380","0.0-13.0-1.5","NRmXToZJYS","65eb5fae5d67438e95786d00","6617fad957f7c6a12ea16e26","6622cf45afefd392cfa1f4ed","image grid","p","","","","","Phylogenetic_Distractor_notarget","ongrid","800"," ","3","Phylogenetic","false","experimental"
"","null","html-keyboard-response","228","312538","0.0-13.0-2.5","NRmXToZJYS","65eb5fae5d67438e95786d00","6617fad957f7c6a12ea16e26","6622cf45afefd392cfa1f4ed","
    <div id=""grid-container"">
        <!-- Grid items will be dynamically added here -->
    </div>    ","null","","","","","","","","","","","",""
"","null","html-keyboard-response","229","313252","0.0-13.0-0.6","NRmXToZJYS","65eb5fae5d67438e95786d00","6617fad957f7c6a12ea16e26","6622cf45afefd392cfa1f4ed","fixation cross","null","","","","","","","","","","","",""
"","579","html-keyboard-response","230","313831","0.0-13.0-1.6","NRmXToZJYS","65eb5fae5d67438e95786d00","6617fad957f7c6a12ea16e26","6622cf45afefd392cfa1f4ed","image grid","p","","","","","Phylogenetic_Distractor_Threat_target","ongrid","800","q","8","Phylogenetic","false","experimental"
"","null","html-keyboard-response","231","313988","0.0-13.0-2.6","NRmXToZJYS","65eb5fae5d67438e95786d00","6617fad957f7c6a12ea16e26","6622cf45afefd392cfa1f4ed","
    <div id=""grid-container"">
        <!-- Grid items will be dynamically added here -->
    </div>    ","null","","","","","","","","","","","",""
"","null","html-keyboard-response","232","314705","0.0-13.0-0.7","NRmXToZJYS","65eb5fae5d67438e95786d00","6617fad957f7c6a12ea16e26","6622cf45afefd392cfa1f4ed","fixation cross","null","","","","","","","","","","","",""
"","null","html-keyboard-response","233","315512","0.0-13.0-1.7","NRmXToZJYS","65eb5fae5d67438e95786d00","6617fad957f7c6a12ea16e26","6622cf45afefd392cfa1f4ed","
        <div id=""grid-container"">
        <!-- Grid items will be dynamically added here -->
    </div>    ","null","","","","","","","","","","","",""
"","874","html-keyboard-response","234","315586","0.0-13.0-2.7","NRmXToZJYS","65eb5fae5d67438e95786d00","6617fad957f7c6a12ea16e26","6622cf45afefd392cfa1f4ed","mask grid","p","","","","","Phylogenetic_Distractor_Nonthreat_target","onmask","800","p","1","Phylogenetic","true","experimental"
"","null","html-keyboard-response","235","316303","0.0-13.0-0.8","NRmXToZJYS","65eb5fae5d67438e95786d00","6617fad957f7c6a12ea16e26","6622cf45afefd392cfa1f4ed","fixation cross","null","","","","","","","","","","","",""
"","667","html-keyboard-response","236","316970","0.0-13.0-1.8","NRmXToZJYS","65eb5fae5d67438e95786d00","6617fad957f7c6a12ea16e26","6622cf45afefd392cfa1f4ed","image grid","p","","","","","Phylogenetic_Distractor_Threat_target","ongrid","800","q","6","Phylogenetic","false","experimental"
"","null","html-keyboard-response","237","317123","0.0-13.0-2.8","NRmXToZJYS","65eb5fae5d67438e95786d00","6617fad957f7c6a12ea16e26","6622cf45afefd392cfa1f4ed","
    <div id=""grid-container"">
        <!-- Grid items will be dynamically added here -->
    </div>    ","null","","","","","","","","","","","",""
"","null","html-keyboard-response","238","317840","0.0-13.0-0.9","NRmXToZJYS","65eb5fae5d67438e95786d00","6617fad957f7c6a12ea16e26","6622cf45afefd392cfa1f4ed","fixation cross","null","","","","","","","","","","","",""
"","682","html-keyboard-response","239","318523","0.0-13.0-1.9","NRmXToZJYS","65eb5fae5d67438e95786d00","6617fad957f7c6a12ea16e26","6622cf45afefd392cfa1f4ed","image grid","p","","","","","Phylogenetic_Distractor_Nonthreat_target","ongrid","800","p","9","Phylogenetic","true","experimental"
"","null","html-keyboard-response","240","318677","0.0-13.0-2.9","NRmXToZJYS","65eb5fae5d67438e95786d00","6617fad957f7c6a12ea16e26","6622cf45afefd392cfa1f4ed","
    <div id=""grid-container"">
        <!-- Grid items will be dynamically added here -->
    </div>    ","null","","","","","","","","","","","",""
"","null","html-keyboard-response","241","319391","0.0-13.0-0.10","NRmXToZJYS","65eb5fae5d67438e95786d00","6617fad957f7c6a12ea16e26","6622cf45afefd392cfa1f4ed","fixation cross","null","","","","","","","","","","","",""
"","null","html-keyboard-response","242","320198","0.0-13.0-1.10","NRmXToZJYS","65eb5fae5d67438e95786d00","6617fad957f7c6a12ea16e26","6622cf45afefd392cfa1f4ed","
        <div id=""grid-container"">
        <!-- Grid items will be dynamically added here -->
    </div>    ","null","","","","","","","","","","","",""
"","879","html-keyboard-response","243","320277","0.0-13.0-2.10","NRmXToZJYS","65eb5fae5d67438e95786d00","6617fad957f7c6a12ea16e26","6622cf45afefd392cfa1f4ed","mask grid","p","","","","","Phylogenetic_Distractor_Nonthreat_target","onmask","800","p","4","Phylogenetic","true","experimental"
"","null","html-keyboard-response","244","320992","0.0-13.0-0.11","NRmXToZJYS","65eb5fae5d67438e95786d00","6617fad957f7c6a12ea16e26","6622cf45afefd392cfa1f4ed","fixation cross","null","","","","","","","","","","","",""
"","null","html-keyboard-response","245","321798","0.0-13.0-1.11","NRmXToZJYS","65eb5fae5d67438e95786d00","6617fad957f7c6a12ea16e26","6622cf45afefd392cfa1f4ed","
        <div id=""grid-container"">
        <!-- Grid items will be dynamically added here -->
    </div>    ","null","","","","","","","","","","","",""
"","1248","html-keyboard-response","246","322247","0.0-13.0-2.11","NRmXToZJYS","65eb5fae5d67438e95786d00","6617fad957f7c6a12ea16e26","6622cf45afefd392cfa1f4ed","mask grid","p","","","","","Phylogenetic_Distractor_Nonthreat_target","onmask","800","p","6","Phylogenetic","true","experimental"
"","null","html-keyboard-response","247","322974","0.0-13.0-0.12","NRmXToZJYS","65eb5fae5d67438e95786d00","6617fad957f7c6a12ea16e26","6622cf45afefd392cfa1f4ed","fixation cross","null","","","","","","","","","","","",""
"","723","html-keyboard-response","248","323698","0.0-13.0-1.12","NRmXToZJYS","65eb5fae5d67438e95786d00","6617fad957f7c6a12ea16e26","6622cf45afefd392cfa1f4ed","image grid","p","","","","","Phylogenetic_Distractor_Nonthreat_target","ongrid","800","p","4","Phylogenetic","true","experimental"
"","null","html-keyboard-response","249","323863","0.0-13.0-2.12","NRmXToZJYS","65eb5fae5d67438e95786d00","6617fad957f7c6a12ea16e26","6622cf45afefd392cfa1f4ed","
    <div id=""grid-container"">
        <!-- Grid items will be dynamically added here -->
    </div>    ","null","","","","","","","","","","","",""
"","null","html-keyboard-response","250","324591","0.0-13.0-0.13","NRmXToZJYS","65eb5fae5d67438e95786d00","6617fad957f7c6a12ea16e26","6622cf45afefd392cfa1f4ed","fixation cross","null","","","","","","","","","","","",""
"","771","html-keyboard-response","251","325363","0.0-13.0-1.13","NRmXToZJYS","65eb5fae5d67438e95786d00","6617fad957f7c6a12ea16e26","6622cf45afefd392cfa1f4ed","image grid","p","","","","","Phylogenetic_Distractor_Threat_target","ongrid","800","q","2","Phylogenetic","false","experimental"
"","null","html-keyboard-response","252","325517","0.0-13.0-2.13","NRmXToZJYS","65eb5fae5d67438e95786d00","6617fad957f7c6a12ea16e26","6622cf45afefd392cfa1f4ed","
    <div id=""grid-container"">
        <!-- Grid items will be dynamically added here -->
    </div>    ","null","","","","","","","","","","","",""
"","null","html-keyboard-response","253","326243","0.0-13.0-0.14","NRmXToZJYS","65eb5fae5d67438e95786d00","6617fad957f7c6a12ea16e26","6622cf45afefd392cfa1f4ed","fixation cross","null","","","","","","","","","","","",""
"","638","html-keyboard-response","254","326881","0.0-13.0-1.14","NRmXToZJYS","65eb5fae5d67438e95786d00","6617fad957f7c6a12ea16e26","6622cf45afefd392cfa1f4ed","image grid","q","","","","","Phylogenetic_Distractor_Threat_target","ongrid","800","q","4","Phylogenetic","true","experimental"
"","null","html-keyboard-response","255","327034","0.0-13.0-2.14","NRmXToZJYS","65eb5fae5d67438e95786d00","6617fad957f7c6a12ea16e26","6622cf45afefd392cfa1f4ed","
    <div id=""grid-container"">
        <!-- Grid items will be dynamically added here -->
    </div>    ","null","","","","","","","","","","","",""
"","null","html-keyboard-response","256","327752","0.0-13.0-0.15","NRmXToZJYS","65eb5fae5d67438e95786d00","6617fad957f7c6a12ea16e26","6622cf45afefd392cfa1f4ed","fixation cross","null","","","","","","","","","","","",""
"","783","html-keyboard-response","257","328535","0.0-13.0-1.15","NRmXToZJYS","65eb5fae5d67438e95786d00","6617fad957f7c6a12ea16e26","6622cf45afefd392cfa1f4ed","image grid","p","","","","","Phylogenetic_Distractor_Threat_target","ongrid","800","q","1","Phylogenetic","false","experimental"
"","null","html-keyboard-response","258","328700","0.0-13.0-2.15","NRmXToZJYS","65eb5fae5d67438e95786d00","6617fad957f7c6a12ea16e26","6622cf45afefd392cfa1f4ed","
    <div id=""grid-container"">
        <!-- Grid items will be dynamically added here -->
    </div>    ","null","","","","","","","","","","","",""
"","null","html-keyboard-response","259","329420","0.0-13.0-0.16","NRmXToZJYS","65eb5fae5d67438e95786d00","6617fad957f7c6a12ea16e26","6622cf45afefd392cfa1f4ed","fixation cross","null","","","","","","","","","","","",""
"","null","html-keyboard-response","260","330225","0.0-13.0-1.16","NRmXToZJYS","65eb5fae5d67438e95786d00","6617fad957f7c6a12ea16e26","6622cf45afefd392cfa1f4ed","
        <div id=""grid-container"">
        <!-- Grid items will be dynamically added here -->
    </div>    ","null","","","","","","","","","","","",""
"","2053","html-keyboard-response","261","331479","0.0-13.0-2.16","NRmXToZJYS","65eb5fae5d67438e95786d00","6617fad957f7c6a12ea16e26","6622cf45afefd392cfa1f4ed","mask grid","q","","","","","Phylogenetic_Distractor_Nonthreat_target","onmask","800","p","1","Phylogenetic","false","experimental"
"","null","html-keyboard-response","262","332187","0.0-13.0-0.17","NRmXToZJYS","65eb5fae5d67438e95786d00","6617fad957f7c6a12ea16e26","6622cf45afefd392cfa1f4ed","fixation cross","null","","","","","","","","","","","",""
"","null","html-keyboard-response","263","332992","0.0-13.0-1.17","NRmXToZJYS","65eb5fae5d67438e95786d00","6617fad957f7c6a12ea16e26","6622cf45afefd392cfa1f4ed","
        <div id=""grid-container"">
        <!-- Grid items will be dynamically added here -->
    </div>    ","null","","","","","","","","","","","",""
"","877","html-keyboard-response","264","333069","0.0-13.0-2.17","NRmXToZJYS","65eb5fae5d67438e95786d00","6617fad957f7c6a12ea16e26","6622cf45afefd392cfa1f4ed","mask grid","q","","","","","Phylogenetic_Distractor_Nonthreat_target","onmask","800","p","7","Phylogenetic","false","experimental"
"","null","html-keyboard-response","265","333788","0.0-13.0-0.18","NRmXToZJYS","65eb5fae5d67438e95786d00","6617fad957f7c6a12ea16e26","6622cf45afefd392cfa1f4ed","fixation cross","null","","","","","","","","","","","",""
"","586","html-keyboard-response","266","334374","0.0-13.0-1.18","NRmXToZJYS","65eb5fae5d67438e95786d00","6617fad957f7c6a12ea16e26","6622cf45afefd392cfa1f4ed","image grid","p","","","","","Phylogenetic_Distractor_Nonthreat_target","ongrid","800","p","4","Phylogenetic","true","experimental"
"","null","html-keyboard-response","267","334538","0.0-13.0-2.18","NRmXToZJYS","65eb5fae5d67438e95786d00","6617fad957f7c6a12ea16e26","6622cf45afefd392cfa1f4ed","
    <div id=""grid-container"">
        <!-- Grid items will be dynamically added here -->
    </div>    ","null","","","","","","","","","","","",""
"","null","html-keyboard-response","268","335255","0.0-13.0-0.19","NRmXToZJYS","65eb5fae5d67438e95786d00","6617fad957f7c6a12ea16e26","6622cf45afefd392cfa1f4ed","fixation cross","null","","","","","","","","","","","",""
"","716","html-keyboard-response","269","335971","0.0-13.0-1.19","NRmXToZJYS","65eb5fae5d67438e95786d00","6617fad957f7c6a12ea16e26","6622cf45afefd392cfa1f4ed","image grid","p","","","","","Phylogenetic_Distractor_Threat_target","ongrid","800","q","8","Phylogenetic","false","experimental"
"","null","html-keyboard-response","270","336123","0.0-13.0-2.19","NRmXToZJYS","65eb5fae5d67438e95786d00","6617fad957f7c6a12ea16e26","6622cf45afefd392cfa1f4ed","
    <div id=""grid-container"">
        <!-- Grid items will be dynamically added here -->
    </div>    ","null","","","","","","","","","","","",""
"","null","html-keyboard-response","271","336841","0.0-13.0-0.20","NRmXToZJYS","65eb5fae5d67438e95786d00","6617fad957f7c6a12ea16e26","6622cf45afefd392cfa1f4ed","fixation cross","null","","","","","","","","","","","",""
"","626","html-keyboard-response","272","337468","0.0-13.0-1.20","NRmXToZJYS","65eb5fae5d67438e95786d00","6617fad957f7c6a12ea16e26","6622cf45afefd392cfa1f4ed","image grid","p","","","","","Phylogenetic_Distractor_Threat_target","ongrid","800","q","9","Phylogenetic","false","experimental"
"","null","html-keyboard-response","273","337625","0.0-13.0-2.20","NRmXToZJYS","65eb5fae5d67438e95786d00","6617fad957f7c6a12ea16e26","6622cf45afefd392cfa1f4ed","
    <div id=""grid-container"">
        <!-- Grid items will be dynamically added here -->
    </div>    ","null","","","","","","","","","","","",""
"","null","html-keyboard-response","274","338343","0.0-13.0-0.21","NRmXToZJYS","65eb5fae5d67438e95786d00","6617fad957f7c6a12ea16e26","6622cf45afefd392cfa1f4ed","fixation cross","null","","","","","","","","","","","",""
"","null","html-keyboard-response","275","339147","0.0-13.0-1.21","NRmXToZJYS","65eb5fae5d67438e95786d00","6617fad957f7c6a12ea16e26","6622cf45afefd392cfa1f4ed","
        <div id=""grid-container"">
        <!-- Grid items will be dynamically added here -->
    </div>    ","null","","","","","","","","","","","",""
"","886","html-keyboard-response","276","339234","0.0-13.0-2.21","NRmXToZJYS","65eb5fae5d67438e95786d00","6617fad957f7c6a12ea16e26","6622cf45afefd392cfa1f4ed","mask grid","q","","","","","Phylogenetic_Distractor_Threat_target","onmask","800","q","8","Phylogenetic","true","experimental"
"","null","html-keyboard-response","277","339940","0.0-13.0-0.22","NRmXToZJYS","65eb5fae5d67438e95786d00","6617fad957f7c6a12ea16e26","6622cf45afefd392cfa1f4ed","fixation cross","null","","","","","","","","","","","",""
"","null","html-keyboard-response","278","340748","0.0-13.0-1.22","NRmXToZJYS","65eb5fae5d67438e95786d00","6617fad957f7c6a12ea16e26","6622cf45afefd392cfa1f4ed","
        <div id=""grid-container"">
        <!-- Grid items will be dynamically added here -->
    </div>    ","null","","","","","","","","","","","",""
"","894","html-keyboard-response","279","340843","0.0-13.0-2.22","NRmXToZJYS","65eb5fae5d67438e95786d00","6617fad957f7c6a12ea16e26","6622cf45afefd392cfa1f4ed","mask grid","p","","","","","Phylogenetic_Distractor_notarget","onmask","800"," ","6","Phylogenetic","false","experimental"
"","null","html-keyboard-response","280","341561","0.0-13.0-0.23","NRmXToZJYS","65eb5fae5d67438e95786d00","6617fad957f7c6a12ea16e26","6622cf45afefd392cfa1f4ed","fixation cross","null","","","","","","","","","","","",""
"","null","html-keyboard-response","281","342364","0.0-13.0-1.23","NRmXToZJYS","65eb5fae5d67438e95786d00","6617fad957f7c6a12ea16e26","6622cf45afefd392cfa1f4ed","
        <div id=""grid-container"">
        <!-- Grid items will be dynamically added here -->
    </div>    ","null","","","","","","","","","","","",""
"","864","html-keyboard-response","282","342429","0.0-13.0-2.23","NRmXToZJYS","65eb5fae5d67438e95786d00","6617fad957f7c6a12ea16e26","6622cf45afefd392cfa1f4ed","mask grid","q","","","","","Phylogenetic_Distractor_Threat_target","onmask","800","q","9","Phylogenetic","true","experimental"
"","null","html-keyboard-response","283","343150","0.0-13.0-0.24","NRmXToZJYS","65eb5fae5d67438e95786d00","6617fad957f7c6a12ea16e26","6622cf45afefd392cfa1f4ed","fixation cross","null","","","","","","","","","","","",""
"","null","html-keyboard-response","284","343966","0.0-13.0-1.24","NRmXToZJYS","65eb5fae5d67438e95786d00","6617fad957f7c6a12ea16e26","6622cf45afefd392cfa1f4ed","
        <div id=""grid-container"">
        <!-- Grid items will be dynamically added here -->
    </div>    ","null","","","","","","","","","","","",""
"","1553","html-keyboard-response","285","344720","0.0-13.0-2.24","NRmXToZJYS","65eb5fae5d67438e95786d00","6617fad957f7c6a12ea16e26","6622cf45afefd392cfa1f4ed","mask grid","q","","","","","Phylogenetic_Distractor_Nonthreat_target","onmask","800","p","6","Phylogenetic","false","experimental"
"","null","html-keyboard-response","286","345429","0.0-13.0-0.25","NRmXToZJYS","65eb5fae5d67438e95786d00","6617fad957f7c6a12ea16e26","6622cf45afefd392cfa1f4ed","fixation cross","null","","","","","","","","","","","",""
"","null","html-keyboard-response","287","346241","0.0-13.0-1.25","NRmXToZJYS","65eb5fae5d67438e95786d00","6617fad957f7c6a12ea16e26","6622cf45afefd392cfa1f4ed","
        <div id=""grid-container"">
        <!-- Grid items will be dynamically added here -->
    </div>    ","null","","","","","","","","","","","",""
"","858","html-keyboard-response","288","346299","0.0-13.0-2.25","NRmXToZJYS","65eb5fae5d67438e95786d00","6617fad957f7c6a12ea16e26","6622cf45afefd392cfa1f4ed","mask grid","q","","","","","Phylogenetic_Distractor_Threat_target","onmask","800","q","1","Phylogenetic","true","experimental"
"","null","html-keyboard-response","289","347014","0.0-13.0-0.26","NRmXToZJYS","65eb5fae5d67438e95786d00","6617fad957f7c6a12ea16e26","6622cf45afefd392cfa1f4ed","fixation cross","null","","","","","","","","","","","",""
"","null","html-keyboard-response","290","347821","0.0-13.0-1.26","NRmXToZJYS","65eb5fae5d67438e95786d00","6617fad957f7c6a12ea16e26","6622cf45afefd392cfa1f4ed","
        <div id=""grid-container"">
        <!-- Grid items will be dynamically added here -->
    </div>    ","null","","","","","","","","","","","",""
"","818","html-keyboard-response","291","347839","0.0-13.0-2.26","NRmXToZJYS","65eb5fae5d67438e95786d00","6617fad957f7c6a12ea16e26","6622cf45afefd392cfa1f4ed","mask grid","q","","","","","Phylogenetic_Distractor_Threat_target","onmask","800","q","2","Phylogenetic","true","experimental"
"","null","html-keyboard-response","292","348549","0.0-13.0-0.27","NRmXToZJYS","65eb5fae5d67438e95786d00","6617fad957f7c6a12ea16e26","6622cf45afefd392cfa1f4ed","fixation cross","null","","","","","","","","","","","",""
"","584","html-keyboard-response","293","349134","0.0-13.0-1.27","NRmXToZJYS","65eb5fae5d67438e95786d00","6617fad957f7c6a12ea16e26","6622cf45afefd392cfa1f4ed","image grid","q","","","","","Phylogenetic_Distractor_Threat_target","ongrid","800","q","2","Phylogenetic","true","experimental"
"","null","html-keyboard-response","294","349299","0.0-13.0-2.27","NRmXToZJYS","65eb5fae5d67438e95786d00","6617fad957f7c6a12ea16e26","6622cf45afefd392cfa1f4ed","
    <div id=""grid-container"">
        <!-- Grid items will be dynamically added here -->
    </div>    ","null","","","","","","","","","","","",""
"","null","html-keyboard-response","295","350015","0.0-13.0-0.28","NRmXToZJYS","65eb5fae5d67438e95786d00","6617fad957f7c6a12ea16e26","6622cf45afefd392cfa1f4ed","fixation cross","null","","","","","","","","","","","",""
"","592","html-keyboard-response","296","350608","0.0-13.0-1.28","NRmXToZJYS","65eb5fae5d67438e95786d00","6617fad957f7c6a12ea16e26","6622cf45afefd392cfa1f4ed","image grid","q","","","","","Phylogenetic_Distractor_Threat_target","ongrid","800","q","2","Phylogenetic","true","experimental"
"","null","html-keyboard-response","297","350772","0.0-13.0-2.28","NRmXToZJYS","65eb5fae5d67438e95786d00","6617fad957f7c6a12ea16e26","6622cf45afefd392cfa1f4ed","
    <div id=""grid-container"">
        <!-- Grid items will be dynamically added here -->
    </div>    ","null","","","","","","","","","","","",""
"","null","html-keyboard-response","298","351498","0.0-13.0-0.29","NRmXToZJYS","65eb5fae5d67438e95786d00","6617fad957f7c6a12ea16e26","6622cf45afefd392cfa1f4ed","fixation cross","null","","","","","","","","","","","",""
"","null","html-keyboard-response","299","352306","0.0-13.0-1.29","NRmXToZJYS","65eb5fae5d67438e95786d00","6617fad957f7c6a12ea16e26","6622cf45afefd392cfa1f4ed","
        <div id=""grid-container"">
        <!-- Grid items will be dynamically added here -->
    </div>    ","null","","","","","","","","","","","",""
"","1103","html-keyboard-response","300","352610","0.0-13.0-2.29","NRmXToZJYS","65eb5fae5d67438e95786d00","6617fad957f7c6a12ea16e26","6622cf45afefd392cfa1f4ed","mask grid","p","","","","","Phylogenetic_Distractor_Nonthreat_target","onmask","800","p","2","Phylogenetic","true","experimental"
"","null","html-keyboard-response","301","353319","0.0-13.0-0.30","NRmXToZJYS","65eb5fae5d67438e95786d00","6617fad957f7c6a12ea16e26","6622cf45afefd392cfa1f4ed","fixation cross","null","","","","","","","","","","","",""
"","742","html-keyboard-response","302","354062","0.0-13.0-1.30","NRmXToZJYS","65eb5fae5d67438e95786d00","6617fad957f7c6a12ea16e26","6622cf45afefd392cfa1f4ed","image grid","q","","","","","Phylogenetic_Distractor_Threat_target","ongrid","800","q","1","Phylogenetic","true","experimental"
"","null","html-keyboard-response","303","354222","0.0-13.0-2.30","NRmXToZJYS","65eb5fae5d67438e95786d00","6617fad957f7c6a12ea16e26","6622cf45afefd392cfa1f4ed","
    <div id=""grid-container"">
        <!-- Grid items will be dynamically added here -->
    </div>    ","null","","","","","","","","","","","",""
"","null","html-keyboard-response","304","354939","0.0-13.0-0.31","NRmXToZJYS","65eb5fae5d67438e95786d00","6617fad957f7c6a12ea16e26","6622cf45afefd392cfa1f4ed","fixation cross","null","","","","","","","","","","","",""
"","663","html-keyboard-response","305","355602","0.0-13.0-1.31","NRmXToZJYS","65eb5fae5d67438e95786d00","6617fad957f7c6a12ea16e26","6622cf45afefd392cfa1f4ed","image grid","q","","","","","Phylogenetic_Distractor_Nonthreat_target","ongrid","800","p","9","Phylogenetic","false","experimental"
"","null","html-keyboard-response","306","355756","0.0-13.0-2.31","NRmXToZJYS","65eb5fae5d67438e95786d00","6617fad957f7c6a12ea16e26","6622cf45afefd392cfa1f4ed","
    <div id=""grid-container"">
        <!-- Grid items will be dynamically added here -->
    </div>    ","null","","","","","","","","","","","",""
"","null","html-keyboard-response","307","356471","0.0-13.0-0.32","NRmXToZJYS","65eb5fae5d67438e95786d00","6617fad957f7c6a12ea16e26","6622cf45afefd392cfa1f4ed","fixation cross","null","","","","","","","","","","","",""
"","739","html-keyboard-response","308","357211","0.0-13.0-1.32","NRmXToZJYS","65eb5fae5d67438e95786d00","6617fad957f7c6a12ea16e26","6622cf45afefd392cfa1f4ed","image grid","p","","","","","Phylogenetic_Distractor_Nonthreat_target","ongrid","800","p","5","Phylogenetic","true","experimental"
"","null","html-keyboard-response","309","357377","0.0-13.0-2.32","NRmXToZJYS","65eb5fae5d67438e95786d00","6617fad957f7c6a12ea16e26","6622cf45afefd392cfa1f4ed","
    <div id=""grid-container"">
        <!-- Grid items will be dynamically added here -->
    </div>    ","null","","","","","","","","","","","",""
"","null","html-keyboard-response","310","358092","0.0-13.0-0.33","NRmXToZJYS","65eb5fae5d67438e95786d00","6617fad957f7c6a12ea16e26","6622cf45afefd392cfa1f4ed","fixation cross","null","","","","","","","","","","","",""
"","null","html-keyboard-response","311","358907","0.0-13.0-1.33","NRmXToZJYS","65eb5fae5d67438e95786d00","6617fad957f7c6a12ea16e26","6622cf45afefd392cfa1f4ed","
        <div id=""grid-container"">
        <!-- Grid items will be dynamically added here -->
    </div>    ","null","","","","","","","","","","","",""
"","972","html-keyboard-response","312","359079","0.0-13.0-2.33","NRmXToZJYS","65eb5fae5d67438e95786d00","6617fad957f7c6a12ea16e26","6622cf45afefd392cfa1f4ed","mask grid","q","","","","","Phylogenetic_Distractor_Nonthreat_target","onmask","800","p","1","Phylogenetic","false","experimental"
"","null","html-keyboard-response","313","359791","0.0-13.0-0.34","NRmXToZJYS","65eb5fae5d67438e95786d00","6617fad957f7c6a12ea16e26","6622cf45afefd392cfa1f4ed","fixation cross","null","","","","","","","","","","","",""
"","null","html-keyboard-response","314","360593","0.0-13.0-1.34","NRmXToZJYS","65eb5fae5d67438e95786d00","6617fad957f7c6a12ea16e26","6622cf45afefd392cfa1f4ed","
        <div id=""grid-container"">
        <!-- Grid items will be dynamically added here -->
    </div>    ","null","","","","","","","","","","","",""
"","860","html-keyboard-response","315","360654","0.0-13.0-2.34","NRmXToZJYS","65eb5fae5d67438e95786d00","6617fad957f7c6a12ea16e26","6622cf45afefd392cfa1f4ed","mask grid","p","","","","","Phylogenetic_Distractor_Nonthreat_target","onmask","800","p","6","Phylogenetic","true","experimental"
"","null","html-keyboard-response","316","361361","0.0-13.0-0.35","NRmXToZJYS","65eb5fae5d67438e95786d00","6617fad957f7c6a12ea16e26","6622cf45afefd392cfa1f4ed","fixation cross","null","","","","","","","","","","","",""
"","699","html-keyboard-response","317","362060","0.0-13.0-1.35","NRmXToZJYS","65eb5fae5d67438e95786d00","6617fad957f7c6a12ea16e26","6622cf45afefd392cfa1f4ed","image grid","p","","","","","Phylogenetic_Distractor_Nonthreat_target","ongrid","800","p","6","Phylogenetic","true","experimental"
"","null","html-keyboard-response","318","362228","0.0-13.0-2.35","NRmXToZJYS","65eb5fae5d67438e95786d00","6617fad957f7c6a12ea16e26","6622cf45afefd392cfa1f4ed","
    <div id=""grid-container"">
        <!-- Grid items will be dynamically added here -->
    </div>    ","null","","","","","","","","","","","",""
"","null","html-keyboard-response","319","362950","0.0-13.0-0.36","NRmXToZJYS","65eb5fae5d67438e95786d00","6617fad957f7c6a12ea16e26","6622cf45afefd392cfa1f4ed","fixation cross","null","","","","","","","","","","","",""
"","786","html-keyboard-response","320","363736","0.0-13.0-1.36","NRmXToZJYS","65eb5fae5d67438e95786d00","6617fad957f7c6a12ea16e26","6622cf45afefd392cfa1f4ed","image grid","q","","","","","Phylogenetic_Distractor_Threat_target","ongrid","800","q","7","Phylogenetic","true","experimental"
"","null","html-keyboard-response","321","363896","0.0-13.0-2.36","NRmXToZJYS","65eb5fae5d67438e95786d00","6617fad957f7c6a12ea16e26","6622cf45afefd392cfa1f4ed","
    <div id=""grid-container"">
        <!-- Grid items will be dynamically added here -->
    </div>    ","null","","","","","","","","","","","",""
"","null","html-keyboard-response","322","364612","0.0-13.0-0.37","NRmXToZJYS","65eb5fae5d67438e95786d00","6617fad957f7c6a12ea16e26","6622cf45afefd392cfa1f4ed","fixation cross","null","","","","","","","","","","","",""
"","609","html-keyboard-response","323","365221","0.0-13.0-1.37","NRmXToZJYS","65eb5fae5d67438e95786d00","6617fad957f7c6a12ea16e26","6622cf45afefd392cfa1f4ed","image grid","q","","","","","Phylogenetic_Distractor_Threat_target","ongrid","800","q","7","Phylogenetic","true","experimental"
"","null","html-keyboard-response","324","365381","0.0-13.0-2.37","NRmXToZJYS","65eb5fae5d67438e95786d00","6617fad957f7c6a12ea16e26","6622cf45afefd392cfa1f4ed","
    <div id=""grid-container"">
        <!-- Grid items will be dynamically added here -->
    </div>    ","null","","","","","","","","","","","",""
"","null","html-keyboard-response","325","366098","0.0-13.0-0.38","NRmXToZJYS","65eb5fae5d67438e95786d00","6617fad957f7c6a12ea16e26","6622cf45afefd392cfa1f4ed","fixation cross","null","","","","","","","","","","","",""
"","null","html-keyboard-response","326","366903","0.0-13.0-1.38","NRmXToZJYS","65eb5fae5d67438e95786d00","6617fad957f7c6a12ea16e26","6622cf45afefd392cfa1f4ed","
        <div id=""grid-container"">
        <!-- Grid items will be dynamically added here -->
    </div>    ","null","","","","","","","","","","","",""
"","1465","html-keyboard-response","327","367568","0.0-13.0-2.38","NRmXToZJYS","65eb5fae5d67438e95786d00","6617fad957f7c6a12ea16e26","6622cf45afefd392cfa1f4ed","mask grid","p","","","","","Phylogenetic_Distractor_Nonthreat_target","onmask","800","p","7","Phylogenetic","true","experimental"
"","null","html-keyboard-response","328","368284","0.0-13.0-0.39","NRmXToZJYS","65eb5fae5d67438e95786d00","6617fad957f7c6a12ea16e26","6622cf45afefd392cfa1f4ed","fixation cross","null","","","","","","","","","","","",""
"","615","html-keyboard-response","329","368900","0.0-13.0-1.39","NRmXToZJYS","65eb5fae5d67438e95786d00","6617fad957f7c6a12ea16e26","6622cf45afefd392cfa1f4ed","image grid","q","","","","","Phylogenetic_Distractor_Threat_target","ongrid","800","q","2","Phylogenetic","true","experimental"
"","null","html-keyboard-response","330","369067","0.0-13.0-2.39","NRmXToZJYS","65eb5fae5d67438e95786d00","6617fad957f7c6a12ea16e26","6622cf45afefd392cfa1f4ed","
    <div id=""grid-container"">
        <!-- Grid items will be dynamically added here -->
    </div>    ","null","","","","","","","","","","","",""
"","22890","html-keyboard-response","331","392172","0.0-14.0","NRmXToZJYS","65eb5fae5d67438e95786d00","6617fad957f7c6a12ea16e26","6622cf45afefd392cfa1f4ed","break screen"," ","","","","","","","","","","","",""
"","null","html-keyboard-response","332","394686","0.0-15.0-0.0","NRmXToZJYS","65eb5fae5d67438e95786d00","6617fad957f7c6a12ea16e26","6622cf45afefd392cfa1f4ed","fixation cross","null","","","","","","","","","","","",""
"","null","html-keyboard-response","333","395493","0.0-15.0-1.0","NRmXToZJYS","65eb5fae5d67438e95786d00","6617fad957f7c6a12ea16e26","6622cf45afefd392cfa1f4ed","
        <div id=""grid-container"">
        <!-- Grid items will be dynamically added here -->
    </div>    ","null","","","","","","","","","","","",""
"","820","html-keyboard-response","334","395514","0.0-15.0-2.0","NRmXToZJYS","65eb5fae5d67438e95786d00","6617fad957f7c6a12ea16e26","6622cf45afefd392cfa1f4ed","mask grid","q","","","","","Phylogenetic_Distractor_Threat_target","onmask","800","q","5","Phylogenetic","true","experimental"
"","null","html-keyboard-response","335","396223","0.0-15.0-0.1","NRmXToZJYS","65eb5fae5d67438e95786d00","6617fad957f7c6a12ea16e26","6622cf45afefd392cfa1f4ed","fixation cross","null","","","","","","","","","","","",""
"","746","html-keyboard-response","336","396969","0.0-15.0-1.1","NRmXToZJYS","65eb5fae5d67438e95786d00","6617fad957f7c6a12ea16e26","6622cf45afefd392cfa1f4ed","image grid","q","","","","","Phylogenetic_Distractor_Threat_target","ongrid","800","q","4","Phylogenetic","true","experimental"
"","null","html-keyboard-response","337","397123","0.0-15.0-2.1","NRmXToZJYS","65eb5fae5d67438e95786d00","6617fad957f7c6a12ea16e26","6622cf45afefd392cfa1f4ed","
    <div id=""grid-container"">
        <!-- Grid items will be dynamically added here -->
    </div>    ","null","","","","","","","","","","","",""
"","null","html-keyboard-response","338","397838","0.0-15.0-0.2","NRmXToZJYS","65eb5fae5d67438e95786d00","6617fad957f7c6a12ea16e26","6622cf45afefd392cfa1f4ed","fixation cross","null","","","","","","","","","","","",""
"","694","html-keyboard-response","339","398533","0.0-15.0-1.2","NRmXToZJYS","65eb5fae5d67438e95786d00","6617fad957f7c6a12ea16e26","6622cf45afefd392cfa1f4ed","image grid","p","","","","","Phylogenetic_Distractor_notarget","ongrid","800"," ","5","Phylogenetic","false","experimental"
"","null","html-keyboard-response","340","398691","0.0-15.0-2.2","NRmXToZJYS","65eb5fae5d67438e95786d00","6617fad957f7c6a12ea16e26","6622cf45afefd392cfa1f4ed","
    <div id=""grid-container"">
        <!-- Grid items will be dynamically added here -->
    </div>    ","null","","","","","","","","","","","",""
"","null","html-keyboard-response","341","399409","0.0-15.0-0.3","NRmXToZJYS","65eb5fae5d67438e95786d00","6617fad957f7c6a12ea16e26","6622cf45afefd392cfa1f4ed","fixation cross","null","","","","","","","","","","","",""
"","462","html-keyboard-response","342","399872","0.0-15.0-1.3","NRmXToZJYS","65eb5fae5d67438e95786d00","6617fad957f7c6a12ea16e26","6622cf45afefd392cfa1f4ed","image grid","q","","","","","Phylogenetic_Distractor_Threat_target","ongrid","800","q","9","Phylogenetic","true","experimental"
"","null","html-keyboard-response","343","400026","0.0-15.0-2.3","NRmXToZJYS","65eb5fae5d67438e95786d00","6617fad957f7c6a12ea16e26","6622cf45afefd392cfa1f4ed","
    <div id=""grid-container"">
        <!-- Grid items will be dynamically added here -->
    </div>    ","null","","","","","","","","","","","",""
"","null","html-keyboard-response","344","400739","0.0-15.0-0.4","NRmXToZJYS","65eb5fae5d67438e95786d00","6617fad957f7c6a12ea16e26","6622cf45afefd392cfa1f4ed","fixation cross","null","","","","","","","","","","","",""
"","573","html-keyboard-response","345","401312","0.0-15.0-1.4","NRmXToZJYS","65eb5fae5d67438e95786d00","6617fad957f7c6a12ea16e26","6622cf45afefd392cfa1f4ed","image grid","q","","","","","Phylogenetic_Distractor_Threat_target","ongrid","800","q","4","Phylogenetic","true","experimental"
"","null","html-keyboard-response","346","401476","0.0-15.0-2.4","NRmXToZJYS","65eb5fae5d67438e95786d00","6617fad957f7c6a12ea16e26","6622cf45afefd392cfa1f4ed","
    <div id=""grid-container"">
        <!-- Grid items will be dynamically added here -->
    </div>    ","null","","","","","","","","","","","",""
"","null","html-keyboard-response","347","402194","0.0-15.0-0.5","NRmXToZJYS","65eb5fae5d67438e95786d00","6617fad957f7c6a12ea16e26","6622cf45afefd392cfa1f4ed","fixation cross","null","","","","","","","","","","","",""
"","693","html-keyboard-response","348","402887","0.0-15.0-1.5","NRmXToZJYS","65eb5fae5d67438e95786d00","6617fad957f7c6a12ea16e26","6622cf45afefd392cfa1f4ed","image grid","p","","","","","Phylogenetic_Distractor_Threat_target","ongrid","800","q","1","Phylogenetic","false","experimental"
"","100","html-keyboard-response","349","403044","0.0-15.0-2.5","NRmXToZJYS","65eb5fae5d67438e95786d00","6617fad957f7c6a12ea16e26","6622cf45afefd392cfa1f4ed","
    <div id=""grid-container"">
        <!-- Grid items will be dynamically added here -->
    </div>    ","q","","","","","","","","","","","",""
"","null","html-keyboard-response","350","403760","0.0-15.0-0.6","NRmXToZJYS","65eb5fae5d67438e95786d00","6617fad957f7c6a12ea16e26","6622cf45afefd392cfa1f4ed","fixation cross","null","","","","","","","","","","","",""
"","566","html-keyboard-response","351","404327","0.0-15.0-1.6","NRmXToZJYS","65eb5fae5d67438e95786d00","6617fad957f7c6a12ea16e26","6622cf45afefd392cfa1f4ed","image grid","q","","","","","Phylogenetic_Distractor_Threat_target","ongrid","800","q","7","Phylogenetic","true","experimental"
"","null","html-keyboard-response","352","404479","0.0-15.0-2.6","NRmXToZJYS","65eb5fae5d67438e95786d00","6617fad957f7c6a12ea16e26","6622cf45afefd392cfa1f4ed","
    <div id=""grid-container"">
        <!-- Grid items will be dynamically added here -->
    </div>    ","null","","","","","","","","","","","",""
"","null","html-keyboard-response","353","405195","0.0-15.0-0.7","NRmXToZJYS","65eb5fae5d67438e95786d00","6617fad957f7c6a12ea16e26","6622cf45afefd392cfa1f4ed","fixation cross","null","","","","","","","","","","","",""
"","796","html-keyboard-response","354","405992","0.0-15.0-1.7","NRmXToZJYS","65eb5fae5d67438e95786d00","6617fad957f7c6a12ea16e26","6622cf45afefd392cfa1f4ed","image grid","p","","","","","Phylogenetic_Distractor_Nonthreat_target","ongrid","800","p","2","Phylogenetic","true","experimental"
"","null","html-keyboard-response","355","406145","0.0-15.0-2.7","NRmXToZJYS","65eb5fae5d67438e95786d00","6617fad957f7c6a12ea16e26","6622cf45afefd392cfa1f4ed","
    <div id=""grid-container"">
        <!-- Grid items will be dynamically added here -->
    </div>    ","null","","","","","","","","","","","",""
"","null","html-keyboard-response","356","406865","0.0-15.0-0.8","NRmXToZJYS","65eb5fae5d67438e95786d00","6617fad957f7c6a12ea16e26","6622cf45afefd392cfa1f4ed","fixation cross","null","","","","","","","","","","","",""
"","769","html-keyboard-response","357","407634","0.0-15.0-1.8","NRmXToZJYS","65eb5fae5d67438e95786d00","6617fad957f7c6a12ea16e26","6622cf45afefd392cfa1f4ed","image grid","p","","","","","Phylogenetic_Distractor_Nonthreat_target","ongrid","800","p","1","Phylogenetic","true","experimental"
"","null","html-keyboard-response","358","407798","0.0-15.0-2.8","NRmXToZJYS","65eb5fae5d67438e95786d00","6617fad957f7c6a12ea16e26","6622cf45afefd392cfa1f4ed","
    <div id=""grid-container"">
        <!-- Grid items will be dynamically added here -->
    </div>    ","null","","","","","","","","","","","",""
"","null","html-keyboard-response","359","408514","0.0-15.0-0.9","NRmXToZJYS","65eb5fae5d67438e95786d00","6617fad957f7c6a12ea16e26","6622cf45afefd392cfa1f4ed","fixation cross","null","","","","","","","","","","","",""
"","493","html-keyboard-response","360","409007","0.0-15.0-1.9","NRmXToZJYS","65eb5fae5d67438e95786d00","6617fad957f7c6a12ea16e26","6622cf45afefd392cfa1f4ed","image grid","q","","","","","Phylogenetic_Distractor_Nonthreat_target","ongrid","800","p","5","Phylogenetic","false","experimental"
"","null","html-keyboard-response","361","409168","0.0-15.0-2.9","NRmXToZJYS","65eb5fae5d67438e95786d00","6617fad957f7c6a12ea16e26","6622cf45afefd392cfa1f4ed","
    <div id=""grid-container"">
        <!-- Grid items will be dynamically added here -->
    </div>    ","null","","","","","","","","","","","",""
"","null","html-keyboard-response","362","409884","0.0-15.0-0.10","NRmXToZJYS","65eb5fae5d67438e95786d00","6617fad957f7c6a12ea16e26","6622cf45afefd392cfa1f4ed","fixation cross","null","","","","","","","","","","","",""
"","null","html-keyboard-response","363","410687","0.0-15.0-1.10","NRmXToZJYS","65eb5fae5d67438e95786d00","6617fad957f7c6a12ea16e26","6622cf45afefd392cfa1f4ed","
        <div id=""grid-container"">
        <!-- Grid items will be dynamically added here -->
    </div>    ","null","","","","","","","","","","","",""
"","874","html-keyboard-response","364","410761","0.0-15.0-2.10","NRmXToZJYS","65eb5fae5d67438e95786d00","6617fad957f7c6a12ea16e26","6622cf45afefd392cfa1f4ed","mask grid","p","","","","","Phylogenetic_Distractor_Nonthreat_target","onmask","800","p","5","Phylogenetic","true","experimental"
"","null","html-keyboard-response","365","411481","0.0-15.0-0.11","NRmXToZJYS","65eb5fae5d67438e95786d00","6617fad957f7c6a12ea16e26","6622cf45afefd392cfa1f4ed","fixation cross","null","","","","","","","","","","","",""
"","474","html-keyboard-response","366","411955","0.0-15.0-1.11","NRmXToZJYS","65eb5fae5d67438e95786d00","6617fad957f7c6a12ea16e26","6622cf45afefd392cfa1f4ed","image grid","p","","","","","Phylogenetic_Distractor_Nonthreat_target","ongrid","800","p","1","Phylogenetic","true","experimental"
"","null","html-keyboard-response","367","412117","0.0-15.0-2.11","NRmXToZJYS","65eb5fae5d67438e95786d00","6617fad957f7c6a12ea16e26","6622cf45afefd392cfa1f4ed","
    <div id=""grid-container"">
        <!-- Grid items will be dynamically added here -->
    </div>    ","null","","","","","","","","","","","",""
"","null","html-keyboard-response","368","412848","0.0-15.0-0.12","NRmXToZJYS","65eb5fae5d67438e95786d00","6617fad957f7c6a12ea16e26","6622cf45afefd392cfa1f4ed","fixation cross","null","","","","","","","","","","","",""
"","512","html-keyboard-response","369","413361","0.0-15.0-1.12","NRmXToZJYS","65eb5fae5d67438e95786d00","6617fad957f7c6a12ea16e26","6622cf45afefd392cfa1f4ed","image grid","p","","","","","Phylogenetic_Distractor_Nonthreat_target","ongrid","800","p","6","Phylogenetic","true","experimental"
