"success","rt","trial_type","trial_index","time_elapsed","internal_node_id","unique_identifier","subject_id","study_id","session_id","stimulus","response","timeout","failed_images","failed_audio","failed_video","task","respondedwhen","time_manipulation","correctresponse","targetimagelocation","blocktype","correct","roundtype"
"true","1408","fullscreen","0","2451","0.0-0.0","DRgnFAZdEf","5d29187bd96c80001769ec41","6617fad957f7c6a12ea16e26","6622cf1d4d5abfe7dafd4380","","","","","","","","","","","","","",""
"","11131","html-keyboard-response","1","13584","0.0-1.0","DRgnFAZdEf","5d29187bd96c80001769ec41","6617fad957f7c6a12ea16e26","6622cf1d4d5abfe7dafd4380","instruction screen 0"," ","","","","","","","","","","","",""
"true","","preload","2","14605","0.0-2.0","DRgnFAZdEf","5d29187bd96c80001769ec41","6617fad957f7c6a12ea16e26","6622cf1d4d5abfe7dafd4380","","","false","[]","[]","[]","","","","","","","",""
"","8123","html-keyboard-response","3","22728","0.0-3.0","DRgnFAZdEf","5d29187bd96c80001769ec41","6617fad957f7c6a12ea16e26","6622cf1d4d5abfe7dafd4380","instruction screen 1"," ","","","","","","","","","","","",""
"","7334","html-keyboard-response","4","30063","0.0-4.0","DRgnFAZdEf","5d29187bd96c80001769ec41","6617fad957f7c6a12ea16e26","6622cf1d4d5abfe7dafd4380","instruction screen 2","q","","","","","","","","","","","",""
"","2471","html-keyboard-response","5","32536","0.0-5.0","DRgnFAZdEf","5d29187bd96c80001769ec41","6617fad957f7c6a12ea16e26","6622cf1d4d5abfe7dafd4380","instruction screen 3","p","","","","","","","","","","","",""
"","5175","html-keyboard-response","6","37711","0.0-6.0","DRgnFAZdEf","5d29187bd96c80001769ec41","6617fad957f7c6a12ea16e26","6622cf1d4d5abfe7dafd4380","instruction screen 4"," ","","","","","","","","","","","",""
"","8240","html-keyboard-response","7","45952","0.0-7.0","DRgnFAZdEf","5d29187bd96c80001769ec41","6617fad957f7c6a12ea16e26","6622cf1d4d5abfe7dafd4380","instruction screen 5"," ","","","","","","","","","","","",""
"","null","html-keyboard-response","8","46454","0.0-8.0","DRgnFAZdEf","5d29187bd96c80001769ec41","6617fad957f7c6a12ea16e26","6622cf1d4d5abfe7dafd4380","fixation cross","null","","","","","","","","","","","",""
"","null","html-keyboard-response","9","46969","0.0-9.0-0.0","DRgnFAZdEf","5d29187bd96c80001769ec41","6617fad957f7c6a12ea16e26","6622cf1d4d5abfe7dafd4380","fixation cross","null","","","","","","","","","","","",""
"","null","html-keyboard-response","10","50077","0.0-9.0-1.0","DRgnFAZdEf","5d29187bd96c80001769ec41","6617fad957f7c6a12ea16e26","6622cf1d4d5abfe7dafd4380","
        <div id=""grid-container"">
        <!-- Grid items will be dynamically added here -->
    </div>    ","null","","","","","","","","","","","",""
"","3218","html-keyboard-response","11","50295","0.0-9.0-2.0","DRgnFAZdEf","5d29187bd96c80001769ec41","6617fad957f7c6a12ea16e26","6622cf1d4d5abfe7dafd4380","mask grid","q","","","","","Phylogenetic_Distractor_Threat_target","onmask","3000","q","1","Phylogenetic","true","practice"
"","null","html-keyboard-response","12","51510","0.0-9.0-3.0","DRgnFAZdEf","5d29187bd96c80001769ec41","6617fad957f7c6a12ea16e26","6622cf1d4d5abfe7dafd4380","feedback screen","null","","","","","","","","","","","",""
"","null","html-keyboard-response","13","52024","0.0-9.0-0.1","DRgnFAZdEf","5d29187bd96c80001769ec41","6617fad957f7c6a12ea16e26","6622cf1d4d5abfe7dafd4380","fixation cross","null","","","","","","","","","","","",""
"","2144","html-keyboard-response","14","54167","0.0-9.0-1.1","DRgnFAZdEf","5d29187bd96c80001769ec41","6617fad957f7c6a12ea16e26","6622cf1d4d5abfe7dafd4380","image grid"," ","","","","","Phylogenetic_Distractor_notarget","ongrid","2900"," ","3","Phylogenetic","true","practice"
"","null","html-keyboard-response","15","54329","0.0-9.0-2.1","DRgnFAZdEf","5d29187bd96c80001769ec41","6617fad957f7c6a12ea16e26","6622cf1d4d5abfe7dafd4380","
    <div id=""grid-container"">
        <!-- Grid items will be dynamically added here -->
    </div>    ","null","","","","","","","","","","","",""
"","null","html-keyboard-response","16","55536","0.0-9.0-3.1","DRgnFAZdEf","5d29187bd96c80001769ec41","6617fad957f7c6a12ea16e26","6622cf1d4d5abfe7dafd4380","feedback screen","null","","","","","","","","","","","",""
"","null","html-keyboard-response","17","56048","0.0-9.0-0.2","DRgnFAZdEf","5d29187bd96c80001769ec41","6617fad957f7c6a12ea16e26","6622cf1d4d5abfe7dafd4380","fixation cross","null","","","","","","","","","","","",""
"","1286","html-keyboard-response","18","57335","0.0-9.0-1.2","DRgnFAZdEf","5d29187bd96c80001769ec41","6617fad957f7c6a12ea16e26","6622cf1d4d5abfe7dafd4380","image grid","p","","","","","Phylogenetic_Distractor_Nonthreat_target","ongrid","2800","p","6","Phylogenetic","true","practice"
"","null","html-keyboard-response","19","57495","0.0-9.0-2.2","DRgnFAZdEf","5d29187bd96c80001769ec41","6617fad957f7c6a12ea16e26","6622cf1d4d5abfe7dafd4380","
    <div id=""grid-container"">
        <!-- Grid items will be dynamically added here -->
    </div>    ","null","","","","","","","","","","","",""
"","null","html-keyboard-response","20","58707","0.0-9.0-3.2","DRgnFAZdEf","5d29187bd96c80001769ec41","6617fad957f7c6a12ea16e26","6622cf1d4d5abfe7dafd4380","feedback screen","null","","","","","","","","","","","",""
"","null","html-keyboard-response","21","59219","0.0-9.0-0.3","DRgnFAZdEf","5d29187bd96c80001769ec41","6617fad957f7c6a12ea16e26","6622cf1d4d5abfe7dafd4380","fixation cross","null","","","","","","","","","","","",""
"","1533","html-keyboard-response","22","60752","0.0-9.0-1.3","DRgnFAZdEf","5d29187bd96c80001769ec41","6617fad957f7c6a12ea16e26","6622cf1d4d5abfe7dafd4380","image grid"," ","","","","","Phylogenetic_Distractor_Nonthreat_target","ongrid","2700","p","6","Phylogenetic","false","practice"
"","null","html-keyboard-response","23","60918","0.0-9.0-2.3","DRgnFAZdEf","5d29187bd96c80001769ec41","6617fad957f7c6a12ea16e26","6622cf1d4d5abfe7dafd4380","
    <div id=""grid-container"">
        <!-- Grid items will be dynamically added here -->
    </div>    ","null","","","","","","","","","","","",""
"","null","html-keyboard-response","24","62126","0.0-9.0-3.3","DRgnFAZdEf","5d29187bd96c80001769ec41","6617fad957f7c6a12ea16e26","6622cf1d4d5abfe7dafd4380","feedback screen","null","","","","","","","","","","","",""
"","null","html-keyboard-response","25","62628","0.0-9.0-0.4","DRgnFAZdEf","5d29187bd96c80001769ec41","6617fad957f7c6a12ea16e26","6622cf1d4d5abfe7dafd4380","fixation cross","null","","","","","","","","","","","",""
"","1244","html-keyboard-response","26","63871","0.0-9.0-1.4","DRgnFAZdEf","5d29187bd96c80001769ec41","6617fad957f7c6a12ea16e26","6622cf1d4d5abfe7dafd4380","image grid","p","","","","","Ontogenetic_Distractor_Nonthreat_target","ongrid","2600","p","9","Phylogenetic","true","practice"
"","null","html-keyboard-response","27","64027","0.0-9.0-2.4","DRgnFAZdEf","5d29187bd96c80001769ec41","6617fad957f7c6a12ea16e26","6622cf1d4d5abfe7dafd4380","
    <div id=""grid-container"">
        <!-- Grid items will be dynamically added here -->
    </div>    ","null","","","","","","","","","","","",""
"","null","html-keyboard-response","28","65244","0.0-9.0-3.4","DRgnFAZdEf","5d29187bd96c80001769ec41","6617fad957f7c6a12ea16e26","6622cf1d4d5abfe7dafd4380","feedback screen","null","","","","","","","","","","","",""
"","null","html-keyboard-response","29","65759","0.0-9.0-0.5","DRgnFAZdEf","5d29187bd96c80001769ec41","6617fad957f7c6a12ea16e26","6622cf1d4d5abfe7dafd4380","fixation cross","null","","","","","","","","","","","",""
"","824","html-keyboard-response","30","66583","0.0-9.0-1.5","DRgnFAZdEf","5d29187bd96c80001769ec41","6617fad957f7c6a12ea16e26","6622cf1d4d5abfe7dafd4380","image grid","p","","","","","Ontogenetic_Distractor_Nonthreat_target","ongrid","2500","p","1","Phylogenetic","true","practice"
"","null","html-keyboard-response","31","66737","0.0-9.0-2.5","DRgnFAZdEf","5d29187bd96c80001769ec41","6617fad957f7c6a12ea16e26","6622cf1d4d5abfe7dafd4380","
    <div id=""grid-container"">
        <!-- Grid items will be dynamically added here -->
    </div>    ","null","","","","","","","","","","","",""
"","null","html-keyboard-response","32","67949","0.0-9.0-3.5","DRgnFAZdEf","5d29187bd96c80001769ec41","6617fad957f7c6a12ea16e26","6622cf1d4d5abfe7dafd4380","feedback screen","null","","","","","","","","","","","",""
"","null","html-keyboard-response","33","68451","0.0-9.0-0.6","DRgnFAZdEf","5d29187bd96c80001769ec41","6617fad957f7c6a12ea16e26","6622cf1d4d5abfe7dafd4380","fixation cross","null","","","","","","","","","","","",""
"","861","html-keyboard-response","34","69311","0.0-9.0-1.6","DRgnFAZdEf","5d29187bd96c80001769ec41","6617fad957f7c6a12ea16e26","6622cf1d4d5abfe7dafd4380","image grid","q","","","","","Phylogenetic_Distractor_Threat_target","ongrid","2400","q","1","Phylogenetic","true","practice"
"","null","html-keyboard-response","35","69467","0.0-9.0-2.6","DRgnFAZdEf","5d29187bd96c80001769ec41","6617fad957f7c6a12ea16e26","6622cf1d4d5abfe7dafd4380","
    <div id=""grid-container"">
        <!-- Grid items will be dynamically added here -->
    </div>    ","null","","","","","","","","","","","",""
"","null","html-keyboard-response","36","70756","0.0-9.0-3.6","DRgnFAZdEf","5d29187bd96c80001769ec41","6617fad957f7c6a12ea16e26","6622cf1d4d5abfe7dafd4380","feedback screen","null","","","","","","","","","","","",""
"","null","html-keyboard-response","37","71316","0.0-9.0-0.7","DRgnFAZdEf","5d29187bd96c80001769ec41","6617fad957f7c6a12ea16e26","6622cf1d4d5abfe7dafd4380","fixation cross","null","","","","","","","","","","","",""
"","1363","html-keyboard-response","38","72679","0.0-9.0-1.7","DRgnFAZdEf","5d29187bd96c80001769ec41","6617fad957f7c6a12ea16e26","6622cf1d4d5abfe7dafd4380","image grid","p","","","","","Phylogenetic_Distractor_Nonthreat_target","ongrid","2300","p","6","Phylogenetic","true","practice"
"","null","html-keyboard-response","39","72835","0.0-9.0-2.7","DRgnFAZdEf","5d29187bd96c80001769ec41","6617fad957f7c6a12ea16e26","6622cf1d4d5abfe7dafd4380","
    <div id=""grid-container"">
        <!-- Grid items will be dynamically added here -->
    </div>    ","null","","","","","","","","","","","",""
"","null","html-keyboard-response","40","74047","0.0-9.0-3.7","DRgnFAZdEf","5d29187bd96c80001769ec41","6617fad957f7c6a12ea16e26","6622cf1d4d5abfe7dafd4380","feedback screen","null","","","","","","","","","","","",""
"","null","html-keyboard-response","41","74606","0.0-9.0-0.8","DRgnFAZdEf","5d29187bd96c80001769ec41","6617fad957f7c6a12ea16e26","6622cf1d4d5abfe7dafd4380","fixation cross","null","","","","","","","","","","","",""
"","754","html-keyboard-response","42","75359","0.0-9.0-1.8","DRgnFAZdEf","5d29187bd96c80001769ec41","6617fad957f7c6a12ea16e26","6622cf1d4d5abfe7dafd4380","image grid","p","","","","","Ontogenetic_Distractor_Nonthreat_target","ongrid","2200","p","5","Phylogenetic","true","practice"
"","null","html-keyboard-response","43","75514","0.0-9.0-2.8","DRgnFAZdEf","5d29187bd96c80001769ec41","6617fad957f7c6a12ea16e26","6622cf1d4d5abfe7dafd4380","
    <div id=""grid-container"">
        <!-- Grid items will be dynamically added here -->
    </div>    ","null","","","","","","","","","","","",""
"","null","html-keyboard-response","44","76726","0.0-9.0-3.8","DRgnFAZdEf","5d29187bd96c80001769ec41","6617fad957f7c6a12ea16e26","6622cf1d4d5abfe7dafd4380","feedback screen","null","","","","","","","","","","","",""
"","null","html-keyboard-response","45","77238","0.0-9.0-0.9","DRgnFAZdEf","5d29187bd96c80001769ec41","6617fad957f7c6a12ea16e26","6622cf1d4d5abfe7dafd4380","fixation cross","null","","","","","","","","","","","",""
"","961","html-keyboard-response","46","78199","0.0-9.0-1.9","DRgnFAZdEf","5d29187bd96c80001769ec41","6617fad957f7c6a12ea16e26","6622cf1d4d5abfe7dafd4380","image grid","q","","","","","Phylogenetic_Distractor_Threat_target","ongrid","2100","q","1","Phylogenetic","true","practice"
"","null","html-keyboard-response","47","78356","0.0-9.0-2.9","DRgnFAZdEf","5d29187bd96c80001769ec41","6617fad957f7c6a12ea16e26","6622cf1d4d5abfe7dafd4380","
    <div id=""grid-container"">
        <!-- Grid items will be dynamically added here -->
    </div>    ","null","","","","","","","","","","","",""
"","null","html-keyboard-response","48","79577","0.0-9.0-3.9","DRgnFAZdEf","5d29187bd96c80001769ec41","6617fad957f7c6a12ea16e26","6622cf1d4d5abfe7dafd4380","feedback screen","null","","","","","","","","","","","",""
"","null","html-keyboard-response","49","80089","0.0-9.0-0.10","DRgnFAZdEf","5d29187bd96c80001769ec41","6617fad957f7c6a12ea16e26","6622cf1d4d5abfe7dafd4380","fixation cross","null","","","","","","","","","","","",""
"","1973","html-keyboard-response","50","82063","0.0-9.0-1.10","DRgnFAZdEf","5d29187bd96c80001769ec41","6617fad957f7c6a12ea16e26","6622cf1d4d5abfe7dafd4380","image grid"," ","","","","","Phylogenetic_Distractor_notarget","ongrid","2000"," ","7","Phylogenetic","true","practice"
"","null","html-keyboard-response","51","82229","0.0-9.0-2.10","DRgnFAZdEf","5d29187bd96c80001769ec41","6617fad957f7c6a12ea16e26","6622cf1d4d5abfe7dafd4380","
    <div id=""grid-container"">
        <!-- Grid items will be dynamically added here -->
    </div>    ","null","","","","","","","","","","","",""
"","null","html-keyboard-response","52","83443","0.0-9.0-3.10","DRgnFAZdEf","5d29187bd96c80001769ec41","6617fad957f7c6a12ea16e26","6622cf1d4d5abfe7dafd4380","feedback screen","null","","","","","","","","","","","",""
"","null","html-keyboard-response","53","83955","0.0-9.0-0.11","DRgnFAZdEf","5d29187bd96c80001769ec41","6617fad957f7c6a12ea16e26","6622cf1d4d5abfe7dafd4380","fixation cross","null","","","","","","","","","","","",""
"","1742","html-keyboard-response","54","85695","0.0-9.0-1.11","DRgnFAZdEf","5d29187bd96c80001769ec41","6617fad957f7c6a12ea16e26","6622cf1d4d5abfe7dafd4380","image grid","q","","","","","Ontogenetic_Distractor_Threat_target","ongrid","1900","q","3","Phylogenetic","true","practice"
"","null","html-keyboard-response","55","85851","0.0-9.0-2.11","DRgnFAZdEf","5d29187bd96c80001769ec41","6617fad957f7c6a12ea16e26","6622cf1d4d5abfe7dafd4380","
    <div id=""grid-container"">
        <!-- Grid items will be dynamically added here -->
    </div>    ","null","","","","","","","","","","","",""
"","null","html-keyboard-response","56","87079","0.0-9.0-3.11","DRgnFAZdEf","5d29187bd96c80001769ec41","6617fad957f7c6a12ea16e26","6622cf1d4d5abfe7dafd4380","feedback screen","null","","","","","","","","","","","",""
"","null","html-keyboard-response","57","87592","0.0-9.0-0.12","DRgnFAZdEf","5d29187bd96c80001769ec41","6617fad957f7c6a12ea16e26","6622cf1d4d5abfe7dafd4380","fixation cross","null","","","","","","","","","","","",""
"","1054","html-keyboard-response","58","88648","0.0-9.0-1.12","DRgnFAZdEf","5d29187bd96c80001769ec41","6617fad957f7c6a12ea16e26","6622cf1d4d5abfe7dafd4380","image grid"," ","","","","","Ontogenetic_Distractor_notarget","ongrid","1800"," ","2","Phylogenetic","true","practice"
"","null","html-keyboard-response","59","88799","0.0-9.0-2.12","DRgnFAZdEf","5d29187bd96c80001769ec41","6617fad957f7c6a12ea16e26","6622cf1d4d5abfe7dafd4380","
    <div id=""grid-container"">
        <!-- Grid items will be dynamically added here -->
    </div>    ","null","","","","","","","","","","","",""
"","null","html-keyboard-response","60","90015","0.0-9.0-3.12","DRgnFAZdEf","5d29187bd96c80001769ec41","6617fad957f7c6a12ea16e26","6622cf1d4d5abfe7dafd4380","feedback screen","null","","","","","","","","","","","",""
"","null","html-keyboard-response","61","90516","0.0-9.0-0.13","DRgnFAZdEf","5d29187bd96c80001769ec41","6617fad957f7c6a12ea16e26","6622cf1d4d5abfe7dafd4380","fixation cross","null","","","","","","","","","","","",""
"","1290","html-keyboard-response","62","91807","0.0-9.0-1.13","DRgnFAZdEf","5d29187bd96c80001769ec41","6617fad957f7c6a12ea16e26","6622cf1d4d5abfe7dafd4380","image grid","p","","","","","Ontogenetic_Distractor_Nonthreat_target","ongrid","1700","p","1","Phylogenetic","true","practice"
"","null","html-keyboard-response","63","91965","0.0-9.0-2.13","DRgnFAZdEf","5d29187bd96c80001769ec41","6617fad957f7c6a12ea16e26","6622cf1d4d5abfe7dafd4380","
    <div id=""grid-container"">
        <!-- Grid items will be dynamically added here -->
    </div>    ","null","","","","","","","","","","","",""
"","null","html-keyboard-response","64","93182","0.0-9.0-3.13","DRgnFAZdEf","5d29187bd96c80001769ec41","6617fad957f7c6a12ea16e26","6622cf1d4d5abfe7dafd4380","feedback screen","null","","","","","","","","","","","",""
"","null","html-keyboard-response","65","93693","0.0-9.0-0.14","DRgnFAZdEf","5d29187bd96c80001769ec41","6617fad957f7c6a12ea16e26","6622cf1d4d5abfe7dafd4380","fixation cross","null","","","","","","","","","","","",""
"","762","html-keyboard-response","66","94455","0.0-9.0-1.14","DRgnFAZdEf","5d29187bd96c80001769ec41","6617fad957f7c6a12ea16e26","6622cf1d4d5abfe7dafd4380","image grid","q","","","","","Ontogenetic_Distractor_Threat_target","ongrid","1600","q","2","Phylogenetic","true","practice"
"","null","html-keyboard-response","67","94616","0.0-9.0-2.14","DRgnFAZdEf","5d29187bd96c80001769ec41","6617fad957f7c6a12ea16e26","6622cf1d4d5abfe7dafd4380","
    <div id=""grid-container"">
        <!-- Grid items will be dynamically added here -->
    </div>    ","null","","","","","","","","","","","",""
"","null","html-keyboard-response","68","95830","0.0-9.0-3.14","DRgnFAZdEf","5d29187bd96c80001769ec41","6617fad957f7c6a12ea16e26","6622cf1d4d5abfe7dafd4380","feedback screen","null","","","","","","","","","","","",""
"","null","html-keyboard-response","69","96341","0.0-9.0-0.15","DRgnFAZdEf","5d29187bd96c80001769ec41","6617fad957f7c6a12ea16e26","6622cf1d4d5abfe7dafd4380","fixation cross","null","","","","","","","","","","","",""
"","null","html-keyboard-response","70","97854","0.0-9.0-1.15","DRgnFAZdEf","5d29187bd96c80001769ec41","6617fad957f7c6a12ea16e26","6622cf1d4d5abfe7dafd4380","
        <div id=""grid-container"">
        <!-- Grid items will be dynamically added here -->
    </div>    ","null","","","","","","","","","","","",""
"","1812","html-keyboard-response","71","98167","0.0-9.0-2.15","DRgnFAZdEf","5d29187bd96c80001769ec41","6617fad957f7c6a12ea16e26","6622cf1d4d5abfe7dafd4380","mask grid","p","","","","","Phylogenetic_Distractor_Nonthreat_target","onmask","1500","p","8","Phylogenetic","true","practice"
"","null","html-keyboard-response","72","99391","0.0-9.0-3.15","DRgnFAZdEf","5d29187bd96c80001769ec41","6617fad957f7c6a12ea16e26","6622cf1d4d5abfe7dafd4380","feedback screen","null","","","","","","","","","","","",""
"","null","html-keyboard-response","73","99902","0.0-9.0-0.16","DRgnFAZdEf","5d29187bd96c80001769ec41","6617fad957f7c6a12ea16e26","6622cf1d4d5abfe7dafd4380","fixation cross","null","","","","","","","","","","","",""
"","928","html-keyboard-response","74","100831","0.0-9.0-1.16","DRgnFAZdEf","5d29187bd96c80001769ec41","6617fad957f7c6a12ea16e26","6622cf1d4d5abfe7dafd4380","image grid"," ","","","","","Ontogenetic_Distractor_notarget","ongrid","1400"," ","6","Phylogenetic","true","practice"
"","null","html-keyboard-response","75","100982","0.0-9.0-2.16","DRgnFAZdEf","5d29187bd96c80001769ec41","6617fad957f7c6a12ea16e26","6622cf1d4d5abfe7dafd4380","
    <div id=""grid-container"">
        <!-- Grid items will be dynamically added here -->
    </div>    ","null","","","","","","","","","","","",""
"","null","html-keyboard-response","76","102189","0.0-9.0-3.16","DRgnFAZdEf","5d29187bd96c80001769ec41","6617fad957f7c6a12ea16e26","6622cf1d4d5abfe7dafd4380","feedback screen","null","","","","","","","","","","","",""
"","null","html-keyboard-response","77","102702","0.0-9.0-0.17","DRgnFAZdEf","5d29187bd96c80001769ec41","6617fad957f7c6a12ea16e26","6622cf1d4d5abfe7dafd4380","fixation cross","null","","","","","","","","","","","",""
"","920","html-keyboard-response","78","103623","0.0-9.0-1.17","DRgnFAZdEf","5d29187bd96c80001769ec41","6617fad957f7c6a12ea16e26","6622cf1d4d5abfe7dafd4380","image grid","q","","","","","Ontogenetic_Distractor_Threat_target","ongrid","1300","q","4","Phylogenetic","true","practice"
"","null","html-keyboard-response","79","103775","0.0-9.0-2.17","DRgnFAZdEf","5d29187bd96c80001769ec41","6617fad957f7c6a12ea16e26","6622cf1d4d5abfe7dafd4380","
    <div id=""grid-container"">
        <!-- Grid items will be dynamically added here -->
    </div>    ","null","","","","","","","","","","","",""
"","null","html-keyboard-response","80","104998","0.0-9.0-3.17","DRgnFAZdEf","5d29187bd96c80001769ec41","6617fad957f7c6a12ea16e26","6622cf1d4d5abfe7dafd4380","feedback screen","null","","","","","","","","","","","",""
"","null","html-keyboard-response","81","105512","0.0-9.0-0.18","DRgnFAZdEf","5d29187bd96c80001769ec41","6617fad957f7c6a12ea16e26","6622cf1d4d5abfe7dafd4380","fixation cross","null","","","","","","","","","","","",""
"","1023","html-keyboard-response","82","106535","0.0-9.0-1.18","DRgnFAZdEf","5d29187bd96c80001769ec41","6617fad957f7c6a12ea16e26","6622cf1d4d5abfe7dafd4380","image grid","q","","","","","Phylogenetic_Distractor_Threat_target","ongrid","1200","q","3","Phylogenetic","true","practice"
"","null","html-keyboard-response","83","106698","0.0-9.0-2.18","DRgnFAZdEf","5d29187bd96c80001769ec41","6617fad957f7c6a12ea16e26","6622cf1d4d5abfe7dafd4380","
    <div id=""grid-container"">
        <!-- Grid items will be dynamically added here -->
    </div>    ","null","","","","","","","","","","","",""
"","null","html-keyboard-response","84","107913","0.0-9.0-3.18","DRgnFAZdEf","5d29187bd96c80001769ec41","6617fad957f7c6a12ea16e26","6622cf1d4d5abfe7dafd4380","feedback screen","null","","","","","","","","","","","",""
"","null","html-keyboard-response","85","108425","0.0-9.0-0.19","DRgnFAZdEf","5d29187bd96c80001769ec41","6617fad957f7c6a12ea16e26","6622cf1d4d5abfe7dafd4380","fixation cross","null","","","","","","","","","","","",""
"","790","html-keyboard-response","86","109216","0.0-9.0-1.19","DRgnFAZdEf","5d29187bd96c80001769ec41","6617fad957f7c6a12ea16e26","6622cf1d4d5abfe7dafd4380","image grid","q","","","","","Ontogenetic_Distractor_Threat_target","ongrid","1100","q","7","Phylogenetic","true","practice"
"","null","html-keyboard-response","87","109373","0.0-9.0-2.19","DRgnFAZdEf","5d29187bd96c80001769ec41","6617fad957f7c6a12ea16e26","6622cf1d4d5abfe7dafd4380","
    <div id=""grid-container"">
        <!-- Grid items will be dynamically added here -->
    </div>    ","null","","","","","","","","","","","",""
"","null","html-keyboard-response","88","110587","0.0-9.0-3.19","DRgnFAZdEf","5d29187bd96c80001769ec41","6617fad957f7c6a12ea16e26","6622cf1d4d5abfe7dafd4380","feedback screen","null","","","","","","","","","","","",""
"","10820","html-keyboard-response","89","121407","0.0-10.0","DRgnFAZdEf","5d29187bd96c80001769ec41","6617fad957f7c6a12ea16e26","6622cf1d4d5abfe7dafd4380","pre-experimental_briefing"," ","","","","","","","","","","","",""
"","null","html-keyboard-response","90","123933","0.0-11.0-0.0","DRgnFAZdEf","5d29187bd96c80001769ec41","6617fad957f7c6a12ea16e26","6622cf1d4d5abfe7dafd4380","fixation cross","null","","","","","","","","","","","",""
"","1554","html-keyboard-response","91","125487","0.0-11.0-1.0","DRgnFAZdEf","5d29187bd96c80001769ec41","6617fad957f7c6a12ea16e26","6622cf1d4d5abfe7dafd4380","image grid","q","","","","","Phylogenetic_Distractor_Nonthreat_target","ongrid","2500","p","3","Phylogenetic","false","experimental"
"","null","html-keyboard-response","92","125646","0.0-11.0-2.0","DRgnFAZdEf","5d29187bd96c80001769ec41","6617fad957f7c6a12ea16e26","6622cf1d4d5abfe7dafd4380","
    <div id=""grid-container"">
        <!-- Grid items will be dynamically added here -->
    </div>    ","null","","","","","","","","","","","",""
"","null","html-keyboard-response","93","126410","0.0-11.0-0.1","DRgnFAZdEf","5d29187bd96c80001769ec41","6617fad957f7c6a12ea16e26","6622cf1d4d5abfe7dafd4380","fixation cross","null","","","","","","","","","","","",""
"","908","html-keyboard-response","94","127319","0.0-11.0-1.1","DRgnFAZdEf","5d29187bd96c80001769ec41","6617fad957f7c6a12ea16e26","6622cf1d4d5abfe7dafd4380","image grid","q","","","","","Phylogenetic_Distractor_Threat_target","ongrid","2500","q","4","Phylogenetic","true","experimental"
"","null","html-keyboard-response","95","127484","0.0-11.0-2.1","DRgnFAZdEf","5d29187bd96c80001769ec41","6617fad957f7c6a12ea16e26","6622cf1d4d5abfe7dafd4380","
    <div id=""grid-container"">
        <!-- Grid items will be dynamically added here -->
    </div>    ","null","","","","","","","","","","","",""
"","null","html-keyboard-response","96","128186","0.0-11.0-0.2","DRgnFAZdEf","5d29187bd96c80001769ec41","6617fad957f7c6a12ea16e26","6622cf1d4d5abfe7dafd4380","fixation cross","null","","","","","","","","","","","",""
"","1221","html-keyboard-response","97","129407","0.0-11.0-1.2","DRgnFAZdEf","5d29187bd96c80001769ec41","6617fad957f7c6a12ea16e26","6622cf1d4d5abfe7dafd4380","image grid"," ","","","","","Phylogenetic_Distractor_notarget","ongrid","2500"," ","8","Phylogenetic","true","experimental"
"","null","html-keyboard-response","98","129569","0.0-11.0-2.2","DRgnFAZdEf","5d29187bd96c80001769ec41","6617fad957f7c6a12ea16e26","6622cf1d4d5abfe7dafd4380","
    <div id=""grid-container"">
        <!-- Grid items will be dynamically added here -->
    </div>    ","null","","","","","","","","","","","",""
"","null","html-keyboard-response","99","130281","0.0-11.0-0.3","DRgnFAZdEf","5d29187bd96c80001769ec41","6617fad957f7c6a12ea16e26","6622cf1d4d5abfe7dafd4380","fixation cross","null","","","","","","","","","","","",""
"","1278","html-keyboard-response","100","131559","0.0-11.0-1.3","DRgnFAZdEf","5d29187bd96c80001769ec41","6617fad957f7c6a12ea16e26","6622cf1d4d5abfe7dafd4380","image grid","p","","","","","Phylogenetic_Distractor_Nonthreat_target","ongrid","2500","p","6","Phylogenetic","true","experimental"
"","null","html-keyboard-response","101","131725","0.0-11.0-2.3","DRgnFAZdEf","5d29187bd96c80001769ec41","6617fad957f7c6a12ea16e26","6622cf1d4d5abfe7dafd4380","
    <div id=""grid-container"">
        <!-- Grid items will be dynamically added here -->
    </div>    ","null","","","","","","","","","","","",""
"","null","html-keyboard-response","102","132438","0.0-11.0-0.4","DRgnFAZdEf","5d29187bd96c80001769ec41","6617fad957f7c6a12ea16e26","6622cf1d4d5abfe7dafd4380","fixation cross","null","","","","","","","","","","","",""
"","944","html-keyboard-response","103","133383","0.0-11.0-1.4","DRgnFAZdEf","5d29187bd96c80001769ec41","6617fad957f7c6a12ea16e26","6622cf1d4d5abfe7dafd4380","image grid","p","","","","","Phylogenetic_Distractor_Nonthreat_target","ongrid","2500","p","4","Phylogenetic","true","experimental"
"","null","html-keyboard-response","104","133543","0.0-11.0-2.4","DRgnFAZdEf","5d29187bd96c80001769ec41","6617fad957f7c6a12ea16e26","6622cf1d4d5abfe7dafd4380","
    <div id=""grid-container"">
        <!-- Grid items will be dynamically added here -->
    </div>    ","null","","","","","","","","","","","",""
"","null","html-keyboard-response","105","134258","0.0-11.0-0.5","DRgnFAZdEf","5d29187bd96c80001769ec41","6617fad957f7c6a12ea16e26","6622cf1d4d5abfe7dafd4380","fixation cross","null","","","","","","","","","","","",""
"","717","html-keyboard-response","106","134976","0.0-11.0-1.5","DRgnFAZdEf","5d29187bd96c80001769ec41","6617fad957f7c6a12ea16e26","6622cf1d4d5abfe7dafd4380","image grid","q","","","","","Phylogenetic_Distractor_Threat_target","ongrid","2500","q","4","Phylogenetic","true","experimental"
"","null","html-keyboard-response","107","135138","0.0-11.0-2.5","DRgnFAZdEf","5d29187bd96c80001769ec41","6617fad957f7c6a12ea16e26","6622cf1d4d5abfe7dafd4380","
    <div id=""grid-container"">
        <!-- Grid items will be dynamically added here -->
    </div>    ","null","","","","","","","","","","","",""
"","null","html-keyboard-response","108","135857","0.0-11.0-0.6","DRgnFAZdEf","5d29187bd96c80001769ec41","6617fad957f7c6a12ea16e26","6622cf1d4d5abfe7dafd4380","fixation cross","null","","","","","","","","","","","",""
"","1269","html-keyboard-response","109","137127","0.0-11.0-1.6","DRgnFAZdEf","5d29187bd96c80001769ec41","6617fad957f7c6a12ea16e26","6622cf1d4d5abfe7dafd4380","image grid","p","","","","","Phylogenetic_Distractor_Nonthreat_target","ongrid","2500","p","3","Phylogenetic","true","experimental"
"","null","html-keyboard-response","110","137293","0.0-11.0-2.6","DRgnFAZdEf","5d29187bd96c80001769ec41","6617fad957f7c6a12ea16e26","6622cf1d4d5abfe7dafd4380","
    <div id=""grid-container"">
        <!-- Grid items will be dynamically added here -->
    </div>    ","null","","","","","","","","","","","",""
"","null","html-keyboard-response","111","138009","0.0-11.0-0.7","DRgnFAZdEf","5d29187bd96c80001769ec41","6617fad957f7c6a12ea16e26","6622cf1d4d5abfe7dafd4380","fixation cross","null","","","","","","","","","","","",""
"","1237","html-keyboard-response","112","139247","0.0-11.0-1.7","DRgnFAZdEf","5d29187bd96c80001769ec41","6617fad957f7c6a12ea16e26","6622cf1d4d5abfe7dafd4380","image grid"," ","","","","","Phylogenetic_Distractor_Nonthreat_target","ongrid","2500","p","2","Phylogenetic","false","experimental"
"","null","html-keyboard-response","113","139398","0.0-11.0-2.7","DRgnFAZdEf","5d29187bd96c80001769ec41","6617fad957f7c6a12ea16e26","6622cf1d4d5abfe7dafd4380","
    <div id=""grid-container"">
        <!-- Grid items will be dynamically added here -->
    </div>    ","null","","","","","","","","","","","",""
"","null","html-keyboard-response","114","140113","0.0-11.0-0.8","DRgnFAZdEf","5d29187bd96c80001769ec41","6617fad957f7c6a12ea16e26","6622cf1d4d5abfe7dafd4380","fixation cross","null","","","","","","","","","","","",""
"","1358","html-keyboard-response","115","141472","0.0-11.0-1.8","DRgnFAZdEf","5d29187bd96c80001769ec41","6617fad957f7c6a12ea16e26","6622cf1d4d5abfe7dafd4380","image grid","p","","","","","Phylogenetic_Distractor_Nonthreat_target","ongrid","2500","p","4","Phylogenetic","true","experimental"
"","null","html-keyboard-response","116","141626","0.0-11.0-2.8","DRgnFAZdEf","5d29187bd96c80001769ec41","6617fad957f7c6a12ea16e26","6622cf1d4d5abfe7dafd4380","
    <div id=""grid-container"">
        <!-- Grid items will be dynamically added here -->
    </div>    ","null","","","","","","","","","","","",""
"","null","html-keyboard-response","117","142342","0.0-11.0-0.9","DRgnFAZdEf","5d29187bd96c80001769ec41","6617fad957f7c6a12ea16e26","6622cf1d4d5abfe7dafd4380","fixation cross","null","","","","","","","","","","","",""
"","849","html-keyboard-response","118","143191","0.0-11.0-1.9","DRgnFAZdEf","5d29187bd96c80001769ec41","6617fad957f7c6a12ea16e26","6622cf1d4d5abfe7dafd4380","image grid","q","","","","","Phylogenetic_Distractor_Threat_target","ongrid","2500","q","6","Phylogenetic","true","experimental"
"","null","html-keyboard-response","119","143356","0.0-11.0-2.9","DRgnFAZdEf","5d29187bd96c80001769ec41","6617fad957f7c6a12ea16e26","6622cf1d4d5abfe7dafd4380","
    <div id=""grid-container"">
        <!-- Grid items will be dynamically added here -->
    </div>    ","null","","","","","","","","","","","",""
"","null","html-keyboard-response","120","144059","0.0-11.0-0.10","DRgnFAZdEf","5d29187bd96c80001769ec41","6617fad957f7c6a12ea16e26","6622cf1d4d5abfe7dafd4380","fixation cross","null","","","","","","","","","","","",""
"","1075","html-keyboard-response","121","145135","0.0-11.0-1.10","DRgnFAZdEf","5d29187bd96c80001769ec41","6617fad957f7c6a12ea16e26","6622cf1d4d5abfe7dafd4380","image grid","p","","","","","Phylogenetic_Distractor_Nonthreat_target","ongrid","2500","p","4","Phylogenetic","true","experimental"
"","null","html-keyboard-response","122","145287","0.0-11.0-2.10","DRgnFAZdEf","5d29187bd96c80001769ec41","6617fad957f7c6a12ea16e26","6622cf1d4d5abfe7dafd4380","
    <div id=""grid-container"">
        <!-- Grid items will be dynamically added here -->
    </div>    ","null","","","","","","","","","","","",""
"","null","html-keyboard-response","123","145991","0.0-11.0-0.11","DRgnFAZdEf","5d29187bd96c80001769ec41","6617fad957f7c6a12ea16e26","6622cf1d4d5abfe7dafd4380","fixation cross","null","","","","","","","","","","","",""
"","882","html-keyboard-response","124","146872","0.0-11.0-1.11","DRgnFAZdEf","5d29187bd96c80001769ec41","6617fad957f7c6a12ea16e26","6622cf1d4d5abfe7dafd4380","image grid","q","","","","","Phylogenetic_Distractor_Threat_target","ongrid","2500","q","1","Phylogenetic","true","experimental"
"","null","html-keyboard-response","125","147030","0.0-11.0-2.11","DRgnFAZdEf","5d29187bd96c80001769ec41","6617fad957f7c6a12ea16e26","6622cf1d4d5abfe7dafd4380","
    <div id=""grid-container"">
        <!-- Grid items will be dynamically added here -->
    </div>    ","null","","","","","","","","","","","",""
"","null","html-keyboard-response","126","147745","0.0-11.0-0.12","DRgnFAZdEf","5d29187bd96c80001769ec41","6617fad957f7c6a12ea16e26","6622cf1d4d5abfe7dafd4380","fixation cross","null","","","","","","","","","","","",""
"","663","html-keyboard-response","127","148407","0.0-11.0-1.12","DRgnFAZdEf","5d29187bd96c80001769ec41","6617fad957f7c6a12ea16e26","6622cf1d4d5abfe7dafd4380","image grid","q","","","","","Phylogenetic_Distractor_Threat_target","ongrid","2500","q","1","Phylogenetic","true","experimental"
"","null","html-keyboard-response","128","148570","0.0-11.0-2.12","DRgnFAZdEf","5d29187bd96c80001769ec41","6617fad957f7c6a12ea16e26","6622cf1d4d5abfe7dafd4380","
    <div id=""grid-container"">
        <!-- Grid items will be dynamically added here -->
    </div>    ","null","","","","","","","","","","","",""
"","null","html-keyboard-response","129","149284","0.0-11.0-0.13","DRgnFAZdEf","5d29187bd96c80001769ec41","6617fad957f7c6a12ea16e26","6622cf1d4d5abfe7dafd4380","fixation cross","null","","","","","","","","","","","",""
"","1532","html-keyboard-response","130","150816","0.0-11.0-1.13","DRgnFAZdEf","5d29187bd96c80001769ec41","6617fad957f7c6a12ea16e26","6622cf1d4d5abfe7dafd4380","image grid"," ","","","","","Phylogenetic_Distractor_notarget","ongrid","2500"," ","1","Phylogenetic","true","experimental"
"","null","html-keyboard-response","131","150967","0.0-11.0-2.13","DRgnFAZdEf","5d29187bd96c80001769ec41","6617fad957f7c6a12ea16e26","6622cf1d4d5abfe7dafd4380","
    <div id=""grid-container"">
        <!-- Grid items will be dynamically added here -->
    </div>    ","null","","","","","","","","","","","",""
"","null","html-keyboard-response","132","151679","0.0-11.0-0.14","DRgnFAZdEf","5d29187bd96c80001769ec41","6617fad957f7c6a12ea16e26","6622cf1d4d5abfe7dafd4380","fixation cross","null","","","","","","","","","","","",""
"","null","html-keyboard-response","133","154187","0.0-11.0-1.14","DRgnFAZdEf","5d29187bd96c80001769ec41","6617fad957f7c6a12ea16e26","6622cf1d4d5abfe7dafd4380","
        <div id=""grid-container"">
        <!-- Grid items will be dynamically added here -->
    </div>    ","null","","","","","","","","","","","",""
"","2584","html-keyboard-response","134","154272","0.0-11.0-2.14","DRgnFAZdEf","5d29187bd96c80001769ec41","6617fad957f7c6a12ea16e26","6622cf1d4d5abfe7dafd4380","mask grid","p","","","","","Phylogenetic_Distractor_Nonthreat_target","onmask","2500","p","8","Phylogenetic","true","experimental"
"","null","html-keyboard-response","135","154990","0.0-11.0-0.15","DRgnFAZdEf","5d29187bd96c80001769ec41","6617fad957f7c6a12ea16e26","6622cf1d4d5abfe7dafd4380","fixation cross","null","","","","","","","","","","","",""
"","1016","html-keyboard-response","136","156007","0.0-11.0-1.15","DRgnFAZdEf","5d29187bd96c80001769ec41","6617fad957f7c6a12ea16e26","6622cf1d4d5abfe7dafd4380","image grid","p","","","","","Phylogenetic_Distractor_Nonthreat_target","ongrid","2500","p","4","Phylogenetic","true","experimental"
"","null","html-keyboard-response","137","156159","0.0-11.0-2.15","DRgnFAZdEf","5d29187bd96c80001769ec41","6617fad957f7c6a12ea16e26","6622cf1d4d5abfe7dafd4380","
    <div id=""grid-container"">
        <!-- Grid items will be dynamically added here -->
    </div>    ","null","","","","","","","","","","","",""
"","null","html-keyboard-response","138","156873","0.0-11.0-0.16","DRgnFAZdEf","5d29187bd96c80001769ec41","6617fad957f7c6a12ea16e26","6622cf1d4d5abfe7dafd4380","fixation cross","null","","","","","","","","","","","",""
"","1478","html-keyboard-response","139","158351","0.0-11.0-1.16","DRgnFAZdEf","5d29187bd96c80001769ec41","6617fad957f7c6a12ea16e26","6622cf1d4d5abfe7dafd4380","image grid","p","","","","","Phylogenetic_Distractor_Nonthreat_target","ongrid","2500","p","5","Phylogenetic","true","experimental"
"","null","html-keyboard-response","140","158511","0.0-11.0-2.16","DRgnFAZdEf","5d29187bd96c80001769ec41","6617fad957f7c6a12ea16e26","6622cf1d4d5abfe7dafd4380","
    <div id=""grid-container"">
        <!-- Grid items will be dynamically added here -->
    </div>    ","null","","","","","","","","","","","",""
"","null","html-keyboard-response","141","159227","0.0-11.0-0.17","DRgnFAZdEf","5d29187bd96c80001769ec41","6617fad957f7c6a12ea16e26","6622cf1d4d5abfe7dafd4380","fixation cross","null","","","","","","","","","","","",""
"","1188","html-keyboard-response","142","160415","0.0-11.0-1.17","DRgnFAZdEf","5d29187bd96c80001769ec41","6617fad957f7c6a12ea16e26","6622cf1d4d5abfe7dafd4380","image grid","p","","","","","Phylogenetic_Distractor_Nonthreat_target","ongrid","2500","p","7","Phylogenetic","true","experimental"
"","null","html-keyboard-response","143","160576","0.0-11.0-2.17","DRgnFAZdEf","5d29187bd96c80001769ec41","6617fad957f7c6a12ea16e26","6622cf1d4d5abfe7dafd4380","
    <div id=""grid-container"">
        <!-- Grid items will be dynamically added here -->
    </div>    ","null","","","","","","","","","","","",""
"","null","html-keyboard-response","144","161293","0.0-11.0-0.18","DRgnFAZdEf","5d29187bd96c80001769ec41","6617fad957f7c6a12ea16e26","6622cf1d4d5abfe7dafd4380","fixation cross","null","","","","","","","","","","","",""
"","1033","html-keyboard-response","145","162327","0.0-11.0-1.18","DRgnFAZdEf","5d29187bd96c80001769ec41","6617fad957f7c6a12ea16e26","6622cf1d4d5abfe7dafd4380","image grid","p","","","","","Phylogenetic_Distractor_Nonthreat_target","ongrid","2500","p","4","Phylogenetic","true","experimental"
"","null","html-keyboard-response","146","162491","0.0-11.0-2.18","DRgnFAZdEf","5d29187bd96c80001769ec41","6617fad957f7c6a12ea16e26","6622cf1d4d5abfe7dafd4380","
    <div id=""grid-container"">
        <!-- Grid items will be dynamically added here -->
    </div>    ","null","","","","","","","","","","","",""
"","null","html-keyboard-response","147","163207","0.0-11.0-0.19","DRgnFAZdEf","5d29187bd96c80001769ec41","6617fad957f7c6a12ea16e26","6622cf1d4d5abfe7dafd4380","fixation cross","null","","","","","","","","","","","",""
"","1128","html-keyboard-response","148","164335","0.0-11.0-1.19","DRgnFAZdEf","5d29187bd96c80001769ec41","6617fad957f7c6a12ea16e26","6622cf1d4d5abfe7dafd4380","image grid","p","","","","","Phylogenetic_Distractor_Nonthreat_target","ongrid","2500","p","1","Phylogenetic","true","experimental"
"","null","html-keyboard-response","149","164497","0.0-11.0-2.19","DRgnFAZdEf","5d29187bd96c80001769ec41","6617fad957f7c6a12ea16e26","6622cf1d4d5abfe7dafd4380","
    <div id=""grid-container"">
        <!-- Grid items will be dynamically added here -->
    </div>    ","null","","","","","","","","","","","",""
"","null","html-keyboard-response","150","165215","0.0-11.0-0.20","DRgnFAZdEf","5d29187bd96c80001769ec41","6617fad957f7c6a12ea16e26","6622cf1d4d5abfe7dafd4380","fixation cross","null","","","","","","","","","","","",""
"","1393","html-keyboard-response","151","166607","0.0-11.0-1.20","DRgnFAZdEf","5d29187bd96c80001769ec41","6617fad957f7c6a12ea16e26","6622cf1d4d5abfe7dafd4380","image grid","q","","","","","Phylogenetic_Distractor_Threat_target","ongrid","2500","q","3","Phylogenetic","true","experimental"
"","null","html-keyboard-response","152","166766","0.0-11.0-2.20","DRgnFAZdEf","5d29187bd96c80001769ec41","6617fad957f7c6a12ea16e26","6622cf1d4d5abfe7dafd4380","
    <div id=""grid-container"">
        <!-- Grid items will be dynamically added here -->
    </div>    ","null","","","","","","","","","","","",""
"","null","html-keyboard-response","153","167468","0.0-11.0-0.21","DRgnFAZdEf","5d29187bd96c80001769ec41","6617fad957f7c6a12ea16e26","6622cf1d4d5abfe7dafd4380","fixation cross","null","","","","","","","","","","","",""
"","883","html-keyboard-response","154","168351","0.0-11.0-1.21","DRgnFAZdEf","5d29187bd96c80001769ec41","6617fad957f7c6a12ea16e26","6622cf1d4d5abfe7dafd4380","image grid","q","","","","","Phylogenetic_Distractor_Threat_target","ongrid","2500","q","3","Phylogenetic","true","experimental"
"","null","html-keyboard-response","155","168512","0.0-11.0-2.21","DRgnFAZdEf","5d29187bd96c80001769ec41","6617fad957f7c6a12ea16e26","6622cf1d4d5abfe7dafd4380","
    <div id=""grid-container"">
        <!-- Grid items will be dynamically added here -->
    </div>    ","null","","","","","","","","","","","",""
"","null","html-keyboard-response","156","169229","0.0-11.0-0.22","DRgnFAZdEf","5d29187bd96c80001769ec41","6617fad957f7c6a12ea16e26","6622cf1d4d5abfe7dafd4380","fixation cross","null","","","","","","","","","","","",""
"","1154","html-keyboard-response","157","170384","0.0-11.0-1.22","DRgnFAZdEf","5d29187bd96c80001769ec41","6617fad957f7c6a12ea16e26","6622cf1d4d5abfe7dafd4380","image grid","q","","","","","Phylogenetic_Distractor_Threat_target","ongrid","2500","q","6","Phylogenetic","true","experimental"
"","null","html-keyboard-response","158","170538","0.0-11.0-2.22","DRgnFAZdEf","5d29187bd96c80001769ec41","6617fad957f7c6a12ea16e26","6622cf1d4d5abfe7dafd4380","
    <div id=""grid-container"">
        <!-- Grid items will be dynamically added here -->
    </div>    ","null","","","","","","","","","","","",""
"","null","html-keyboard-response","159","171253","0.0-11.0-0.23","DRgnFAZdEf","5d29187bd96c80001769ec41","6617fad957f7c6a12ea16e26","6622cf1d4d5abfe7dafd4380","fixation cross","null","","","","","","","","","","","",""
"","786","html-keyboard-response","160","172039","0.0-11.0-1.23","DRgnFAZdEf","5d29187bd96c80001769ec41","6617fad957f7c6a12ea16e26","6622cf1d4d5abfe7dafd4380","image grid","q","","","","","Phylogenetic_Distractor_Threat_target","ongrid","2500","q","3","Phylogenetic","true","experimental"
"","null","html-keyboard-response","161","172203","0.0-11.0-2.23","DRgnFAZdEf","5d29187bd96c80001769ec41","6617fad957f7c6a12ea16e26","6622cf1d4d5abfe7dafd4380","
    <div id=""grid-container"">
        <!-- Grid items will be dynamically added here -->
    </div>    ","null","","","","","","","","","","","",""
"","null","html-keyboard-response","162","172915","0.0-11.0-0.24","DRgnFAZdEf","5d29187bd96c80001769ec41","6617fad957f7c6a12ea16e26","6622cf1d4d5abfe7dafd4380","fixation cross","null","","","","","","","","","","","",""
"","949","html-keyboard-response","163","173863","0.0-11.0-1.24","DRgnFAZdEf","5d29187bd96c80001769ec41","6617fad957f7c6a12ea16e26","6622cf1d4d5abfe7dafd4380","image grid","p","","","","","Phylogenetic_Distractor_Nonthreat_target","ongrid","2500","p","5","Phylogenetic","true","experimental"
"","null","html-keyboard-response","164","174018","0.0-11.0-2.24","DRgnFAZdEf","5d29187bd96c80001769ec41","6617fad957f7c6a12ea16e26","6622cf1d4d5abfe7dafd4380","
    <div id=""grid-container"">
        <!-- Grid items will be dynamically added here -->
    </div>    ","null","","","","","","","","","","","",""
"","null","html-keyboard-response","165","174747","0.0-11.0-0.25","DRgnFAZdEf","5d29187bd96c80001769ec41","6617fad957f7c6a12ea16e26","6622cf1d4d5abfe7dafd4380","fixation cross","null","","","","","","","","","","","",""
"","1188","html-keyboard-response","166","175935","0.0-11.0-1.25","DRgnFAZdEf","5d29187bd96c80001769ec41","6617fad957f7c6a12ea16e26","6622cf1d4d5abfe7dafd4380","image grid","q","","","","","Phylogenetic_Distractor_Threat_target","ongrid","2500","q","8","Phylogenetic","true","experimental"
"","null","html-keyboard-response","167","176097","0.0-11.0-2.25","DRgnFAZdEf","5d29187bd96c80001769ec41","6617fad957f7c6a12ea16e26","6622cf1d4d5abfe7dafd4380","
    <div id=""grid-container"">
        <!-- Grid items will be dynamically added here -->
    </div>    ","null","","","","","","","","","","","",""
"","null","html-keyboard-response","168","176811","0.0-11.0-0.26","DRgnFAZdEf","5d29187bd96c80001769ec41","6617fad957f7c6a12ea16e26","6622cf1d4d5abfe7dafd4380","fixation cross","null","","","","","","","","","","","",""
"","1683","html-keyboard-response","169","178495","0.0-11.0-1.26","DRgnFAZdEf","5d29187bd96c80001769ec41","6617fad957f7c6a12ea16e26","6622cf1d4d5abfe7dafd4380","image grid","q","","","","","Phylogenetic_Distractor_Nonthreat_target","ongrid","2500","p","4","Phylogenetic","false","experimental"
"","null","html-keyboard-response","170","178647","0.0-11.0-2.26","DRgnFAZdEf","5d29187bd96c80001769ec41","6617fad957f7c6a12ea16e26","6622cf1d4d5abfe7dafd4380","
    <div id=""grid-container"">
        <!-- Grid items will be dynamically added here -->
    </div>    ","null","","","","","","","","","","","",""
"","null","html-keyboard-response","171","179360","0.0-11.0-0.27","DRgnFAZdEf","5d29187bd96c80001769ec41","6617fad957f7c6a12ea16e26","6622cf1d4d5abfe7dafd4380","fixation cross","null","","","","","","","","","","","",""
"","null","html-keyboard-response","172","181872","0.0-11.0-1.27","DRgnFAZdEf","5d29187bd96c80001769ec41","6617fad957f7c6a12ea16e26","6622cf1d4d5abfe7dafd4380","
        <div id=""grid-container"">
        <!-- Grid items will be dynamically added here -->
    </div>    ","null","","","","","","","","","","","",""
"","2546","html-keyboard-response","173","181919","0.0-11.0-2.27","DRgnFAZdEf","5d29187bd96c80001769ec41","6617fad957f7c6a12ea16e26","6622cf1d4d5abfe7dafd4380","mask grid"," ","","","","","Phylogenetic_Distractor_notarget","onmask","2500"," ","7","Phylogenetic","true","experimental"
"","null","html-keyboard-response","174","182638","0.0-11.0-0.28","DRgnFAZdEf","5d29187bd96c80001769ec41","6617fad957f7c6a12ea16e26","6622cf1d4d5abfe7dafd4380","fixation cross","null","","","","","","","","","","","",""
"","674","html-keyboard-response","175","183311","0.0-11.0-1.28","DRgnFAZdEf","5d29187bd96c80001769ec41","6617fad957f7c6a12ea16e26","6622cf1d4d5abfe7dafd4380","image grid","q","","","","","Phylogenetic_Distractor_Threat_target","ongrid","2500","q","4","Phylogenetic","true","experimental"
"","null","html-keyboard-response","176","183477","0.0-11.0-2.28","DRgnFAZdEf","5d29187bd96c80001769ec41","6617fad957f7c6a12ea16e26","6622cf1d4d5abfe7dafd4380","
    <div id=""grid-container"">
        <!-- Grid items will be dynamically added here -->
    </div>    ","null","","","","","","","","","","","",""
"","null","html-keyboard-response","177","184191","0.0-11.0-0.29","DRgnFAZdEf","5d29187bd96c80001769ec41","6617fad957f7c6a12ea16e26","6622cf1d4d5abfe7dafd4380","fixation cross","null","","","","","","","","","","","",""
"","999","html-keyboard-response","178","185191","0.0-11.0-1.29","DRgnFAZdEf","5d29187bd96c80001769ec41","6617fad957f7c6a12ea16e26","6622cf1d4d5abfe7dafd4380","image grid","q","","","","","Phylogenetic_Distractor_Threat_target","ongrid","2500","q","3","Phylogenetic","true","experimental"
"","null","html-keyboard-response","179","185346","0.0-11.0-2.29","DRgnFAZdEf","5d29187bd96c80001769ec41","6617fad957f7c6a12ea16e26","6622cf1d4d5abfe7dafd4380","
    <div id=""grid-container"">
        <!-- Grid items will be dynamically added here -->
    </div>    ","null","","","","","","","","","","","",""
"","null","html-keyboard-response","180","186061","0.0-11.0-0.30","DRgnFAZdEf","5d29187bd96c80001769ec41","6617fad957f7c6a12ea16e26","6622cf1d4d5abfe7dafd4380","fixation cross","null","","","","","","","","","","","",""
"","634","html-keyboard-response","181","186696","0.0-11.0-1.30","DRgnFAZdEf","5d29187bd96c80001769ec41","6617fad957f7c6a12ea16e26","6622cf1d4d5abfe7dafd4380","image grid","q","","","","","Phylogenetic_Distractor_Threat_target","ongrid","2500","q","8","Phylogenetic","true","experimental"
"","null","html-keyboard-response","182","186852","0.0-11.0-2.30","DRgnFAZdEf","5d29187bd96c80001769ec41","6617fad957f7c6a12ea16e26","6622cf1d4d5abfe7dafd4380","
    <div id=""grid-container"">
        <!-- Grid items will be dynamically added here -->
    </div>    ","null","","","","","","","","","","","",""
"","null","html-keyboard-response","183","187558","0.0-11.0-0.31","DRgnFAZdEf","5d29187bd96c80001769ec41","6617fad957f7c6a12ea16e26","6622cf1d4d5abfe7dafd4380","fixation cross","null","","","","","","","","","","","",""
"","858","html-keyboard-response","184","188415","0.0-11.0-1.31","DRgnFAZdEf","5d29187bd96c80001769ec41","6617fad957f7c6a12ea16e26","6622cf1d4d5abfe7dafd4380","image grid","p","","","","","Phylogenetic_Distractor_Nonthreat_target","ongrid","2500","p","6","Phylogenetic","true","experimental"
"","null","html-keyboard-response","185","188567","0.0-11.0-2.31","DRgnFAZdEf","5d29187bd96c80001769ec41","6617fad957f7c6a12ea16e26","6622cf1d4d5abfe7dafd4380","
    <div id=""grid-container"">
        <!-- Grid items will be dynamically added here -->
    </div>    ","null","","","","","","","","","","","",""
"","null","html-keyboard-response","186","189280","0.0-11.0-0.32","DRgnFAZdEf","5d29187bd96c80001769ec41","6617fad957f7c6a12ea16e26","6622cf1d4d5abfe7dafd4380","fixation cross","null","","","","","","","","","","","",""
"","1838","html-keyboard-response","187","191120","0.0-11.0-1.32","DRgnFAZdEf","5d29187bd96c80001769ec41","6617fad957f7c6a12ea16e26","6622cf1d4d5abfe7dafd4380","image grid"," ","","","","","Phylogenetic_Distractor_notarget","ongrid","2500"," ","4","Phylogenetic","true","experimental"
"","null","html-keyboard-response","188","191272","0.0-11.0-2.32","DRgnFAZdEf","5d29187bd96c80001769ec41","6617fad957f7c6a12ea16e26","6622cf1d4d5abfe7dafd4380","
    <div id=""grid-container"">
        <!-- Grid items will be dynamically added here -->
    </div>    ","null","","","","","","","","","","","",""
"","null","html-keyboard-response","189","191977","0.0-11.0-0.33","DRgnFAZdEf","5d29187bd96c80001769ec41","6617fad957f7c6a12ea16e26","6622cf1d4d5abfe7dafd4380","fixation cross","null","","","","","","","","","","","",""
"","1246","html-keyboard-response","190","193223","0.0-11.0-1.33","DRgnFAZdEf","5d29187bd96c80001769ec41","6617fad957f7c6a12ea16e26","6622cf1d4d5abfe7dafd4380","image grid"," ","","","","","Phylogenetic_Distractor_Nonthreat_target","ongrid","2500","p","1","Phylogenetic","false","experimental"
"","null","html-keyboard-response","191","193379","0.0-11.0-2.33","DRgnFAZdEf","5d29187bd96c80001769ec41","6617fad957f7c6a12ea16e26","6622cf1d4d5abfe7dafd4380","
    <div id=""grid-container"">
        <!-- Grid items will be dynamically added here -->
    </div>    ","null","","","","","","","","","","","",""
"","null","html-keyboard-response","192","194093","0.0-11.0-0.34","DRgnFAZdEf","5d29187bd96c80001769ec41","6617fad957f7c6a12ea16e26","6622cf1d4d5abfe7dafd4380","fixation cross","null","","","","","","","","","","","",""
"","930","html-keyboard-response","193","195023","0.0-11.0-1.34","DRgnFAZdEf","5d29187bd96c80001769ec41","6617fad957f7c6a12ea16e26","6622cf1d4d5abfe7dafd4380","image grid","q","","","","","Phylogenetic_Distractor_Threat_target","ongrid","2500","q","6","Phylogenetic","true","experimental"
"","null","html-keyboard-response","194","195185","0.0-11.0-2.34","DRgnFAZdEf","5d29187bd96c80001769ec41","6617fad957f7c6a12ea16e26","6622cf1d4d5abfe7dafd4380","
    <div id=""grid-container"">
        <!-- Grid items will be dynamically added here -->
    </div>    ","null","","","","","","","","","","","",""
"","null","html-keyboard-response","195","195899","0.0-11.0-0.35","DRgnFAZdEf","5d29187bd96c80001769ec41","6617fad957f7c6a12ea16e26","6622cf1d4d5abfe7dafd4380","fixation cross","null","","","","","","","","","","","",""
"","580","html-keyboard-response","196","196480","0.0-11.0-1.35","DRgnFAZdEf","5d29187bd96c80001769ec41","6617fad957f7c6a12ea16e26","6622cf1d4d5abfe7dafd4380","image grid","q","","","","","Phylogenetic_Distractor_Threat_target","ongrid","2500","q","4","Phylogenetic","true","experimental"
"","null","html-keyboard-response","197","196635","0.0-11.0-2.35","DRgnFAZdEf","5d29187bd96c80001769ec41","6617fad957f7c6a12ea16e26","6622cf1d4d5abfe7dafd4380","
    <div id=""grid-container"">
        <!-- Grid items will be dynamically added here -->
    </div>    ","null","","","","","","","","","","","",""
"","null","html-keyboard-response","198","197393","0.0-11.0-0.36","DRgnFAZdEf","5d29187bd96c80001769ec41","6617fad957f7c6a12ea16e26","6622cf1d4d5abfe7dafd4380","fixation cross","null","","","","","","","","","","","",""
"","774","html-keyboard-response","199","198167","0.0-11.0-1.36","DRgnFAZdEf","5d29187bd96c80001769ec41","6617fad957f7c6a12ea16e26","6622cf1d4d5abfe7dafd4380","image grid","q","","","","","Phylogenetic_Distractor_Threat_target","ongrid","2500","q","6","Phylogenetic","true","experimental"
"","null","html-keyboard-response","200","198325","0.0-11.0-2.36","DRgnFAZdEf","5d29187bd96c80001769ec41","6617fad957f7c6a12ea16e26","6622cf1d4d5abfe7dafd4380","
    <div id=""grid-container"">
        <!-- Grid items will be dynamically added here -->
    </div>    ","null","","","","","","","","","","","",""
"","null","html-keyboard-response","201","199038","0.0-11.0-0.37","DRgnFAZdEf","5d29187bd96c80001769ec41","6617fad957f7c6a12ea16e26","6622cf1d4d5abfe7dafd4380","fixation cross","null","","","","","","","","","","","",""
"","729","html-keyboard-response","202","199767","0.0-11.0-1.37","DRgnFAZdEf","5d29187bd96c80001769ec41","6617fad957f7c6a12ea16e26","6622cf1d4d5abfe7dafd4380","image grid","q","","","","","Phylogenetic_Distractor_Threat_target","ongrid","2500","q","3","Phylogenetic","true","experimental"
"","null","html-keyboard-response","203","199928","0.0-11.0-2.37","DRgnFAZdEf","5d29187bd96c80001769ec41","6617fad957f7c6a12ea16e26","6622cf1d4d5abfe7dafd4380","
    <div id=""grid-container"">
        <!-- Grid items will be dynamically added here -->
    </div>    ","null","","","","","","","","","","","",""
"","null","html-keyboard-response","204","200644","0.0-11.0-0.38","DRgnFAZdEf","5d29187bd96c80001769ec41","6617fad957f7c6a12ea16e26","6622cf1d4d5abfe7dafd4380","fixation cross","null","","","","","","","","","","","",""
"","523","html-keyboard-response","205","201167","0.0-11.0-1.38","DRgnFAZdEf","5d29187bd96c80001769ec41","6617fad957f7c6a12ea16e26","6622cf1d4d5abfe7dafd4380","image grid","q","","","","","Phylogenetic_Distractor_Threat_target","ongrid","2500","q","1","Phylogenetic","true","experimental"
"","null","html-keyboard-response","206","201327","0.0-11.0-2.38","DRgnFAZdEf","5d29187bd96c80001769ec41","6617fad957f7c6a12ea16e26","6622cf1d4d5abfe7dafd4380","
    <div id=""grid-container"">
        <!-- Grid items will be dynamically added here -->
    </div>    ","null","","","","","","","","","","","",""
"","null","html-keyboard-response","207","202038","0.0-11.0-0.39","DRgnFAZdEf","5d29187bd96c80001769ec41","6617fad957f7c6a12ea16e26","6622cf1d4d5abfe7dafd4380","fixation cross","null","","","","","","","","","","","",""
"","1176","html-keyboard-response","208","203215","0.0-11.0-1.39","DRgnFAZdEf","5d29187bd96c80001769ec41","6617fad957f7c6a12ea16e26","6622cf1d4d5abfe7dafd4380","image grid","p","","","","","Phylogenetic_Distractor_Nonthreat_target","ongrid","2500","p","2","Phylogenetic","true","experimental"
"","null","html-keyboard-response","209","203368","0.0-11.0-2.39","DRgnFAZdEf","5d29187bd96c80001769ec41","6617fad957f7c6a12ea16e26","6622cf1d4d5abfe7dafd4380","
    <div id=""grid-container"">
        <!-- Grid items will be dynamically added here -->
    </div>    ","null","","","","","","","","","","","",""
"","12441","html-keyboard-response","210","216023","0.0-12.0","DRgnFAZdEf","5d29187bd96c80001769ec41","6617fad957f7c6a12ea16e26","6622cf1d4d5abfe7dafd4380","break screen"," ","","","","","","","","","","","",""
"","null","html-keyboard-response","211","218754","0.0-13.0-0.0","DRgnFAZdEf","5d29187bd96c80001769ec41","6617fad957f7c6a12ea16e26","6622cf1d4d5abfe7dafd4380","fixation cross","null","","","","","","","","","","","",""
"","null","html-keyboard-response","212","219561","0.0-13.0-1.0","DRgnFAZdEf","5d29187bd96c80001769ec41","6617fad957f7c6a12ea16e26","6622cf1d4d5abfe7dafd4380","
        <div id=""grid-container"">
        <!-- Grid items will be dynamically added here -->
    </div>    ","null","","","","","","","","","","","",""
"","982","html-keyboard-response","213","219744","0.0-13.0-2.0","DRgnFAZdEf","5d29187bd96c80001769ec41","6617fad957f7c6a12ea16e26","6622cf1d4d5abfe7dafd4380","mask grid","q","","","","","Ontogenetic_Distractor_Threat_target","onmask","800","q","3","Ontogenetic","true","experimental"
"","null","html-keyboard-response","214","220463","0.0-13.0-0.1","DRgnFAZdEf","5d29187bd96c80001769ec41","6617fad957f7c6a12ea16e26","6622cf1d4d5abfe7dafd4380","fixation cross","null","","","","","","","","","","","",""
"","null","html-keyboard-response","215","221271","0.0-13.0-1.1","DRgnFAZdEf","5d29187bd96c80001769ec41","6617fad957f7c6a12ea16e26","6622cf1d4d5abfe7dafd4380","
        <div id=""grid-container"">
        <!-- Grid items will be dynamically added here -->
    </div>    ","null","","","","","","","","","","","",""
"","1215","html-keyboard-response","216","221687","0.0-13.0-2.1","DRgnFAZdEf","5d29187bd96c80001769ec41","6617fad957f7c6a12ea16e26","6622cf1d4d5abfe7dafd4380","mask grid","p","","","","","Ontogenetic_Distractor_Nonthreat_target","onmask","800","p","4","Ontogenetic","true","experimental"
"","null","html-keyboard-response","217","222404","0.0-13.0-0.2","DRgnFAZdEf","5d29187bd96c80001769ec41","6617fad957f7c6a12ea16e26","6622cf1d4d5abfe7dafd4380","fixation cross","null","","","","","","","","","","","",""
"","null","html-keyboard-response","218","223220","0.0-13.0-1.2","DRgnFAZdEf","5d29187bd96c80001769ec41","6617fad957f7c6a12ea16e26","6622cf1d4d5abfe7dafd4380","
        <div id=""grid-container"">
        <!-- Grid items will be dynamically added here -->
    </div>    ","null","","","","","","","","","","","",""
"","818","html-keyboard-response","219","223239","0.0-13.0-2.2","DRgnFAZdEf","5d29187bd96c80001769ec41","6617fad957f7c6a12ea16e26","6622cf1d4d5abfe7dafd4380","mask grid","p","","","","","Ontogenetic_Distractor_Threat_target","onmask","800","q","3","Ontogenetic","false","experimental"
"","null","html-keyboard-response","220","223967","0.0-13.0-0.3","DRgnFAZdEf","5d29187bd96c80001769ec41","6617fad957f7c6a12ea16e26","6622cf1d4d5abfe7dafd4380","fixation cross","null","","","","","","","","","","","",""
"","null","html-keyboard-response","221","224778","0.0-13.0-1.3","DRgnFAZdEf","5d29187bd96c80001769ec41","6617fad957f7c6a12ea16e26","6622cf1d4d5abfe7dafd4380","
        <div id=""grid-container"">
        <!-- Grid items will be dynamically added here -->
    </div>    ","null","","","","","","","","","","","",""
"","965","html-keyboard-response","222","224943","0.0-13.0-2.3","DRgnFAZdEf","5d29187bd96c80001769ec41","6617fad957f7c6a12ea16e26","6622cf1d4d5abfe7dafd4380","mask grid","p","","","","","Ontogenetic_Distractor_Nonthreat_target","onmask","800","p","9","Ontogenetic","true","experimental"
"","null","html-keyboard-response","223","225663","0.0-13.0-0.4","DRgnFAZdEf","5d29187bd96c80001769ec41","6617fad957f7c6a12ea16e26","6622cf1d4d5abfe7dafd4380","fixation cross","null","","","","","","","","","","","",""
"","679","html-keyboard-response","224","226343","0.0-13.0-1.4","DRgnFAZdEf","5d29187bd96c80001769ec41","6617fad957f7c6a12ea16e26","6622cf1d4d5abfe7dafd4380","image grid","q","","","","","Ontogenetic_Distractor_Threat_target","ongrid","800","q","3","Ontogenetic","true","experimental"
"","null","html-keyboard-response","225","226505","0.0-13.0-2.4","DRgnFAZdEf","5d29187bd96c80001769ec41","6617fad957f7c6a12ea16e26","6622cf1d4d5abfe7dafd4380","
    <div id=""grid-container"">
        <!-- Grid items will be dynamically added here -->
    </div>    ","null","","","","","","","","","","","",""
"","null","html-keyboard-response","226","227219","0.0-13.0-0.5","DRgnFAZdEf","5d29187bd96c80001769ec41","6617fad957f7c6a12ea16e26","6622cf1d4d5abfe7dafd4380","fixation cross","null","","","","","","","","","","","",""
"","555","html-keyboard-response","227","227775","0.0-13.0-1.5","DRgnFAZdEf","5d29187bd96c80001769ec41","6617fad957f7c6a12ea16e26","6622cf1d4d5abfe7dafd4380","image grid","q","","","","","Ontogenetic_Distractor_Threat_target","ongrid","800","q","1","Ontogenetic","true","experimental"
"","null","html-keyboard-response","228","227935","0.0-13.0-2.5","DRgnFAZdEf","5d29187bd96c80001769ec41","6617fad957f7c6a12ea16e26","6622cf1d4d5abfe7dafd4380","
    <div id=""grid-container"">
        <!-- Grid items will be dynamically added here -->
    </div>    ","null","","","","","","","","","","","",""
"","null","html-keyboard-response","229","228653","0.0-13.0-0.6","DRgnFAZdEf","5d29187bd96c80001769ec41","6617fad957f7c6a12ea16e26","6622cf1d4d5abfe7dafd4380","fixation cross","null","","","","","","","","","","","",""
"","754","html-keyboard-response","230","229407","0.0-13.0-1.6","DRgnFAZdEf","5d29187bd96c80001769ec41","6617fad957f7c6a12ea16e26","6622cf1d4d5abfe7dafd4380","image grid","q","","","","","Ontogenetic_Distractor_Threat_target","ongrid","800","q","3","Ontogenetic","true","experimental"
"","null","html-keyboard-response","231","229559","0.0-13.0-2.6","DRgnFAZdEf","5d29187bd96c80001769ec41","6617fad957f7c6a12ea16e26","6622cf1d4d5abfe7dafd4380","
    <div id=""grid-container"">
        <!-- Grid items will be dynamically added here -->
    </div>    ","null","","","","","","","","","","","",""
"","null","html-keyboard-response","232","230272","0.0-13.0-0.7","DRgnFAZdEf","5d29187bd96c80001769ec41","6617fad957f7c6a12ea16e26","6622cf1d4d5abfe7dafd4380","fixation cross","null","","","","","","","","","","","",""
"","734","html-keyboard-response","233","231007","0.0-13.0-1.7","DRgnFAZdEf","5d29187bd96c80001769ec41","6617fad957f7c6a12ea16e26","6622cf1d4d5abfe7dafd4380","image grid","p","","","","","Ontogenetic_Distractor_Nonthreat_target","ongrid","800","p","3","Ontogenetic","true","experimental"
"","null","html-keyboard-response","234","231161","0.0-13.0-2.7","DRgnFAZdEf","5d29187bd96c80001769ec41","6617fad957f7c6a12ea16e26","6622cf1d4d5abfe7dafd4380","
    <div id=""grid-container"">
        <!-- Grid items will be dynamically added here -->
    </div>    ","null","","","","","","","","","","","",""
"","null","html-keyboard-response","235","231889","0.0-13.0-0.8","DRgnFAZdEf","5d29187bd96c80001769ec41","6617fad957f7c6a12ea16e26","6622cf1d4d5abfe7dafd4380","fixation cross","null","","","","","","","","","","","",""
"","null","html-keyboard-response","236","232697","0.0-13.0-1.8","DRgnFAZdEf","5d29187bd96c80001769ec41","6617fad957f7c6a12ea16e26","6622cf1d4d5abfe7dafd4380","
        <div id=""grid-container"">
        <!-- Grid items will be dynamically added here -->
    </div>    ","null","","","","","","","","","","","",""
"","974","html-keyboard-response","237","232872","0.0-13.0-2.8","DRgnFAZdEf","5d29187bd96c80001769ec41","6617fad957f7c6a12ea16e26","6622cf1d4d5abfe7dafd4380","mask grid","p","","","","","Ontogenetic_Distractor_Nonthreat_target","onmask","800","p","8","Ontogenetic","true","experimental"
"","null","html-keyboard-response","238","233582","0.0-13.0-0.9","DRgnFAZdEf","5d29187bd96c80001769ec41","6617fad957f7c6a12ea16e26","6622cf1d4d5abfe7dafd4380","fixation cross","null","","","","","","","","","","","",""
"","609","html-keyboard-response","239","234191","0.0-13.0-1.9","DRgnFAZdEf","5d29187bd96c80001769ec41","6617fad957f7c6a12ea16e26","6622cf1d4d5abfe7dafd4380","image grid","p","","","","","Ontogenetic_Distractor_Nonthreat_target","ongrid","800","p","3","Ontogenetic","true","experimental"
"","null","html-keyboard-response","240","234348","0.0-13.0-2.9","DRgnFAZdEf","5d29187bd96c80001769ec41","6617fad957f7c6a12ea16e26","6622cf1d4d5abfe7dafd4380","
    <div id=""grid-container"">
        <!-- Grid items will be dynamically added here -->
    </div>    ","null","","","","","","","","","","","",""
"","null","html-keyboard-response","241","235064","0.0-13.0-0.10","DRgnFAZdEf","5d29187bd96c80001769ec41","6617fad957f7c6a12ea16e26","6622cf1d4d5abfe7dafd4380","fixation cross","null","","","","","","","","","","","",""
"","648","html-keyboard-response","242","235711","0.0-13.0-1.10","DRgnFAZdEf","5d29187bd96c80001769ec41","6617fad957f7c6a12ea16e26","6622cf1d4d5abfe7dafd4380","image grid","p","","","","","Ontogenetic_Distractor_Nonthreat_target","ongrid","800","p","2","Ontogenetic","true","experimental"
"","null","html-keyboard-response","243","235870","0.0-13.0-2.10","DRgnFAZdEf","5d29187bd96c80001769ec41","6617fad957f7c6a12ea16e26","6622cf1d4d5abfe7dafd4380","
    <div id=""grid-container"">
        <!-- Grid items will be dynamically added here -->
    </div>    ","null","","","","","","","","","","","",""
"","null","html-keyboard-response","244","236589","0.0-13.0-0.11","DRgnFAZdEf","5d29187bd96c80001769ec41","6617fad957f7c6a12ea16e26","6622cf1d4d5abfe7dafd4380","fixation cross","null","","","","","","","","","","","",""
"","null","html-keyboard-response","245","237401","0.0-13.0-1.11","DRgnFAZdEf","5d29187bd96c80001769ec41","6617fad957f7c6a12ea16e26","6622cf1d4d5abfe7dafd4380","
        <div id=""grid-container"">
        <!-- Grid items will be dynamically added here -->
    </div>    ","null","","","","","","","","","","","",""
"","1703","html-keyboard-response","246","238303","0.0-13.0-2.11","DRgnFAZdEf","5d29187bd96c80001769ec41","6617fad957f7c6a12ea16e26","6622cf1d4d5abfe7dafd4380","mask grid"," ","","","","","Ontogenetic_Distractor_Nonthreat_target","onmask","800","p","7","Ontogenetic","false","experimental"
"","null","html-keyboard-response","247","239016","0.0-13.0-0.12","DRgnFAZdEf","5d29187bd96c80001769ec41","6617fad957f7c6a12ea16e26","6622cf1d4d5abfe7dafd4380","fixation cross","null","","","","","","","","","","","",""
"","null","html-keyboard-response","248","239825","0.0-13.0-1.12","DRgnFAZdEf","5d29187bd96c80001769ec41","6617fad957f7c6a12ea16e26","6622cf1d4d5abfe7dafd4380","
        <div id=""grid-container"">
        <!-- Grid items will be dynamically added here -->
    </div>    ","null","","","","","","","","","","","",""
"","830","html-keyboard-response","249","239856","0.0-13.0-2.12","DRgnFAZdEf","5d29187bd96c80001769ec41","6617fad957f7c6a12ea16e26","6622cf1d4d5abfe7dafd4380","mask grid","q","","","","","Ontogenetic_Distractor_Threat_target","onmask","800","q","6","Ontogenetic","true","experimental"
"","null","html-keyboard-response","250","240573","0.0-13.0-0.13","DRgnFAZdEf","5d29187bd96c80001769ec41","6617fad957f7c6a12ea16e26","6622cf1d4d5abfe7dafd4380","fixation cross","null","","","","","","","","","","","",""
"","792","html-keyboard-response","251","241367","0.0-13.0-1.13","DRgnFAZdEf","5d29187bd96c80001769ec41","6617fad957f7c6a12ea16e26","6622cf1d4d5abfe7dafd4380","image grid","q","","","","","Ontogenetic_Distractor_Threat_target","ongrid","800","q","3","Ontogenetic","true","experimental"
"","null","html-keyboard-response","252","241527","0.0-13.0-2.13","DRgnFAZdEf","5d29187bd96c80001769ec41","6617fad957f7c6a12ea16e26","6622cf1d4d5abfe7dafd4380","
    <div id=""grid-container"">
        <!-- Grid items will be dynamically added here -->
    </div>    ","null","","","","","","","","","","","",""
"","null","html-keyboard-response","253","242231","0.0-13.0-0.14","DRgnFAZdEf","5d29187bd96c80001769ec41","6617fad957f7c6a12ea16e26","6622cf1d4d5abfe7dafd4380","fixation cross","null","","","","","","","","","","","",""
"","784","html-keyboard-response","254","243015","0.0-13.0-1.14","DRgnFAZdEf","5d29187bd96c80001769ec41","6617fad957f7c6a12ea16e26","6622cf1d4d5abfe7dafd4380","image grid","p","","","","","Ontogenetic_Distractor_Nonthreat_target","ongrid","800","p","3","Ontogenetic","true","experimental"
"","null","html-keyboard-response","255","243176","0.0-13.0-2.14","DRgnFAZdEf","5d29187bd96c80001769ec41","6617fad957f7c6a12ea16e26","6622cf1d4d5abfe7dafd4380","
    <div id=""grid-container"">
        <!-- Grid items will be dynamically added here -->
    </div>    ","null","","","","","","","","","","","",""
"","null","html-keyboard-response","256","243890","0.0-13.0-0.15","DRgnFAZdEf","5d29187bd96c80001769ec41","6617fad957f7c6a12ea16e26","6622cf1d4d5abfe7dafd4380","fixation cross","null","","","","","","","","","","","",""
"","null","html-keyboard-response","257","244698","0.0-13.0-1.15","DRgnFAZdEf","5d29187bd96c80001769ec41","6617fad957f7c6a12ea16e26","6622cf1d4d5abfe7dafd4380","
        <div id=""grid-container"">
        <!-- Grid items will be dynamically added here -->
    </div>    ","null","","","","","","","","","","","",""
"","853","html-keyboard-response","258","244752","0.0-13.0-2.15","DRgnFAZdEf","5d29187bd96c80001769ec41","6617fad957f7c6a12ea16e26","6622cf1d4d5abfe7dafd4380","mask grid"," ","","","","","Ontogenetic_Distractor_Nonthreat_target","onmask","800","p","6","Ontogenetic","false","experimental"
"","null","html-keyboard-response","259","245476","0.0-13.0-0.16","DRgnFAZdEf","5d29187bd96c80001769ec41","6617fad957f7c6a12ea16e26","6622cf1d4d5abfe7dafd4380","fixation cross","null","","","","","","","","","","","",""
"","788","html-keyboard-response","260","246263","0.0-13.0-1.16","DRgnFAZdEf","5d29187bd96c80001769ec41","6617fad957f7c6a12ea16e26","6622cf1d4d5abfe7dafd4380","image grid","p","","","","","Ontogenetic_Distractor_Nonthreat_target","ongrid","800","p","6","Ontogenetic","true","experimental"
"","null","html-keyboard-response","261","246425","0.0-13.0-2.16","DRgnFAZdEf","5d29187bd96c80001769ec41","6617fad957f7c6a12ea16e26","6622cf1d4d5abfe7dafd4380","
    <div id=""grid-container"">
        <!-- Grid items will be dynamically added here -->
    </div>    ","null","","","","","","","","","","","",""
"","null","html-keyboard-response","262","247138","0.0-13.0-0.17","DRgnFAZdEf","5d29187bd96c80001769ec41","6617fad957f7c6a12ea16e26","6622cf1d4d5abfe7dafd4380","fixation cross","null","","","","","","","","","","","",""
"","686","html-keyboard-response","263","247824","0.0-13.0-1.17","DRgnFAZdEf","5d29187bd96c80001769ec41","6617fad957f7c6a12ea16e26","6622cf1d4d5abfe7dafd4380","image grid","q","","","","","Ontogenetic_Distractor_Threat_target","ongrid","800","q","3","Ontogenetic","true","experimental"
"","null","html-keyboard-response","264","247982","0.0-13.0-2.17","DRgnFAZdEf","5d29187bd96c80001769ec41","6617fad957f7c6a12ea16e26","6622cf1d4d5abfe7dafd4380","
    <div id=""grid-container"">
        <!-- Grid items will be dynamically added here -->
    </div>    ","null","","","","","","","","","","","",""
"","null","html-keyboard-response","265","248699","0.0-13.0-0.18","DRgnFAZdEf","5d29187bd96c80001769ec41","6617fad957f7c6a12ea16e26","6622cf1d4d5abfe7dafd4380","fixation cross","null","","","","","","","","","","","",""
"","null","html-keyboard-response","266","249509","0.0-13.0-1.18","DRgnFAZdEf","5d29187bd96c80001769ec41","6617fad957f7c6a12ea16e26","6622cf1d4d5abfe7dafd4380","
        <div id=""grid-container"">
        <!-- Grid items will be dynamically added here -->
    </div>    ","null","","","","","","","","","","","",""
"","1034","html-keyboard-response","267","249744","0.0-13.0-2.18","DRgnFAZdEf","5d29187bd96c80001769ec41","6617fad957f7c6a12ea16e26","6622cf1d4d5abfe7dafd4380","mask grid","p","","","","","Ontogenetic_Distractor_Nonthreat_target","onmask","800","p","1","Ontogenetic","true","experimental"
"","null","html-keyboard-response","268","250469","0.0-13.0-0.19","DRgnFAZdEf","5d29187bd96c80001769ec41","6617fad957f7c6a12ea16e26","6622cf1d4d5abfe7dafd4380","fixation cross","null","","","","","","","","","","","",""
"","802","html-keyboard-response","269","251272","0.0-13.0-1.19","DRgnFAZdEf","5d29187bd96c80001769ec41","6617fad957f7c6a12ea16e26","6622cf1d4d5abfe7dafd4380","image grid","p","","","","","Ontogenetic_Distractor_Nonthreat_target","ongrid","800","p","3","Ontogenetic","true","experimental"
"","null","html-keyboard-response","270","251432","0.0-13.0-2.19","DRgnFAZdEf","5d29187bd96c80001769ec41","6617fad957f7c6a12ea16e26","6622cf1d4d5abfe7dafd4380","
    <div id=""grid-container"">
        <!-- Grid items will be dynamically added here -->
    </div>    ","null","","","","","","","","","","","",""
"","null","html-keyboard-response","271","252146","0.0-13.0-0.20","DRgnFAZdEf","5d29187bd96c80001769ec41","6617fad957f7c6a12ea16e26","6622cf1d4d5abfe7dafd4380","fixation cross","null","","","","","","","","","","","",""
"","null","html-keyboard-response","272","252949","0.0-13.0-1.20","DRgnFAZdEf","5d29187bd96c80001769ec41","6617fad957f7c6a12ea16e26","6622cf1d4d5abfe7dafd4380","
        <div id=""grid-container"">
        <!-- Grid items will be dynamically added here -->
    </div>    ","null","","","","","","","","","","","",""
"","1409","html-keyboard-response","273","253559","0.0-13.0-2.20","DRgnFAZdEf","5d29187bd96c80001769ec41","6617fad957f7c6a12ea16e26","6622cf1d4d5abfe7dafd4380","mask grid"," ","","","","","Ontogenetic_Distractor_notarget","onmask","800"," ","9","Ontogenetic","true","experimental"
"","null","html-keyboard-response","274","254273","0.0-13.0-0.21","DRgnFAZdEf","5d29187bd96c80001769ec41","6617fad957f7c6a12ea16e26","6622cf1d4d5abfe7dafd4380","fixation cross","null","","","","","","","","","","","",""
"","526","html-keyboard-response","275","254799","0.0-13.0-1.21","DRgnFAZdEf","5d29187bd96c80001769ec41","6617fad957f7c6a12ea16e26","6622cf1d4d5abfe7dafd4380","image grid","q","","","","","Ontogenetic_Distractor_Threat_target","ongrid","800","q","1","Ontogenetic","true","experimental"
"","null","html-keyboard-response","276","254959","0.0-13.0-2.21","DRgnFAZdEf","5d29187bd96c80001769ec41","6617fad957f7c6a12ea16e26","6622cf1d4d5abfe7dafd4380","
    <div id=""grid-container"">
        <!-- Grid items will be dynamically added here -->
    </div>    ","null","","","","","","","","","","","",""
"","null","html-keyboard-response","277","255671","0.0-13.0-0.22","DRgnFAZdEf","5d29187bd96c80001769ec41","6617fad957f7c6a12ea16e26","6622cf1d4d5abfe7dafd4380","fixation cross","null","","","","","","","","","","","",""
"","null","html-keyboard-response","278","256518","0.0-13.0-1.22","DRgnFAZdEf","5d29187bd96c80001769ec41","6617fad957f7c6a12ea16e26","6622cf1d4d5abfe7dafd4380","
        <div id=""grid-container"">
        <!-- Grid items will be dynamically added here -->
    </div>    ","null","","","","","","","","","","","",""
"","953","html-keyboard-response","279","256671","0.0-13.0-2.22","DRgnFAZdEf","5d29187bd96c80001769ec41","6617fad957f7c6a12ea16e26","6622cf1d4d5abfe7dafd4380","mask grid","p","","","","","Ontogenetic_Distractor_Nonthreat_target","onmask","800","p","5","Ontogenetic","true","experimental"
"","null","html-keyboard-response","280","257382","0.0-13.0-0.23","DRgnFAZdEf","5d29187bd96c80001769ec41","6617fad957f7c6a12ea16e26","6622cf1d4d5abfe7dafd4380","fixation cross","null","","","","","","","","","","","",""
"","625","html-keyboard-response","281","258007","0.0-13.0-1.23","DRgnFAZdEf","5d29187bd96c80001769ec41","6617fad957f7c6a12ea16e26","6622cf1d4d5abfe7dafd4380","image grid","p","","","","","Ontogenetic_Distractor_Nonthreat_target","ongrid","800","p","5","Ontogenetic","true","experimental"
"","null","html-keyboard-response","282","258159","0.0-13.0-2.23","DRgnFAZdEf","5d29187bd96c80001769ec41","6617fad957f7c6a12ea16e26","6622cf1d4d5abfe7dafd4380","
    <div id=""grid-container"">
        <!-- Grid items will be dynamically added here -->
    </div>    ","null","","","","","","","","","","","",""
"","null","html-keyboard-response","283","258875","0.0-13.0-0.24","DRgnFAZdEf","5d29187bd96c80001769ec41","6617fad957f7c6a12ea16e26","6622cf1d4d5abfe7dafd4380","fixation cross","null","","","","","","","","","","","",""
"","null","html-keyboard-response","284","259683","0.0-13.0-1.24","DRgnFAZdEf","5d29187bd96c80001769ec41","6617fad957f7c6a12ea16e26","6622cf1d4d5abfe7dafd4380","
        <div id=""grid-container"">
        <!-- Grid items will be dynamically added here -->
    </div>    ","null","","","","","","","","","","","",""
"","956","html-keyboard-response","285","259839","0.0-13.0-2.24","DRgnFAZdEf","5d29187bd96c80001769ec41","6617fad957f7c6a12ea16e26","6622cf1d4d5abfe7dafd4380","mask grid","p","","","","","Ontogenetic_Distractor_Nonthreat_target","onmask","800","p","4","Ontogenetic","true","experimental"
"","null","html-keyboard-response","286","260556","0.0-13.0-0.25","DRgnFAZdEf","5d29187bd96c80001769ec41","6617fad957f7c6a12ea16e26","6622cf1d4d5abfe7dafd4380","fixation cross","null","","","","","","","","","","","",""
"","null","html-keyboard-response","287","261358","0.0-13.0-1.25","DRgnFAZdEf","5d29187bd96c80001769ec41","6617fad957f7c6a12ea16e26","6622cf1d4d5abfe7dafd4380","
        <div id=""grid-container"">
        <!-- Grid items will be dynamically added here -->
    </div>    ","null","","","","","","","","","","","",""
"","809","html-keyboard-response","288","261367","0.0-13.0-2.25","DRgnFAZdEf","5d29187bd96c80001769ec41","6617fad957f7c6a12ea16e26","6622cf1d4d5abfe7dafd4380","mask grid","q","","","","","Ontogenetic_Distractor_Threat_target","onmask","800","q","1","Ontogenetic","true","experimental"
"","null","html-keyboard-response","289","262094","0.0-13.0-0.26","DRgnFAZdEf","5d29187bd96c80001769ec41","6617fad957f7c6a12ea16e26","6622cf1d4d5abfe7dafd4380","fixation cross","null","","","","","","","","","","","",""
"","null","html-keyboard-response","290","262903","0.0-13.0-1.26","DRgnFAZdEf","5d29187bd96c80001769ec41","6617fad957f7c6a12ea16e26","6622cf1d4d5abfe7dafd4380","
        <div id=""grid-container"">
        <!-- Grid items will be dynamically added here -->
    </div>    ","null","","","","","","","","","","","",""
"","1136","html-keyboard-response","291","263239","0.0-13.0-2.26","DRgnFAZdEf","5d29187bd96c80001769ec41","6617fad957f7c6a12ea16e26","6622cf1d4d5abfe7dafd4380","mask grid"," ","","","","","Ontogenetic_Distractor_notarget","onmask","800"," ","6","Ontogenetic","true","experimental"
"","null","html-keyboard-response","292","263957","0.0-13.0-0.27","DRgnFAZdEf","5d29187bd96c80001769ec41","6617fad957f7c6a12ea16e26","6622cf1d4d5abfe7dafd4380","fixation cross","null","","","","","","","","","","","",""
"","723","html-keyboard-response","293","264679","0.0-13.0-1.27","DRgnFAZdEf","5d29187bd96c80001769ec41","6617fad957f7c6a12ea16e26","6622cf1d4d5abfe7dafd4380","image grid","q","","","","","Ontogenetic_Distractor_Threat_target","ongrid","800","q","7","Ontogenetic","true","experimental"
"","null","html-keyboard-response","294","264839","0.0-13.0-2.27","DRgnFAZdEf","5d29187bd96c80001769ec41","6617fad957f7c6a12ea16e26","6622cf1d4d5abfe7dafd4380","
    <div id=""grid-container"">
        <!-- Grid items will be dynamically added here -->
    </div>    ","null","","","","","","","","","","","",""
"","null","html-keyboard-response","295","265556","0.0-13.0-0.28","DRgnFAZdEf","5d29187bd96c80001769ec41","6617fad957f7c6a12ea16e26","6622cf1d4d5abfe7dafd4380","fixation cross","null","","","","","","","","","","","",""
"","698","html-keyboard-response","296","266256","0.0-13.0-1.28","DRgnFAZdEf","5d29187bd96c80001769ec41","6617fad957f7c6a12ea16e26","6622cf1d4d5abfe7dafd4380","image grid","q","","","","","Ontogenetic_Distractor_Threat_target","ongrid","800","q","5","Ontogenetic","true","experimental"
"","null","html-keyboard-response","297","266413","0.0-13.0-2.28","DRgnFAZdEf","5d29187bd96c80001769ec41","6617fad957f7c6a12ea16e26","6622cf1d4d5abfe7dafd4380","
    <div id=""grid-container"">
        <!-- Grid items will be dynamically added here -->
    </div>    ","null","","","","","","","","","","","",""
"","null","html-keyboard-response","298","267125","0.0-13.0-0.29","DRgnFAZdEf","5d29187bd96c80001769ec41","6617fad957f7c6a12ea16e26","6622cf1d4d5abfe7dafd4380","fixation cross","null","","","","","","","","","","","",""
"","778","html-keyboard-response","299","267903","0.0-13.0-1.29","DRgnFAZdEf","5d29187bd96c80001769ec41","6617fad957f7c6a12ea16e26","6622cf1d4d5abfe7dafd4380","image grid","p","","","","","Ontogenetic_Distractor_Nonthreat_target","ongrid","800","p","5","Ontogenetic","true","experimental"
"","null","html-keyboard-response","300","268060","0.0-13.0-2.29","DRgnFAZdEf","5d29187bd96c80001769ec41","6617fad957f7c6a12ea16e26","6622cf1d4d5abfe7dafd4380","
    <div id=""grid-container"">
        <!-- Grid items will be dynamically added here -->
    </div>    ","null","","","","","","","","","","","",""
"","null","html-keyboard-response","301","268775","0.0-13.0-0.30","DRgnFAZdEf","5d29187bd96c80001769ec41","6617fad957f7c6a12ea16e26","6622cf1d4d5abfe7dafd4380","fixation cross","null","","","","","","","","","","","",""
"","600","html-keyboard-response","302","269375","0.0-13.0-1.30","DRgnFAZdEf","5d29187bd96c80001769ec41","6617fad957f7c6a12ea16e26","6622cf1d4d5abfe7dafd4380","image grid","q","","","","","Ontogenetic_Distractor_Threat_target","ongrid","800","q","5","Ontogenetic","true","experimental"
"","null","html-keyboard-response","303","269533","0.0-13.0-2.30","DRgnFAZdEf","5d29187bd96c80001769ec41","6617fad957f7c6a12ea16e26","6622cf1d4d5abfe7dafd4380","
    <div id=""grid-container"">
        <!-- Grid items will be dynamically added here -->
    </div>    ","null","","","","","","","","","","","",""
"","null","html-keyboard-response","304","270249","0.0-13.0-0.31","DRgnFAZdEf","5d29187bd96c80001769ec41","6617fad957f7c6a12ea16e26","6622cf1d4d5abfe7dafd4380","fixation cross","null","","","","","","","","","","","",""
"","null","html-keyboard-response","305","271061","0.0-13.0-1.31","DRgnFAZdEf","5d29187bd96c80001769ec41","6617fad957f7c6a12ea16e26","6622cf1d4d5abfe7dafd4380","
        <div id=""grid-container"">
        <!-- Grid items will be dynamically added here -->
    </div>    ","null","","","","","","","","","","","",""
"","1458","html-keyboard-response","306","271719","0.0-13.0-2.31","DRgnFAZdEf","5d29187bd96c80001769ec41","6617fad957f7c6a12ea16e26","6622cf1d4d5abfe7dafd4380","mask grid"," ","","","","","Ontogenetic_Distractor_notarget","onmask","800"," ","6","Ontogenetic","true","experimental"
"","null","html-keyboard-response","307","272435","0.0-13.0-0.32","DRgnFAZdEf","5d29187bd96c80001769ec41","6617fad957f7c6a12ea16e26","6622cf1d4d5abfe7dafd4380","fixation cross","null","","","","","","","","","","","",""
"","595","html-keyboard-response","308","273032","0.0-13.0-1.32","DRgnFAZdEf","5d29187bd96c80001769ec41","6617fad957f7c6a12ea16e26","6622cf1d4d5abfe7dafd4380","image grid","q","","","","","Ontogenetic_Distractor_Threat_target","ongrid","800","q","2","Ontogenetic","true","experimental"
"","null","html-keyboard-response","309","273186","0.0-13.0-2.32","DRgnFAZdEf","5d29187bd96c80001769ec41","6617fad957f7c6a12ea16e26","6622cf1d4d5abfe7dafd4380","
    <div id=""grid-container"">
        <!-- Grid items will be dynamically added here -->
    </div>    ","null","","","","","","","","","","","",""
"","null","html-keyboard-response","310","273904","0.0-13.0-0.33","DRgnFAZdEf","5d29187bd96c80001769ec41","6617fad957f7c6a12ea16e26","6622cf1d4d5abfe7dafd4380","fixation cross","null","","","","","","","","","","","",""
"","null","html-keyboard-response","311","274714","0.0-13.0-1.33","DRgnFAZdEf","5d29187bd96c80001769ec41","6617fad957f7c6a12ea16e26","6622cf1d4d5abfe7dafd4380","
        <div id=""grid-container"">
        <!-- Grid items will be dynamically added here -->
    </div>    ","null","","","","","","","","","","","",""
"","870","html-keyboard-response","312","274783","0.0-13.0-2.33","DRgnFAZdEf","5d29187bd96c80001769ec41","6617fad957f7c6a12ea16e26","6622cf1d4d5abfe7dafd4380","mask grid","p","","","","","Ontogenetic_Distractor_Nonthreat_target","onmask","800","p","7","Ontogenetic","true","experimental"
"","null","html-keyboard-response","313","275498","0.0-13.0-0.34","DRgnFAZdEf","5d29187bd96c80001769ec41","6617fad957f7c6a12ea16e26","6622cf1d4d5abfe7dafd4380","fixation cross","null","","","","","","","","","","","",""
"","749","html-keyboard-response","314","276247","0.0-13.0-1.34","DRgnFAZdEf","5d29187bd96c80001769ec41","6617fad957f7c6a12ea16e26","6622cf1d4d5abfe7dafd4380","image grid","q","","","","","Ontogenetic_Distractor_Threat_target","ongrid","800","q","3","Ontogenetic","true","experimental"
"","null","html-keyboard-response","315","276400","0.0-13.0-2.34","DRgnFAZdEf","5d29187bd96c80001769ec41","6617fad957f7c6a12ea16e26","6622cf1d4d5abfe7dafd4380","
    <div id=""grid-container"">
        <!-- Grid items will be dynamically added here -->
    </div>    ","null","","","","","","","","","","","",""
"","null","html-keyboard-response","316","277131","0.0-13.0-0.35","DRgnFAZdEf","5d29187bd96c80001769ec41","6617fad957f7c6a12ea16e26","6622cf1d4d5abfe7dafd4380","fixation cross","null","","","","","","","","","","","",""
"","586","html-keyboard-response","317","277719","0.0-13.0-1.35","DRgnFAZdEf","5d29187bd96c80001769ec41","6617fad957f7c6a12ea16e26","6622cf1d4d5abfe7dafd4380","image grid","p","","","","","Ontogenetic_Distractor_Nonthreat_target","ongrid","800","p","8","Ontogenetic","true","experimental"
"","null","html-keyboard-response","318","277881","0.0-13.0-2.35","DRgnFAZdEf","5d29187bd96c80001769ec41","6617fad957f7c6a12ea16e26","6622cf1d4d5abfe7dafd4380","
    <div id=""grid-container"">
        <!-- Grid items will be dynamically added here -->
    </div>    ","null","","","","","","","","","","","",""
"","null","html-keyboard-response","319","278597","0.0-13.0-0.36","DRgnFAZdEf","5d29187bd96c80001769ec41","6617fad957f7c6a12ea16e26","6622cf1d4d5abfe7dafd4380","fixation cross","null","","","","","","","","","","","",""
"","null","html-keyboard-response","320","279405","0.0-13.0-1.36","DRgnFAZdEf","5d29187bd96c80001769ec41","6617fad957f7c6a12ea16e26","6622cf1d4d5abfe7dafd4380","
        <div id=""grid-container"">
        <!-- Grid items will be dynamically added here -->
    </div>    ","null","","","","","","","","","","","",""
"","1170","html-keyboard-response","321","279775","0.0-13.0-2.36","DRgnFAZdEf","5d29187bd96c80001769ec41","6617fad957f7c6a12ea16e26","6622cf1d4d5abfe7dafd4380","mask grid","q","","","","","Ontogenetic_Distractor_Threat_target","onmask","800","q","2","Ontogenetic","true","experimental"
"","null","html-keyboard-response","322","280489","0.0-13.0-0.37","DRgnFAZdEf","5d29187bd96c80001769ec41","6617fad957f7c6a12ea16e26","6622cf1d4d5abfe7dafd4380","fixation cross","null","","","","","","","","","","","",""
"","null","html-keyboard-response","323","281299","0.0-13.0-1.37","DRgnFAZdEf","5d29187bd96c80001769ec41","6617fad957f7c6a12ea16e26","6622cf1d4d5abfe7dafd4380","
        <div id=""grid-container"">
        <!-- Grid items will be dynamically added here -->
    </div>    ","null","","","","","","","","","","","",""
"","1340","html-keyboard-response","324","281839","0.0-13.0-2.37","DRgnFAZdEf","5d29187bd96c80001769ec41","6617fad957f7c6a12ea16e26","6622cf1d4d5abfe7dafd4380","mask grid"," ","","","","","Ontogenetic_Distractor_notarget","onmask","800"," ","1","Ontogenetic","true","experimental"
"","null","html-keyboard-response","325","282545","0.0-13.0-0.38","DRgnFAZdEf","5d29187bd96c80001769ec41","6617fad957f7c6a12ea16e26","6622cf1d4d5abfe7dafd4380","fixation cross","null","","","","","","","","","","","",""
"","661","html-keyboard-response","326","283207","0.0-13.0-1.38","DRgnFAZdEf","5d29187bd96c80001769ec41","6617fad957f7c6a12ea16e26","6622cf1d4d5abfe7dafd4380","image grid","q","","","","","Ontogenetic_Distractor_Threat_target","ongrid","800","q","1","Ontogenetic","true","experimental"
"","null","html-keyboard-response","327","283371","0.0-13.0-2.38","DRgnFAZdEf","5d29187bd96c80001769ec41","6617fad957f7c6a12ea16e26","6622cf1d4d5abfe7dafd4380","
    <div id=""grid-container"">
        <!-- Grid items will be dynamically added here -->
    </div>    ","null","","","","","","","","","","","",""
"","null","html-keyboard-response","328","284100","0.0-13.0-0.39","DRgnFAZdEf","5d29187bd96c80001769ec41","6617fad957f7c6a12ea16e26","6622cf1d4d5abfe7dafd4380","fixation cross","null","","","","","","","","","","","",""
"","547","html-keyboard-response","329","284647","0.0-13.0-1.39","DRgnFAZdEf","5d29187bd96c80001769ec41","6617fad957f7c6a12ea16e26","6622cf1d4d5abfe7dafd4380","image grid","q","","","","","Ontogenetic_Distractor_Threat_target","ongrid","800","q","1","Ontogenetic","true","experimental"
"","null","html-keyboard-response","330","284800","0.0-13.0-2.39","DRgnFAZdEf","5d29187bd96c80001769ec41","6617fad957f7c6a12ea16e26","6622cf1d4d5abfe7dafd4380","
    <div id=""grid-container"">
        <!-- Grid items will be dynamically added here -->
    </div>    ","null","","","","","","","","","","","",""
"","17101","html-keyboard-response","331","302103","0.0-14.0","DRgnFAZdEf","5d29187bd96c80001769ec41","6617fad957f7c6a12ea16e26","6622cf1d4d5abfe7dafd4380","break screen"," ","","","","","","","","","","","",""
"","null","html-keyboard-response","332","304624","0.0-15.0-0.0","DRgnFAZdEf","5d29187bd96c80001769ec41","6617fad957f7c6a12ea16e26","6622cf1d4d5abfe7dafd4380","fixation cross","null","","","","","","","","","","","",""
"","null","html-keyboard-response","333","305434","0.0-15.0-1.0","DRgnFAZdEf","5d29187bd96c80001769ec41","6617fad957f7c6a12ea16e26","6622cf1d4d5abfe7dafd4380","
        <div id=""grid-container"">
        <!-- Grid items will be dynamically added here -->
    </div>    ","null","","","","","","","","","","","",""
"","1268","html-keyboard-response","334","305903","0.0-15.0-2.0","DRgnFAZdEf","5d29187bd96c80001769ec41","6617fad957f7c6a12ea16e26","6622cf1d4d5abfe7dafd4380","mask grid","p","","","","","Ontogenetic_Distractor_Nonthreat_target","onmask","800","p","7","Ontogenetic","true","experimental"
"","null","html-keyboard-response","335","306627","0.0-15.0-0.1","DRgnFAZdEf","5d29187bd96c80001769ec41","6617fad957f7c6a12ea16e26","6622cf1d4d5abfe7dafd4380","fixation cross","null","","","","","","","","","","","",""
"","643","html-keyboard-response","336","307272","0.0-15.0-1.1","DRgnFAZdEf","5d29187bd96c80001769ec41","6617fad957f7c6a12ea16e26","6622cf1d4d5abfe7dafd4380","image grid","q","","","","","Ontogenetic_Distractor_Threat_target","ongrid","800","q","3","Ontogenetic","true","experimental"
"","null","html-keyboard-response","337","307435","0.0-15.0-2.1","DRgnFAZdEf","5d29187bd96c80001769ec41","6617fad957f7c6a12ea16e26","6622cf1d4d5abfe7dafd4380","
    <div id=""grid-container"">
        <!-- Grid items will be dynamically added here -->
    </div>    ","null","","","","","","","","","","","",""
"","null","html-keyboard-response","338","308150","0.0-15.0-0.2","DRgnFAZdEf","5d29187bd96c80001769ec41","6617fad957f7c6a12ea16e26","6622cf1d4d5abfe7dafd4380","fixation cross","null","","","","","","","","","","","",""
"","593","html-keyboard-response","339","308743","0.0-15.0-1.2","DRgnFAZdEf","5d29187bd96c80001769ec41","6617fad957f7c6a12ea16e26","6622cf1d4d5abfe7dafd4380","image grid","q","","","","","Ontogenetic_Distractor_Threat_target","ongrid","800","q","4","Ontogenetic","true","experimental"
"","null","html-keyboard-response","340","308898","0.0-15.0-2.2","DRgnFAZdEf","5d29187bd96c80001769ec41","6617fad957f7c6a12ea16e26","6622cf1d4d5abfe7dafd4380","
    <div id=""grid-container"">
        <!-- Grid items will be dynamically added here -->
    </div>    ","null","","","","","","","","","","","",""
"","null","html-keyboard-response","341","309610","0.0-15.0-0.3","DRgnFAZdEf","5d29187bd96c80001769ec41","6617fad957f7c6a12ea16e26","6622cf1d4d5abfe7dafd4380","fixation cross","null","","","","","","","","","","","",""
"","null","html-keyboard-response","342","310421","0.0-15.0-1.3","DRgnFAZdEf","5d29187bd96c80001769ec41","6617fad957f7c6a12ea16e26","6622cf1d4d5abfe7dafd4380","
        <div id=""grid-container"">
        <!-- Grid items will be dynamically added here -->
    </div>    ","null","","","","","","","","","","","",""
"","826","html-keyboard-response","343","310448","0.0-15.0-2.3","DRgnFAZdEf","5d29187bd96c80001769ec41","6617fad957f7c6a12ea16e26","6622cf1d4d5abfe7dafd4380","mask grid","p","","","","","Ontogenetic_Distractor_notarget","onmask","800"," ","7","Ontogenetic","false","experimental"
"","null","html-keyboard-response","344","311172","0.0-15.0-0.4","DRgnFAZdEf","5d29187bd96c80001769ec41","6617fad957f7c6a12ea16e26","6622cf1d4d5abfe7dafd4380","fixation cross","null","","","","","","","","","","","",""
"","706","html-keyboard-response","345","311879","0.0-15.0-1.4","DRgnFAZdEf","5d29187bd96c80001769ec41","6617fad957f7c6a12ea16e26","6622cf1d4d5abfe7dafd4380","image grid","p","","","","","Ontogenetic_Distractor_Nonthreat_target","ongrid","800","p","7","Ontogenetic","true","experimental"
"","null","html-keyboard-response","346","312042","0.0-15.0-2.4","DRgnFAZdEf","5d29187bd96c80001769ec41","6617fad957f7c6a12ea16e26","6622cf1d4d5abfe7dafd4380","
    <div id=""grid-container"">
        <!-- Grid items will be dynamically added here -->
    </div>    ","null","","","","","","","","","","","",""
"","null","html-keyboard-response","347","312748","0.0-15.0-0.5","DRgnFAZdEf","5d29187bd96c80001769ec41","6617fad957f7c6a12ea16e26","6622cf1d4d5abfe7dafd4380","fixation cross","null","","","","","","","","","","","",""
"","null","html-keyboard-response","348","313554","0.0-15.0-1.5","DRgnFAZdEf","5d29187bd96c80001769ec41","6617fad957f7c6a12ea16e26","6622cf1d4d5abfe7dafd4380","
        <div id=""grid-container"">
        <!-- Grid items will be dynamically added here -->
    </div>    ","null","","","","","","","","","","","",""
"","818","html-keyboard-response","349","313573","0.0-15.0-2.5","DRgnFAZdEf","5d29187bd96c80001769ec41","6617fad957f7c6a12ea16e26","6622cf1d4d5abfe7dafd4380","mask grid"," ","","","","","Ontogenetic_Distractor_Nonthreat_target","onmask","800","p","5","Ontogenetic","false","experimental"
"","null","html-keyboard-response","350","314299","0.0-15.0-0.6","DRgnFAZdEf","5d29187bd96c80001769ec41","6617fad957f7c6a12ea16e26","6622cf1d4d5abfe7dafd4380","fixation cross","null","","","","","","","","","","","",""
"","508","html-keyboard-response","351","314808","0.0-15.0-1.6","DRgnFAZdEf","5d29187bd96c80001769ec41","6617fad957f7c6a12ea16e26","6622cf1d4d5abfe7dafd4380","image grid","q","","","","","Ontogenetic_Distractor_Threat_target","ongrid","800","q","2","Ontogenetic","true","experimental"
"","null","html-keyboard-response","352","314966","0.0-15.0-2.6","DRgnFAZdEf","5d29187bd96c80001769ec41","6617fad957f7c6a12ea16e26","6622cf1d4d5abfe7dafd4380","
    <div id=""grid-container"">
        <!-- Grid items will be dynamically added here -->
    </div>    ","null","","","","","","","","","","","",""
"","null","html-keyboard-response","353","315670","0.0-15.0-0.7","DRgnFAZdEf","5d29187bd96c80001769ec41","6617fad957f7c6a12ea16e26","6622cf1d4d5abfe7dafd4380","fixation cross","null","","","","","","","","","","","",""
"","560","html-keyboard-response","354","316231","0.0-15.0-1.7","DRgnFAZdEf","5d29187bd96c80001769ec41","6617fad957f7c6a12ea16e26","6622cf1d4d5abfe7dafd4380","image grid","q","","","","","Ontogenetic_Distractor_Threat_target","ongrid","800","q","5","Ontogenetic","true","experimental"
"","null","html-keyboard-response","355","316392","0.0-15.0-2.7","DRgnFAZdEf","5d29187bd96c80001769ec41","6617fad957f7c6a12ea16e26","6622cf1d4d5abfe7dafd4380","
    <div id=""grid-container"">
        <!-- Grid items will be dynamically added here -->
    </div>    ","null","","","","","","","","","","","",""
"","null","html-keyboard-response","356","317124","0.0-15.0-0.8","DRgnFAZdEf","5d29187bd96c80001769ec41","6617fad957f7c6a12ea16e26","6622cf1d4d5abfe7dafd4380","fixation cross","null","","","","","","","","","","","",""
"","null","html-keyboard-response","357","317935","0.0-15.0-1.8","DRgnFAZdEf","5d29187bd96c80001769ec41","6617fad957f7c6a12ea16e26","6622cf1d4d5abfe7dafd4380","
        <div id=""grid-container"">
        <!-- Grid items will be dynamically added here -->
    </div>    ","null","","","","","","","","","","","",""
"","831","html-keyboard-response","358","317967","0.0-15.0-2.8","DRgnFAZdEf","5d29187bd96c80001769ec41","6617fad957f7c6a12ea16e26","6622cf1d4d5abfe7dafd4380","mask grid","q","","","","","Ontogenetic_Distractor_Threat_target","onmask","800","q","7","Ontogenetic","true","experimental"
"","null","html-keyboard-response","359","318683","0.0-15.0-0.9","DRgnFAZdEf","5d29187bd96c80001769ec41","6617fad957f7c6a12ea16e26","6622cf1d4d5abfe7dafd4380","fixation cross","null","","","","","","","","","","","",""
"","636","html-keyboard-response","360","319319","0.0-15.0-1.9","DRgnFAZdEf","5d29187bd96c80001769ec41","6617fad957f7c6a12ea16e26","6622cf1d4d5abfe7dafd4380","image grid","p","","","","","Ontogenetic_Distractor_Nonthreat_target","ongrid","800","p","1","Ontogenetic","true","experimental"
"","null","html-keyboard-response","361","319475","0.0-15.0-2.9","DRgnFAZdEf","5d29187bd96c80001769ec41","6617fad957f7c6a12ea16e26","6622cf1d4d5abfe7dafd4380","
    <div id=""grid-container"">
        <!-- Grid items will be dynamically added here -->
    </div>    ","null","","","","","","","","","","","",""
"","null","html-keyboard-response","362","320192","0.0-15.0-0.10","DRgnFAZdEf","5d29187bd96c80001769ec41","6617fad957f7c6a12ea16e26","6622cf1d4d5abfe7dafd4380","fixation cross","null","","","","","","","","","","","",""
"","590","html-keyboard-response","363","320783","0.0-15.0-1.10","DRgnFAZdEf","5d29187bd96c80001769ec41","6617fad957f7c6a12ea16e26","6622cf1d4d5abfe7dafd4380","image grid","p","","","","","Ontogenetic_Distractor_Nonthreat_target","ongrid","800","p","3","Ontogenetic","true","experimental"
"","null","html-keyboard-response","364","320937","0.0-15.0-2.10","DRgnFAZdEf","5d29187bd96c80001769ec41","6617fad957f7c6a12ea16e26","6622cf1d4d5abfe7dafd4380","
    <div id=""grid-container"">
        <!-- Grid items will be dynamically added here -->
    </div>    ","null","","","","","","","","","","","",""
"","null","html-keyboard-response","365","321653","0.0-15.0-0.11","DRgnFAZdEf","5d29187bd96c80001769ec41","6617fad957f7c6a12ea16e26","6622cf1d4d5abfe7dafd4380","fixation cross","null","","","","","","","","","","","",""
"","728","html-keyboard-response","366","322384","0.0-15.0-1.11","DRgnFAZdEf","5d29187bd96c80001769ec41","6617fad957f7c6a12ea16e26","6622cf1d4d5abfe7dafd4380","image grid","q","","","","","Ontogenetic_Distractor_Threat_target","ongrid","800","q","6","Ontogenetic","true","experimental"
"","null","html-keyboard-response","367","322543","0.0-15.0-2.11","DRgnFAZdEf","5d29187bd96c80001769ec41","6617fad957f7c6a12ea16e26","6622cf1d4d5abfe7dafd4380","
    <div id=""grid-container"">
        <!-- Grid items will be dynamically added here -->
    </div>    ","null","","","","","","","","","","","",""
"","null","html-keyboard-response","368","323250","0.0-15.0-0.12","DRgnFAZdEf","5d29187bd96c80001769ec41","6617fad957f7c6a12ea16e26","6622cf1d4d5abfe7dafd4380","fixation cross","null","","","","","","","","","","","",""
"","null","html-keyboard-response","369","324060","0.0-15.0-1.12","DRgnFAZdEf","5d29187bd96c80001769ec41","6617fad957f7c6a12ea16e26","6622cf1d4d5abfe7dafd4380","
        <div id=""grid-container"">
        <!-- Grid items will be dynamically added here -->
    </div>    ","null","","","","","","","","","","","",""
