"success","rt","trial_type","trial_index","time_elapsed","internal_node_id","unique_identifier","subject_id","study_id","session_id","stimulus","response","timeout","failed_images","failed_audio","failed_video","task","time_manipulation","respondedwhen","correctresponse","targetimagelocation","blocktype","correct","roundtype"
"true","78594","fullscreen","0","79602","0.0-0.0","2A6sp3Bz26","5f920aa80a785011ef6906e3","6617fad957f7c6a12ea16e26","6622cd7ab7da879c41de457e","","","","","","","","","","","","","",""
"","10143","html-keyboard-response","1","89754","0.0-1.0","2A6sp3Bz26","5f920aa80a785011ef6906e3","6617fad957f7c6a12ea16e26","6622cd7ab7da879c41de457e","instruction screen 0"," ","","","","","","","","","","","",""
"true","","preload","2","137656","0.0-2.0","2A6sp3Bz26","5f920aa80a785011ef6906e3","6617fad957f7c6a12ea16e26","6622cd7ab7da879c41de457e","","","false","[]","[]","[]","","","","","","","",""
"","15046","html-keyboard-response","3","152706","0.0-3.0","2A6sp3Bz26","5f920aa80a785011ef6906e3","6617fad957f7c6a12ea16e26","6622cd7ab7da879c41de457e","instruction screen 1"," ","","","","","","","","","","","",""
"","8783","html-keyboard-response","4","161550","0.0-4.0","2A6sp3Bz26","5f920aa80a785011ef6906e3","6617fad957f7c6a12ea16e26","6622cd7ab7da879c41de457e","instruction screen 2","q","","","","","","","","","","","",""
"","3703","html-keyboard-response","5","165325","0.0-5.0","2A6sp3Bz26","5f920aa80a785011ef6906e3","6617fad957f7c6a12ea16e26","6622cd7ab7da879c41de457e","instruction screen 3","p","","","","","","","","","","","",""
"","6444","html-keyboard-response","6","171836","0.0-6.0","2A6sp3Bz26","5f920aa80a785011ef6906e3","6617fad957f7c6a12ea16e26","6622cd7ab7da879c41de457e","instruction screen 4"," ","","","","","","","","","","","",""
"","21993","html-keyboard-response","7","193896","0.0-7.0","2A6sp3Bz26","5f920aa80a785011ef6906e3","6617fad957f7c6a12ea16e26","6622cd7ab7da879c41de457e","instruction screen 5"," ","","","","","","","","","","","",""
"","null","html-keyboard-response","8","194469","0.0-8.0","2A6sp3Bz26","5f920aa80a785011ef6906e3","6617fad957f7c6a12ea16e26","6622cd7ab7da879c41de457e","fixation cross","null","","","","","","","","","","","",""
"","null","html-keyboard-response","9","194971","0.0-9.0-0.0","2A6sp3Bz26","5f920aa80a785011ef6906e3","6617fad957f7c6a12ea16e26","6622cd7ab7da879c41de457e","fixation cross","null","","","","","","","","","","","",""
"","1072","html-keyboard-response","10","196046","0.0-9.0-1.0","2A6sp3Bz26","5f920aa80a785011ef6906e3","6617fad957f7c6a12ea16e26","6622cd7ab7da879c41de457e","image grid","q","","","","","Phylogenetic_Distractor_Threat_target","3000","ongrid","q","2","Ontogenetic","true","practice"
"","null","html-keyboard-response","11","196200","0.0-9.0-2.0","2A6sp3Bz26","5f920aa80a785011ef6906e3","6617fad957f7c6a12ea16e26","6622cd7ab7da879c41de457e","
    <div id=""grid-container"">
        <!-- Grid items will be dynamically added here -->
    </div>    ","null","","","","","","","","","","","",""
"","null","html-keyboard-response","12","197406","0.0-9.0-3.0","2A6sp3Bz26","5f920aa80a785011ef6906e3","6617fad957f7c6a12ea16e26","6622cd7ab7da879c41de457e","feedback screen","null","","","","","","","","","","","",""
"","null","html-keyboard-response","13","197917","0.0-9.0-0.1","2A6sp3Bz26","5f920aa80a785011ef6906e3","6617fad957f7c6a12ea16e26","6622cd7ab7da879c41de457e","fixation cross","null","","","","","","","","","","","",""
"","847","html-keyboard-response","14","198766","0.0-9.0-1.1","2A6sp3Bz26","5f920aa80a785011ef6906e3","6617fad957f7c6a12ea16e26","6622cd7ab7da879c41de457e","image grid","p","","","","","Phylogenetic_Distractor_Nonthreat_target","2900","ongrid","p","1","Ontogenetic","true","practice"
"","null","html-keyboard-response","15","198919","0.0-9.0-2.1","2A6sp3Bz26","5f920aa80a785011ef6906e3","6617fad957f7c6a12ea16e26","6622cd7ab7da879c41de457e","
    <div id=""grid-container"">
        <!-- Grid items will be dynamically added here -->
    </div>    ","null","","","","","","","","","","","",""
"","null","html-keyboard-response","16","200123","0.0-9.0-3.1","2A6sp3Bz26","5f920aa80a785011ef6906e3","6617fad957f7c6a12ea16e26","6622cd7ab7da879c41de457e","feedback screen","null","","","","","","","","","","","",""
"","null","html-keyboard-response","17","200634","0.0-9.0-0.2","2A6sp3Bz26","5f920aa80a785011ef6906e3","6617fad957f7c6a12ea16e26","6622cd7ab7da879c41de457e","fixation cross","null","","","","","","","","","","","",""
"","671","html-keyboard-response","18","201307","0.0-9.0-1.2","2A6sp3Bz26","5f920aa80a785011ef6906e3","6617fad957f7c6a12ea16e26","6622cd7ab7da879c41de457e","image grid","q","","","","","Ontogenetic_Distractor_Threat_target","2800","ongrid","q","5","Ontogenetic","true","practice"
"","null","html-keyboard-response","19","201460","0.0-9.0-2.2","2A6sp3Bz26","5f920aa80a785011ef6906e3","6617fad957f7c6a12ea16e26","6622cd7ab7da879c41de457e","
    <div id=""grid-container"">
        <!-- Grid items will be dynamically added here -->
    </div>    ","null","","","","","","","","","","","",""
"","null","html-keyboard-response","20","202666","0.0-9.0-3.2","2A6sp3Bz26","5f920aa80a785011ef6906e3","6617fad957f7c6a12ea16e26","6622cd7ab7da879c41de457e","feedback screen","null","","","","","","","","","","","",""
"","null","html-keyboard-response","21","203177","0.0-9.0-0.3","2A6sp3Bz26","5f920aa80a785011ef6906e3","6617fad957f7c6a12ea16e26","6622cd7ab7da879c41de457e","fixation cross","null","","","","","","","","","","","",""
"","654","html-keyboard-response","22","203832","0.0-9.0-1.3","2A6sp3Bz26","5f920aa80a785011ef6906e3","6617fad957f7c6a12ea16e26","6622cd7ab7da879c41de457e","image grid","p","","","","","Ontogenetic_Distractor_Nonthreat_target","2700","ongrid","p","5","Ontogenetic","true","practice"
"","null","html-keyboard-response","23","203985","0.0-9.0-2.3","2A6sp3Bz26","5f920aa80a785011ef6906e3","6617fad957f7c6a12ea16e26","6622cd7ab7da879c41de457e","
    <div id=""grid-container"">
        <!-- Grid items will be dynamically added here -->
    </div>    ","null","","","","","","","","","","","",""
"","null","html-keyboard-response","24","205190","0.0-9.0-3.3","2A6sp3Bz26","5f920aa80a785011ef6906e3","6617fad957f7c6a12ea16e26","6622cd7ab7da879c41de457e","feedback screen","null","","","","","","","","","","","",""
"","null","html-keyboard-response","25","205700","0.0-9.0-0.4","2A6sp3Bz26","5f920aa80a785011ef6906e3","6617fad957f7c6a12ea16e26","6622cd7ab7da879c41de457e","fixation cross","null","","","","","","","","","","","",""
"","727","html-keyboard-response","26","206429","0.0-9.0-1.4","2A6sp3Bz26","5f920aa80a785011ef6906e3","6617fad957f7c6a12ea16e26","6622cd7ab7da879c41de457e","image grid","p","","","","","Phylogenetic_Distractor_notarget","2600","ongrid"," ","2","Ontogenetic","false","practice"
"","null","html-keyboard-response","27","206582","0.0-9.0-2.4","2A6sp3Bz26","5f920aa80a785011ef6906e3","6617fad957f7c6a12ea16e26","6622cd7ab7da879c41de457e","
    <div id=""grid-container"">
        <!-- Grid items will be dynamically added here -->
    </div>    ","null","","","","","","","","","","","",""
"","null","html-keyboard-response","28","207785","0.0-9.0-3.4","2A6sp3Bz26","5f920aa80a785011ef6906e3","6617fad957f7c6a12ea16e26","6622cd7ab7da879c41de457e","feedback screen","null","","","","","","","","","","","",""
"","null","html-keyboard-response","29","208296","0.0-9.0-0.5","2A6sp3Bz26","5f920aa80a785011ef6906e3","6617fad957f7c6a12ea16e26","6622cd7ab7da879c41de457e","fixation cross","null","","","","","","","","","","","",""
"","818","html-keyboard-response","30","209116","0.0-9.0-1.5","2A6sp3Bz26","5f920aa80a785011ef6906e3","6617fad957f7c6a12ea16e26","6622cd7ab7da879c41de457e","image grid","p","","","","","Ontogenetic_Distractor_notarget","2500","ongrid"," ","4","Ontogenetic","false","practice"
"","null","html-keyboard-response","31","209269","0.0-9.0-2.5","2A6sp3Bz26","5f920aa80a785011ef6906e3","6617fad957f7c6a12ea16e26","6622cd7ab7da879c41de457e","
    <div id=""grid-container"">
        <!-- Grid items will be dynamically added here -->
    </div>    ","null","","","","","","","","","","","",""
"","null","html-keyboard-response","32","210474","0.0-9.0-3.5","2A6sp3Bz26","5f920aa80a785011ef6906e3","6617fad957f7c6a12ea16e26","6622cd7ab7da879c41de457e","feedback screen","null","","","","","","","","","","","",""
"","null","html-keyboard-response","33","210985","0.0-9.0-0.6","2A6sp3Bz26","5f920aa80a785011ef6906e3","6617fad957f7c6a12ea16e26","6622cd7ab7da879c41de457e","fixation cross","null","","","","","","","","","","","",""
"","1472","html-keyboard-response","34","212458","0.0-9.0-1.6","2A6sp3Bz26","5f920aa80a785011ef6906e3","6617fad957f7c6a12ea16e26","6622cd7ab7da879c41de457e","image grid","p","","","","","Phylogenetic_Distractor_notarget","2400","ongrid"," ","7","Ontogenetic","false","practice"
"","null","html-keyboard-response","35","212611","0.0-9.0-2.6","2A6sp3Bz26","5f920aa80a785011ef6906e3","6617fad957f7c6a12ea16e26","6622cd7ab7da879c41de457e","
    <div id=""grid-container"">
        <!-- Grid items will be dynamically added here -->
    </div>    ","null","","","","","","","","","","","",""
"","null","html-keyboard-response","36","213815","0.0-9.0-3.6","2A6sp3Bz26","5f920aa80a785011ef6906e3","6617fad957f7c6a12ea16e26","6622cd7ab7da879c41de457e","feedback screen","null","","","","","","","","","","","",""
"","null","html-keyboard-response","37","214321","0.0-9.0-0.7","2A6sp3Bz26","5f920aa80a785011ef6906e3","6617fad957f7c6a12ea16e26","6622cd7ab7da879c41de457e","fixation cross","null","","","","","","","","","","","",""
"","1162","html-keyboard-response","38","215484","0.0-9.0-1.7","2A6sp3Bz26","5f920aa80a785011ef6906e3","6617fad957f7c6a12ea16e26","6622cd7ab7da879c41de457e","image grid","q","","","","","Ontogenetic_Distractor_Threat_target","2300","ongrid","q","7","Ontogenetic","true","practice"
"","null","html-keyboard-response","39","215637","0.0-9.0-2.7","2A6sp3Bz26","5f920aa80a785011ef6906e3","6617fad957f7c6a12ea16e26","6622cd7ab7da879c41de457e","
    <div id=""grid-container"">
        <!-- Grid items will be dynamically added here -->
    </div>    ","null","","","","","","","","","","","",""
"","null","html-keyboard-response","40","216842","0.0-9.0-3.7","2A6sp3Bz26","5f920aa80a785011ef6906e3","6617fad957f7c6a12ea16e26","6622cd7ab7da879c41de457e","feedback screen","null","","","","","","","","","","","",""
"","null","html-keyboard-response","41","217352","0.0-9.0-0.8","2A6sp3Bz26","5f920aa80a785011ef6906e3","6617fad957f7c6a12ea16e26","6622cd7ab7da879c41de457e","fixation cross","null","","","","","","","","","","","",""
"","1301","html-keyboard-response","42","218655","0.0-9.0-1.8","2A6sp3Bz26","5f920aa80a785011ef6906e3","6617fad957f7c6a12ea16e26","6622cd7ab7da879c41de457e","image grid","q","","","","","Ontogenetic_Distractor_notarget","2200","ongrid"," ","3","Ontogenetic","false","practice"
"","null","html-keyboard-response","43","218808","0.0-9.0-2.8","2A6sp3Bz26","5f920aa80a785011ef6906e3","6617fad957f7c6a12ea16e26","6622cd7ab7da879c41de457e","
    <div id=""grid-container"">
        <!-- Grid items will be dynamically added here -->
    </div>    ","null","","","","","","","","","","","",""
"","null","html-keyboard-response","44","220013","0.0-9.0-3.8","2A6sp3Bz26","5f920aa80a785011ef6906e3","6617fad957f7c6a12ea16e26","6622cd7ab7da879c41de457e","feedback screen","null","","","","","","","","","","","",""
"","null","html-keyboard-response","45","220523","0.0-9.0-0.9","2A6sp3Bz26","5f920aa80a785011ef6906e3","6617fad957f7c6a12ea16e26","6622cd7ab7da879c41de457e","fixation cross","null","","","","","","","","","","","",""
"","1034","html-keyboard-response","46","221559","0.0-9.0-1.9","2A6sp3Bz26","5f920aa80a785011ef6906e3","6617fad957f7c6a12ea16e26","6622cd7ab7da879c41de457e","image grid","p","","","","","Ontogenetic_Distractor_Nonthreat_target","2100","ongrid","p","7","Ontogenetic","true","practice"
"","null","html-keyboard-response","47","221712","0.0-9.0-2.9","2A6sp3Bz26","5f920aa80a785011ef6906e3","6617fad957f7c6a12ea16e26","6622cd7ab7da879c41de457e","
    <div id=""grid-container"">
        <!-- Grid items will be dynamically added here -->
    </div>    ","null","","","","","","","","","","","",""
"","null","html-keyboard-response","48","222916","0.0-9.0-3.9","2A6sp3Bz26","5f920aa80a785011ef6906e3","6617fad957f7c6a12ea16e26","6622cd7ab7da879c41de457e","feedback screen","null","","","","","","","","","","","",""
"","null","html-keyboard-response","49","223426","0.0-9.0-0.10","2A6sp3Bz26","5f920aa80a785011ef6906e3","6617fad957f7c6a12ea16e26","6622cd7ab7da879c41de457e","fixation cross","null","","","","","","","","","","","",""
"","1587","html-keyboard-response","50","225015","0.0-9.0-1.10","2A6sp3Bz26","5f920aa80a785011ef6906e3","6617fad957f7c6a12ea16e26","6622cd7ab7da879c41de457e","image grid","p","","","","","Phylogenetic_Distractor_Nonthreat_target","2000","ongrid","p","8","Ontogenetic","true","practice"
"","null","html-keyboard-response","51","225168","0.0-9.0-2.10","2A6sp3Bz26","5f920aa80a785011ef6906e3","6617fad957f7c6a12ea16e26","6622cd7ab7da879c41de457e","
    <div id=""grid-container"">
        <!-- Grid items will be dynamically added here -->
    </div>    ","null","","","","","","","","","","","",""
"","null","html-keyboard-response","52","226373","0.0-9.0-3.10","2A6sp3Bz26","5f920aa80a785011ef6906e3","6617fad957f7c6a12ea16e26","6622cd7ab7da879c41de457e","feedback screen","null","","","","","","","","","","","",""
"","null","html-keyboard-response","53","226883","0.0-9.0-0.11","2A6sp3Bz26","5f920aa80a785011ef6906e3","6617fad957f7c6a12ea16e26","6622cd7ab7da879c41de457e","fixation cross","null","","","","","","","","","","","",""
"","789","html-keyboard-response","54","227674","0.0-9.0-1.11","2A6sp3Bz26","5f920aa80a785011ef6906e3","6617fad957f7c6a12ea16e26","6622cd7ab7da879c41de457e","image grid","p","","","","","Ontogenetic_Distractor_Nonthreat_target","1900","ongrid","p","6","Ontogenetic","true","practice"
"","null","html-keyboard-response","55","227827","0.0-9.0-2.11","2A6sp3Bz26","5f920aa80a785011ef6906e3","6617fad957f7c6a12ea16e26","6622cd7ab7da879c41de457e","
    <div id=""grid-container"">
        <!-- Grid items will be dynamically added here -->
    </div>    ","null","","","","","","","","","","","",""
"","null","html-keyboard-response","56","229031","0.0-9.0-3.11","2A6sp3Bz26","5f920aa80a785011ef6906e3","6617fad957f7c6a12ea16e26","6622cd7ab7da879c41de457e","feedback screen","null","","","","","","","","","","","",""
"","null","html-keyboard-response","57","229541","0.0-9.0-0.12","2A6sp3Bz26","5f920aa80a785011ef6906e3","6617fad957f7c6a12ea16e26","6622cd7ab7da879c41de457e","fixation cross","null","","","","","","","","","","","",""
"","958","html-keyboard-response","58","230500","0.0-9.0-1.12","2A6sp3Bz26","5f920aa80a785011ef6906e3","6617fad957f7c6a12ea16e26","6622cd7ab7da879c41de457e","image grid","p","","","","","Phylogenetic_Distractor_Nonthreat_target","1800","ongrid","p","4","Ontogenetic","true","practice"
"","null","html-keyboard-response","59","230653","0.0-9.0-2.12","2A6sp3Bz26","5f920aa80a785011ef6906e3","6617fad957f7c6a12ea16e26","6622cd7ab7da879c41de457e","
    <div id=""grid-container"">
        <!-- Grid items will be dynamically added here -->
    </div>    ","null","","","","","","","","","","","",""
"","null","html-keyboard-response","60","231857","0.0-9.0-3.12","2A6sp3Bz26","5f920aa80a785011ef6906e3","6617fad957f7c6a12ea16e26","6622cd7ab7da879c41de457e","feedback screen","null","","","","","","","","","","","",""
"","null","html-keyboard-response","61","232367","0.0-9.0-0.13","2A6sp3Bz26","5f920aa80a785011ef6906e3","6617fad957f7c6a12ea16e26","6622cd7ab7da879c41de457e","fixation cross","null","","","","","","","","","","","",""
"","1342","html-keyboard-response","62","233711","0.0-9.0-1.13","2A6sp3Bz26","5f920aa80a785011ef6906e3","6617fad957f7c6a12ea16e26","6622cd7ab7da879c41de457e","image grid","p","","","","","Phylogenetic_Distractor_Threat_target","1700","ongrid","q","7","Ontogenetic","false","practice"
"","null","html-keyboard-response","63","233863","0.0-9.0-2.13","2A6sp3Bz26","5f920aa80a785011ef6906e3","6617fad957f7c6a12ea16e26","6622cd7ab7da879c41de457e","
    <div id=""grid-container"">
        <!-- Grid items will be dynamically added here -->
    </div>    ","null","","","","","","","","","","","",""
"","null","html-keyboard-response","64","235067","0.0-9.0-3.13","2A6sp3Bz26","5f920aa80a785011ef6906e3","6617fad957f7c6a12ea16e26","6622cd7ab7da879c41de457e","feedback screen","null","","","","","","","","","","","",""
"","null","html-keyboard-response","65","235577","0.0-9.0-0.14","2A6sp3Bz26","5f920aa80a785011ef6906e3","6617fad957f7c6a12ea16e26","6622cd7ab7da879c41de457e","fixation cross","null","","","","","","","","","","","",""
"","836","html-keyboard-response","66","236415","0.0-9.0-1.14","2A6sp3Bz26","5f920aa80a785011ef6906e3","6617fad957f7c6a12ea16e26","6622cd7ab7da879c41de457e","image grid","q","","","","","Phylogenetic_Distractor_Threat_target","1600","ongrid","q","3","Ontogenetic","true","practice"
"","null","html-keyboard-response","67","236568","0.0-9.0-2.14","2A6sp3Bz26","5f920aa80a785011ef6906e3","6617fad957f7c6a12ea16e26","6622cd7ab7da879c41de457e","
    <div id=""grid-container"">
        <!-- Grid items will be dynamically added here -->
    </div>    ","null","","","","","","","","","","","",""
"","null","html-keyboard-response","68","237772","0.0-9.0-3.14","2A6sp3Bz26","5f920aa80a785011ef6906e3","6617fad957f7c6a12ea16e26","6622cd7ab7da879c41de457e","feedback screen","null","","","","","","","","","","","",""
"","null","html-keyboard-response","69","238282","0.0-9.0-0.15","2A6sp3Bz26","5f920aa80a785011ef6906e3","6617fad957f7c6a12ea16e26","6622cd7ab7da879c41de457e","fixation cross","null","","","","","","","","","","","",""
"","627","html-keyboard-response","70","238911","0.0-9.0-1.15","2A6sp3Bz26","5f920aa80a785011ef6906e3","6617fad957f7c6a12ea16e26","6622cd7ab7da879c41de457e","image grid","q","","","","","Ontogenetic_Distractor_Threat_target","1500","ongrid","q","5","Ontogenetic","true","practice"
"","null","html-keyboard-response","71","239064","0.0-9.0-2.15","2A6sp3Bz26","5f920aa80a785011ef6906e3","6617fad957f7c6a12ea16e26","6622cd7ab7da879c41de457e","
    <div id=""grid-container"">
        <!-- Grid items will be dynamically added here -->
    </div>    ","null","","","","","","","","","","","",""
"","null","html-keyboard-response","72","240268","0.0-9.0-3.15","2A6sp3Bz26","5f920aa80a785011ef6906e3","6617fad957f7c6a12ea16e26","6622cd7ab7da879c41de457e","feedback screen","null","","","","","","","","","","","",""
"","null","html-keyboard-response","73","240779","0.0-9.0-0.16","2A6sp3Bz26","5f920aa80a785011ef6906e3","6617fad957f7c6a12ea16e26","6622cd7ab7da879c41de457e","fixation cross","null","","","","","","","","","","","",""
"","663","html-keyboard-response","74","241444","0.0-9.0-1.16","2A6sp3Bz26","5f920aa80a785011ef6906e3","6617fad957f7c6a12ea16e26","6622cd7ab7da879c41de457e","image grid","p","","","","","Ontogenetic_Distractor_Nonthreat_target","1400","ongrid","p","5","Ontogenetic","true","practice"
"","null","html-keyboard-response","75","241596","0.0-9.0-2.16","2A6sp3Bz26","5f920aa80a785011ef6906e3","6617fad957f7c6a12ea16e26","6622cd7ab7da879c41de457e","
    <div id=""grid-container"">
        <!-- Grid items will be dynamically added here -->
    </div>    ","null","","","","","","","","","","","",""
"","null","html-keyboard-response","76","242800","0.0-9.0-3.16","2A6sp3Bz26","5f920aa80a785011ef6906e3","6617fad957f7c6a12ea16e26","6622cd7ab7da879c41de457e","feedback screen","null","","","","","","","","","","","",""
"","null","html-keyboard-response","77","243311","0.0-9.0-0.17","2A6sp3Bz26","5f920aa80a785011ef6906e3","6617fad957f7c6a12ea16e26","6622cd7ab7da879c41de457e","fixation cross","null","","","","","","","","","","","",""
"","972","html-keyboard-response","78","244285","0.0-9.0-1.17","2A6sp3Bz26","5f920aa80a785011ef6906e3","6617fad957f7c6a12ea16e26","6622cd7ab7da879c41de457e","image grid","p","","","","","Phylogenetic_Distractor_Nonthreat_target","1300","ongrid","p","8","Ontogenetic","true","practice"
"","null","html-keyboard-response","79","244438","0.0-9.0-2.17","2A6sp3Bz26","5f920aa80a785011ef6906e3","6617fad957f7c6a12ea16e26","6622cd7ab7da879c41de457e","
    <div id=""grid-container"">
        <!-- Grid items will be dynamically added here -->
    </div>    ","null","","","","","","","","","","","",""
"","null","html-keyboard-response","80","245644","0.0-9.0-3.17","2A6sp3Bz26","5f920aa80a785011ef6906e3","6617fad957f7c6a12ea16e26","6622cd7ab7da879c41de457e","feedback screen","null","","","","","","","","","","","",""
"","null","html-keyboard-response","81","246154","0.0-9.0-0.18","2A6sp3Bz26","5f920aa80a785011ef6906e3","6617fad957f7c6a12ea16e26","6622cd7ab7da879c41de457e","fixation cross","null","","","","","","","","","","","",""
"","null","html-keyboard-response","82","247357","0.0-9.0-1.18","2A6sp3Bz26","5f920aa80a785011ef6906e3","6617fad957f7c6a12ea16e26","6622cd7ab7da879c41de457e","
        <div id=""grid-container"">
        <!-- Grid items will be dynamically added here -->
    </div>    ","null","","","","","","","","","","","",""
"","1328","html-keyboard-response","83","247486","0.0-9.0-2.18","2A6sp3Bz26","5f920aa80a785011ef6906e3","6617fad957f7c6a12ea16e26","6622cd7ab7da879c41de457e","mask grid","q","","","","","Ontogenetic_Distractor_Threat_target","1200","onmask","q","6","Ontogenetic","true","practice"
"","null","html-keyboard-response","84","248691","0.0-9.0-3.18","2A6sp3Bz26","5f920aa80a785011ef6906e3","6617fad957f7c6a12ea16e26","6622cd7ab7da879c41de457e","feedback screen","null","","","","","","","","","","","",""
"","null","html-keyboard-response","85","249201","0.0-9.0-0.19","2A6sp3Bz26","5f920aa80a785011ef6906e3","6617fad957f7c6a12ea16e26","6622cd7ab7da879c41de457e","fixation cross","null","","","","","","","","","","","",""
"","686","html-keyboard-response","86","249889","0.0-9.0-1.19","2A6sp3Bz26","5f920aa80a785011ef6906e3","6617fad957f7c6a12ea16e26","6622cd7ab7da879c41de457e","image grid","p","","","","","Phylogenetic_Distractor_Threat_target","1100","ongrid","q","5","Ontogenetic","false","practice"
"","null","html-keyboard-response","87","250042","0.0-9.0-2.19","2A6sp3Bz26","5f920aa80a785011ef6906e3","6617fad957f7c6a12ea16e26","6622cd7ab7da879c41de457e","
    <div id=""grid-container"">
        <!-- Grid items will be dynamically added here -->
    </div>    ","null","","","","","","","","","","","",""
"","null","html-keyboard-response","88","251246","0.0-9.0-3.19","2A6sp3Bz26","5f920aa80a785011ef6906e3","6617fad957f7c6a12ea16e26","6622cd7ab7da879c41de457e","feedback screen","null","","","","","","","","","","","",""
"","8058","html-keyboard-response","89","259394","0.0-10.0","2A6sp3Bz26","5f920aa80a785011ef6906e3","6617fad957f7c6a12ea16e26","6622cd7ab7da879c41de457e","pre-experimental_briefing"," ","","","","","","","","","","","",""
"","null","html-keyboard-response","90","261963","0.0-11.0-0.0","2A6sp3Bz26","5f920aa80a785011ef6906e3","6617fad957f7c6a12ea16e26","6622cd7ab7da879c41de457e","fixation cross","null","","","","","","","","","","","",""
"","1397","html-keyboard-response","91","263363","0.0-11.0-1.0","2A6sp3Bz26","5f920aa80a785011ef6906e3","6617fad957f7c6a12ea16e26","6622cd7ab7da879c41de457e","image grid","p","","","","","Ontogenetic_Distractor_Threat_target","2500","ongrid","q","9","Ontogenetic","false","experimental"
"","144","html-keyboard-response","92","263515","0.0-11.0-2.0","2A6sp3Bz26","5f920aa80a785011ef6906e3","6617fad957f7c6a12ea16e26","6622cd7ab7da879c41de457e","
    <div id=""grid-container"">
        <!-- Grid items will be dynamically added here -->
    </div>    ","q","","","","","","","","","","","",""
"","null","html-keyboard-response","93","264218","0.0-11.0-0.1","2A6sp3Bz26","5f920aa80a785011ef6906e3","6617fad957f7c6a12ea16e26","6622cd7ab7da879c41de457e","fixation cross","null","","","","","","","","","","","",""
"","1166","html-keyboard-response","94","265386","0.0-11.0-1.1","2A6sp3Bz26","5f920aa80a785011ef6906e3","6617fad957f7c6a12ea16e26","6622cd7ab7da879c41de457e","image grid","q","","","","","Ontogenetic_Distractor_Threat_target","2500","ongrid","q","2","Ontogenetic","true","experimental"
"","null","html-keyboard-response","95","265539","0.0-11.0-2.1","2A6sp3Bz26","5f920aa80a785011ef6906e3","6617fad957f7c6a12ea16e26","6622cd7ab7da879c41de457e","
    <div id=""grid-container"">
        <!-- Grid items will be dynamically added here -->
    </div>    ","null","","","","","","","","","","","",""
"","null","html-keyboard-response","96","266242","0.0-11.0-0.2","2A6sp3Bz26","5f920aa80a785011ef6906e3","6617fad957f7c6a12ea16e26","6622cd7ab7da879c41de457e","fixation cross","null","","","","","","","","","","","",""
"","1799","html-keyboard-response","97","268043","0.0-11.0-1.2","2A6sp3Bz26","5f920aa80a785011ef6906e3","6617fad957f7c6a12ea16e26","6622cd7ab7da879c41de457e","image grid","p","","","","","Ontogenetic_Distractor_Threat_target","2500","ongrid","q","5","Ontogenetic","false","experimental"
"","null","html-keyboard-response","98","268196","0.0-11.0-2.2","2A6sp3Bz26","5f920aa80a785011ef6906e3","6617fad957f7c6a12ea16e26","6622cd7ab7da879c41de457e","
    <div id=""grid-container"">
        <!-- Grid items will be dynamically added here -->
    </div>    ","null","","","","","","","","","","","",""
"","null","html-keyboard-response","99","268899","0.0-11.0-0.3","2A6sp3Bz26","5f920aa80a785011ef6906e3","6617fad957f7c6a12ea16e26","6622cd7ab7da879c41de457e","fixation cross","null","","","","","","","","","","","",""
"","1513","html-keyboard-response","100","270413","0.0-11.0-1.3","2A6sp3Bz26","5f920aa80a785011ef6906e3","6617fad957f7c6a12ea16e26","6622cd7ab7da879c41de457e","image grid","p","","","","","Ontogenetic_Distractor_notarget","2500","ongrid"," ","2","Ontogenetic","false","experimental"
"","null","html-keyboard-response","101","270567","0.0-11.0-2.3","2A6sp3Bz26","5f920aa80a785011ef6906e3","6617fad957f7c6a12ea16e26","6622cd7ab7da879c41de457e","
    <div id=""grid-container"">
        <!-- Grid items will be dynamically added here -->
    </div>    ","null","","","","","","","","","","","",""
"","null","html-keyboard-response","102","271270","0.0-11.0-0.4","2A6sp3Bz26","5f920aa80a785011ef6906e3","6617fad957f7c6a12ea16e26","6622cd7ab7da879c41de457e","fixation cross","null","","","","","","","","","","","",""
"","1277","html-keyboard-response","103","272549","0.0-11.0-1.4","2A6sp3Bz26","5f920aa80a785011ef6906e3","6617fad957f7c6a12ea16e26","6622cd7ab7da879c41de457e","image grid","q","","","","","Ontogenetic_Distractor_Threat_target","2500","ongrid","q","4","Ontogenetic","true","experimental"
"","null","html-keyboard-response","104","272702","0.0-11.0-2.4","2A6sp3Bz26","5f920aa80a785011ef6906e3","6617fad957f7c6a12ea16e26","6622cd7ab7da879c41de457e","
    <div id=""grid-container"">
        <!-- Grid items will be dynamically added here -->
    </div>    ","null","","","","","","","","","","","",""
"","null","html-keyboard-response","105","273405","0.0-11.0-0.5","2A6sp3Bz26","5f920aa80a785011ef6906e3","6617fad957f7c6a12ea16e26","6622cd7ab7da879c41de457e","fixation cross","null","","","","","","","","","","","",""
"","1496","html-keyboard-response","106","274903","0.0-11.0-1.5","2A6sp3Bz26","5f920aa80a785011ef6906e3","6617fad957f7c6a12ea16e26","6622cd7ab7da879c41de457e","image grid","p","","","","","Ontogenetic_Distractor_Nonthreat_target","2500","ongrid","p","6","Ontogenetic","true","experimental"
"","null","html-keyboard-response","107","275056","0.0-11.0-2.5","2A6sp3Bz26","5f920aa80a785011ef6906e3","6617fad957f7c6a12ea16e26","6622cd7ab7da879c41de457e","
    <div id=""grid-container"">
        <!-- Grid items will be dynamically added here -->
    </div>    ","null","","","","","","","","","","","",""
"","null","html-keyboard-response","108","275759","0.0-11.0-0.6","2A6sp3Bz26","5f920aa80a785011ef6906e3","6617fad957f7c6a12ea16e26","6622cd7ab7da879c41de457e","fixation cross","null","","","","","","","","","","","",""
"","859","html-keyboard-response","109","276619","0.0-11.0-1.6","2A6sp3Bz26","5f920aa80a785011ef6906e3","6617fad957f7c6a12ea16e26","6622cd7ab7da879c41de457e","image grid","q","","","","","Ontogenetic_Distractor_Threat_target","2500","ongrid","q","6","Ontogenetic","true","experimental"
"","null","html-keyboard-response","110","276773","0.0-11.0-2.6","2A6sp3Bz26","5f920aa80a785011ef6906e3","6617fad957f7c6a12ea16e26","6622cd7ab7da879c41de457e","
    <div id=""grid-container"">
        <!-- Grid items will be dynamically added here -->
    </div>    ","null","","","","","","","","","","","",""
"","null","html-keyboard-response","111","277475","0.0-11.0-0.7","2A6sp3Bz26","5f920aa80a785011ef6906e3","6617fad957f7c6a12ea16e26","6622cd7ab7da879c41de457e","fixation cross","null","","","","","","","","","","","",""
"","1635","html-keyboard-response","112","279112","0.0-11.0-1.7","2A6sp3Bz26","5f920aa80a785011ef6906e3","6617fad957f7c6a12ea16e26","6622cd7ab7da879c41de457e","image grid","q","","","","","Ontogenetic_Distractor_Threat_target","2500","ongrid","q","5","Ontogenetic","true","experimental"
"","null","html-keyboard-response","113","279266","0.0-11.0-2.7","2A6sp3Bz26","5f920aa80a785011ef6906e3","6617fad957f7c6a12ea16e26","6622cd7ab7da879c41de457e","
    <div id=""grid-container"">
        <!-- Grid items will be dynamically added here -->
    </div>    ","null","","","","","","","","","","","",""
"","null","html-keyboard-response","114","279968","0.0-11.0-0.8","2A6sp3Bz26","5f920aa80a785011ef6906e3","6617fad957f7c6a12ea16e26","6622cd7ab7da879c41de457e","fixation cross","null","","","","","","","","","","","",""
"","915","html-keyboard-response","115","280885","0.0-11.0-1.8","2A6sp3Bz26","5f920aa80a785011ef6906e3","6617fad957f7c6a12ea16e26","6622cd7ab7da879c41de457e","image grid","p","","","","","Ontogenetic_Distractor_Nonthreat_target","2500","ongrid","p","6","Ontogenetic","true","experimental"
"","null","html-keyboard-response","116","281038","0.0-11.0-2.8","2A6sp3Bz26","5f920aa80a785011ef6906e3","6617fad957f7c6a12ea16e26","6622cd7ab7da879c41de457e","
    <div id=""grid-container"">
        <!-- Grid items will be dynamically added here -->
    </div>    ","null","","","","","","","","","","","",""
"","null","html-keyboard-response","117","281741","0.0-11.0-0.9","2A6sp3Bz26","5f920aa80a785011ef6906e3","6617fad957f7c6a12ea16e26","6622cd7ab7da879c41de457e","fixation cross","null","","","","","","","","","","","",""
"","646","html-keyboard-response","118","282389","0.0-11.0-1.9","2A6sp3Bz26","5f920aa80a785011ef6906e3","6617fad957f7c6a12ea16e26","6622cd7ab7da879c41de457e","image grid","p","","","","","Ontogenetic_Distractor_Nonthreat_target","2500","ongrid","p","6","Ontogenetic","true","experimental"
"","null","html-keyboard-response","119","282542","0.0-11.0-2.9","2A6sp3Bz26","5f920aa80a785011ef6906e3","6617fad957f7c6a12ea16e26","6622cd7ab7da879c41de457e","
    <div id=""grid-container"">
        <!-- Grid items will be dynamically added here -->
    </div>    ","null","","","","","","","","","","","",""
"","null","html-keyboard-response","120","283245","0.0-11.0-0.10","2A6sp3Bz26","5f920aa80a785011ef6906e3","6617fad957f7c6a12ea16e26","6622cd7ab7da879c41de457e","fixation cross","null","","","","","","","","","","","",""
"","null","html-keyboard-response","121","285748","0.0-11.0-1.10","2A6sp3Bz26","5f920aa80a785011ef6906e3","6617fad957f7c6a12ea16e26","6622cd7ab7da879c41de457e","
        <div id=""grid-container"">
        <!-- Grid items will be dynamically added here -->
    </div>    ","null","","","","","","","","","","","",""
"","2686","html-keyboard-response","122","285936","0.0-11.0-2.10","2A6sp3Bz26","5f920aa80a785011ef6906e3","6617fad957f7c6a12ea16e26","6622cd7ab7da879c41de457e","mask grid","q","","","","","Ontogenetic_Distractor_Threat_target","2500","onmask","q","8","Ontogenetic","true","experimental"
"","null","html-keyboard-response","123","286639","0.0-11.0-0.11","2A6sp3Bz26","5f920aa80a785011ef6906e3","6617fad957f7c6a12ea16e26","6622cd7ab7da879c41de457e","fixation cross","null","","","","","","","","","","","",""
"","787","html-keyboard-response","124","287428","0.0-11.0-1.11","2A6sp3Bz26","5f920aa80a785011ef6906e3","6617fad957f7c6a12ea16e26","6622cd7ab7da879c41de457e","image grid","p","","","","","Ontogenetic_Distractor_Nonthreat_target","2500","ongrid","p","5","Ontogenetic","true","experimental"
"","null","html-keyboard-response","125","287581","0.0-11.0-2.11","2A6sp3Bz26","5f920aa80a785011ef6906e3","6617fad957f7c6a12ea16e26","6622cd7ab7da879c41de457e","
    <div id=""grid-container"">
        <!-- Grid items will be dynamically added here -->
    </div>    ","null","","","","","","","","","","","",""
"","null","html-keyboard-response","126","288285","0.0-11.0-0.12","2A6sp3Bz26","5f920aa80a785011ef6906e3","6617fad957f7c6a12ea16e26","6622cd7ab7da879c41de457e","fixation cross","null","","","","","","","","","","","",""
"","593","html-keyboard-response","127","288879","0.0-11.0-1.12","2A6sp3Bz26","5f920aa80a785011ef6906e3","6617fad957f7c6a12ea16e26","6622cd7ab7da879c41de457e","image grid","q","","","","","Ontogenetic_Distractor_Threat_target","2500","ongrid","q","3","Ontogenetic","true","experimental"
"","null","html-keyboard-response","128","289033","0.0-11.0-2.12","2A6sp3Bz26","5f920aa80a785011ef6906e3","6617fad957f7c6a12ea16e26","6622cd7ab7da879c41de457e","
    <div id=""grid-container"">
        <!-- Grid items will be dynamically added here -->
    </div>    ","null","","","","","","","","","","","",""
"","null","html-keyboard-response","129","289735","0.0-11.0-0.13","2A6sp3Bz26","5f920aa80a785011ef6906e3","6617fad957f7c6a12ea16e26","6622cd7ab7da879c41de457e","fixation cross","null","","","","","","","","","","","",""
"","1391","html-keyboard-response","130","291129","0.0-11.0-1.13","2A6sp3Bz26","5f920aa80a785011ef6906e3","6617fad957f7c6a12ea16e26","6622cd7ab7da879c41de457e","image grid","p","","","","","Ontogenetic_Distractor_Nonthreat_target","2500","ongrid","p","2","Ontogenetic","true","experimental"
"","null","html-keyboard-response","131","291283","0.0-11.0-2.13","2A6sp3Bz26","5f920aa80a785011ef6906e3","6617fad957f7c6a12ea16e26","6622cd7ab7da879c41de457e","
    <div id=""grid-container"">
        <!-- Grid items will be dynamically added here -->
    </div>    ","null","","","","","","","","","","","",""
"","null","html-keyboard-response","132","291987","0.0-11.0-0.14","2A6sp3Bz26","5f920aa80a785011ef6906e3","6617fad957f7c6a12ea16e26","6622cd7ab7da879c41de457e","fixation cross","null","","","","","","","","","","","",""
"","757","html-keyboard-response","133","292746","0.0-11.0-1.14","2A6sp3Bz26","5f920aa80a785011ef6906e3","6617fad957f7c6a12ea16e26","6622cd7ab7da879c41de457e","image grid","p","","","","","Ontogenetic_Distractor_Nonthreat_target","2500","ongrid","p","5","Ontogenetic","true","experimental"
"","null","html-keyboard-response","134","292899","0.0-11.0-2.14","2A6sp3Bz26","5f920aa80a785011ef6906e3","6617fad957f7c6a12ea16e26","6622cd7ab7da879c41de457e","
    <div id=""grid-container"">
        <!-- Grid items will be dynamically added here -->
    </div>    ","null","","","","","","","","","","","",""
"","null","html-keyboard-response","135","293602","0.0-11.0-0.15","2A6sp3Bz26","5f920aa80a785011ef6906e3","6617fad957f7c6a12ea16e26","6622cd7ab7da879c41de457e","fixation cross","null","","","","","","","","","","","",""
"","663","html-keyboard-response","136","294267","0.0-11.0-1.15","2A6sp3Bz26","5f920aa80a785011ef6906e3","6617fad957f7c6a12ea16e26","6622cd7ab7da879c41de457e","image grid","p","","","","","Ontogenetic_Distractor_Nonthreat_target","2500","ongrid","p","2","Ontogenetic","true","experimental"
"","null","html-keyboard-response","137","294420","0.0-11.0-2.15","2A6sp3Bz26","5f920aa80a785011ef6906e3","6617fad957f7c6a12ea16e26","6622cd7ab7da879c41de457e","
    <div id=""grid-container"">
        <!-- Grid items will be dynamically added here -->
    </div>    ","null","","","","","","","","","","","",""
"","null","html-keyboard-response","138","295123","0.0-11.0-0.16","2A6sp3Bz26","5f920aa80a785011ef6906e3","6617fad957f7c6a12ea16e26","6622cd7ab7da879c41de457e","fixation cross","null","","","","","","","","","","","",""
"","693","html-keyboard-response","139","295818","0.0-11.0-1.16","2A6sp3Bz26","5f920aa80a785011ef6906e3","6617fad957f7c6a12ea16e26","6622cd7ab7da879c41de457e","image grid","p","","","","","Ontogenetic_Distractor_Nonthreat_target","2500","ongrid","p","1","Ontogenetic","true","experimental"
"","null","html-keyboard-response","140","295971","0.0-11.0-2.16","2A6sp3Bz26","5f920aa80a785011ef6906e3","6617fad957f7c6a12ea16e26","6622cd7ab7da879c41de457e","
    <div id=""grid-container"">
        <!-- Grid items will be dynamically added here -->
    </div>    ","null","","","","","","","","","","","",""
"","null","html-keyboard-response","141","296674","0.0-11.0-0.17","2A6sp3Bz26","5f920aa80a785011ef6906e3","6617fad957f7c6a12ea16e26","6622cd7ab7da879c41de457e","fixation cross","null","","","","","","","","","","","",""
"","863","html-keyboard-response","142","297539","0.0-11.0-1.17","2A6sp3Bz26","5f920aa80a785011ef6906e3","6617fad957f7c6a12ea16e26","6622cd7ab7da879c41de457e","image grid","p","","","","","Ontogenetic_Distractor_Nonthreat_target","2500","ongrid","p","7","Ontogenetic","true","experimental"
"","null","html-keyboard-response","143","297693","0.0-11.0-2.17","2A6sp3Bz26","5f920aa80a785011ef6906e3","6617fad957f7c6a12ea16e26","6622cd7ab7da879c41de457e","
    <div id=""grid-container"">
        <!-- Grid items will be dynamically added here -->
    </div>    ","null","","","","","","","","","","","",""
"","null","html-keyboard-response","144","298396","0.0-11.0-0.18","2A6sp3Bz26","5f920aa80a785011ef6906e3","6617fad957f7c6a12ea16e26","6622cd7ab7da879c41de457e","fixation cross","null","","","","","","","","","","","",""
"","721","html-keyboard-response","145","299119","0.0-11.0-1.18","2A6sp3Bz26","5f920aa80a785011ef6906e3","6617fad957f7c6a12ea16e26","6622cd7ab7da879c41de457e","image grid","p","","","","","Ontogenetic_Distractor_Nonthreat_target","2500","ongrid","p","2","Ontogenetic","true","experimental"
"","null","html-keyboard-response","146","299272","0.0-11.0-2.18","2A6sp3Bz26","5f920aa80a785011ef6906e3","6617fad957f7c6a12ea16e26","6622cd7ab7da879c41de457e","
    <div id=""grid-container"">
        <!-- Grid items will be dynamically added here -->
    </div>    ","null","","","","","","","","","","","",""
"","null","html-keyboard-response","147","299975","0.0-11.0-0.19","2A6sp3Bz26","5f920aa80a785011ef6906e3","6617fad957f7c6a12ea16e26","6622cd7ab7da879c41de457e","fixation cross","null","","","","","","","","","","","",""
"","543","html-keyboard-response","148","300520","0.0-11.0-1.19","2A6sp3Bz26","5f920aa80a785011ef6906e3","6617fad957f7c6a12ea16e26","6622cd7ab7da879c41de457e","image grid","p","","","","","Ontogenetic_Distractor_Nonthreat_target","2500","ongrid","p","2","Ontogenetic","true","experimental"
"","null","html-keyboard-response","149","300673","0.0-11.0-2.19","2A6sp3Bz26","5f920aa80a785011ef6906e3","6617fad957f7c6a12ea16e26","6622cd7ab7da879c41de457e","
    <div id=""grid-container"">
        <!-- Grid items will be dynamically added here -->
    </div>    ","null","","","","","","","","","","","",""
"","null","html-keyboard-response","150","301376","0.0-11.0-0.20","2A6sp3Bz26","5f920aa80a785011ef6906e3","6617fad957f7c6a12ea16e26","6622cd7ab7da879c41de457e","fixation cross","null","","","","","","","","","","","",""
"","1155","html-keyboard-response","151","302532","0.0-11.0-1.20","2A6sp3Bz26","5f920aa80a785011ef6906e3","6617fad957f7c6a12ea16e26","6622cd7ab7da879c41de457e","image grid","q","","","","","Ontogenetic_Distractor_Threat_target","2500","ongrid","q","5","Ontogenetic","true","experimental"
"","null","html-keyboard-response","152","302685","0.0-11.0-2.20","2A6sp3Bz26","5f920aa80a785011ef6906e3","6617fad957f7c6a12ea16e26","6622cd7ab7da879c41de457e","
    <div id=""grid-container"">
        <!-- Grid items will be dynamically added here -->
    </div>    ","null","","","","","","","","","","","",""
"","null","html-keyboard-response","153","303388","0.0-11.0-0.21","2A6sp3Bz26","5f920aa80a785011ef6906e3","6617fad957f7c6a12ea16e26","6622cd7ab7da879c41de457e","fixation cross","null","","","","","","","","","","","",""
"","1091","html-keyboard-response","154","304481","0.0-11.0-1.21","2A6sp3Bz26","5f920aa80a785011ef6906e3","6617fad957f7c6a12ea16e26","6622cd7ab7da879c41de457e","image grid","q","","","","","Ontogenetic_Distractor_Threat_target","2500","ongrid","q","6","Ontogenetic","true","experimental"
"","null","html-keyboard-response","155","304634","0.0-11.0-2.21","2A6sp3Bz26","5f920aa80a785011ef6906e3","6617fad957f7c6a12ea16e26","6622cd7ab7da879c41de457e","
    <div id=""grid-container"">
        <!-- Grid items will be dynamically added here -->
    </div>    ","null","","","","","","","","","","","",""
"","null","html-keyboard-response","156","305337","0.0-11.0-0.22","2A6sp3Bz26","5f920aa80a785011ef6906e3","6617fad957f7c6a12ea16e26","6622cd7ab7da879c41de457e","fixation cross","null","","","","","","","","","","","",""
"","2278","html-keyboard-response","157","307617","0.0-11.0-1.22","2A6sp3Bz26","5f920aa80a785011ef6906e3","6617fad957f7c6a12ea16e26","6622cd7ab7da879c41de457e","image grid","p","","","","","Ontogenetic_Distractor_notarget","2500","ongrid"," ","1","Ontogenetic","false","experimental"
"","null","html-keyboard-response","158","307770","0.0-11.0-2.22","2A6sp3Bz26","5f920aa80a785011ef6906e3","6617fad957f7c6a12ea16e26","6622cd7ab7da879c41de457e","
    <div id=""grid-container"">
        <!-- Grid items will be dynamically added here -->
    </div>    ","null","","","","","","","","","","","",""
"","null","html-keyboard-response","159","308473","0.0-11.0-0.23","2A6sp3Bz26","5f920aa80a785011ef6906e3","6617fad957f7c6a12ea16e26","6622cd7ab7da879c41de457e","fixation cross","null","","","","","","","","","","","",""
"","1940","html-keyboard-response","160","310414","0.0-11.0-1.23","2A6sp3Bz26","5f920aa80a785011ef6906e3","6617fad957f7c6a12ea16e26","6622cd7ab7da879c41de457e","image grid","q","","","","","Ontogenetic_Distractor_Threat_target","2500","ongrid","q","3","Ontogenetic","true","experimental"
"","null","html-keyboard-response","161","310567","0.0-11.0-2.23","2A6sp3Bz26","5f920aa80a785011ef6906e3","6617fad957f7c6a12ea16e26","6622cd7ab7da879c41de457e","
    <div id=""grid-container"">
        <!-- Grid items will be dynamically added here -->
    </div>    ","null","","","","","","","","","","","",""
"","null","html-keyboard-response","162","311270","0.0-11.0-0.24","2A6sp3Bz26","5f920aa80a785011ef6906e3","6617fad957f7c6a12ea16e26","6622cd7ab7da879c41de457e","fixation cross","null","","","","","","","","","","","",""
"","1113","html-keyboard-response","163","312385","0.0-11.0-1.24","2A6sp3Bz26","5f920aa80a785011ef6906e3","6617fad957f7c6a12ea16e26","6622cd7ab7da879c41de457e","image grid","q","","","","","Ontogenetic_Distractor_Threat_target","2500","ongrid","q","4","Ontogenetic","true","experimental"
"","null","html-keyboard-response","164","312538","0.0-11.0-2.24","2A6sp3Bz26","5f920aa80a785011ef6906e3","6617fad957f7c6a12ea16e26","6622cd7ab7da879c41de457e","
    <div id=""grid-container"">
        <!-- Grid items will be dynamically added here -->
    </div>    ","null","","","","","","","","","","","",""
"","null","html-keyboard-response","165","313241","0.0-11.0-0.25","2A6sp3Bz26","5f920aa80a785011ef6906e3","6617fad957f7c6a12ea16e26","6622cd7ab7da879c41de457e","fixation cross","null","","","","","","","","","","","",""
"","918","html-keyboard-response","166","314161","0.0-11.0-1.25","2A6sp3Bz26","5f920aa80a785011ef6906e3","6617fad957f7c6a12ea16e26","6622cd7ab7da879c41de457e","image grid","p","","","","","Ontogenetic_Distractor_Nonthreat_target","2500","ongrid","p","4","Ontogenetic","true","experimental"
"","null","html-keyboard-response","167","314314","0.0-11.0-2.25","2A6sp3Bz26","5f920aa80a785011ef6906e3","6617fad957f7c6a12ea16e26","6622cd7ab7da879c41de457e","
    <div id=""grid-container"">
        <!-- Grid items will be dynamically added here -->
    </div>    ","null","","","","","","","","","","","",""
"","null","html-keyboard-response","168","315017","0.0-11.0-0.26","2A6sp3Bz26","5f920aa80a785011ef6906e3","6617fad957f7c6a12ea16e26","6622cd7ab7da879c41de457e","fixation cross","null","","","","","","","","","","","",""
"","932","html-keyboard-response","169","315951","0.0-11.0-1.26","2A6sp3Bz26","5f920aa80a785011ef6906e3","6617fad957f7c6a12ea16e26","6622cd7ab7da879c41de457e","image grid","p","","","","","Ontogenetic_Distractor_Nonthreat_target","2500","ongrid","p","5","Ontogenetic","true","experimental"
"","null","html-keyboard-response","170","316104","0.0-11.0-2.26","2A6sp3Bz26","5f920aa80a785011ef6906e3","6617fad957f7c6a12ea16e26","6622cd7ab7da879c41de457e","
    <div id=""grid-container"">
        <!-- Grid items will be dynamically added here -->
    </div>    ","null","","","","","","","","","","","",""
"","null","html-keyboard-response","171","316807","0.0-11.0-0.27","2A6sp3Bz26","5f920aa80a785011ef6906e3","6617fad957f7c6a12ea16e26","6622cd7ab7da879c41de457e","fixation cross","null","","","","","","","","","","","",""
"","747","html-keyboard-response","172","317555","0.0-11.0-1.27","2A6sp3Bz26","5f920aa80a785011ef6906e3","6617fad957f7c6a12ea16e26","6622cd7ab7da879c41de457e","image grid","p","","","","","Ontogenetic_Distractor_Nonthreat_target","2500","ongrid","p","7","Ontogenetic","true","experimental"
"","null","html-keyboard-response","173","317708","0.0-11.0-2.27","2A6sp3Bz26","5f920aa80a785011ef6906e3","6617fad957f7c6a12ea16e26","6622cd7ab7da879c41de457e","
    <div id=""grid-container"">
        <!-- Grid items will be dynamically added here -->
    </div>    ","null","","","","","","","","","","","",""
"","null","html-keyboard-response","174","318412","0.0-11.0-0.28","2A6sp3Bz26","5f920aa80a785011ef6906e3","6617fad957f7c6a12ea16e26","6622cd7ab7da879c41de457e","fixation cross","null","","","","","","","","","","","",""
"","1055","html-keyboard-response","175","319469","0.0-11.0-1.28","2A6sp3Bz26","5f920aa80a785011ef6906e3","6617fad957f7c6a12ea16e26","6622cd7ab7da879c41de457e","image grid","p","","","","","Ontogenetic_Distractor_Nonthreat_target","2500","ongrid","p","4","Ontogenetic","true","experimental"
"","null","html-keyboard-response","176","319622","0.0-11.0-2.28","2A6sp3Bz26","5f920aa80a785011ef6906e3","6617fad957f7c6a12ea16e26","6622cd7ab7da879c41de457e","
    <div id=""grid-container"">
        <!-- Grid items will be dynamically added here -->
    </div>    ","null","","","","","","","","","","","",""
"","null","html-keyboard-response","177","320325","0.0-11.0-0.29","2A6sp3Bz26","5f920aa80a785011ef6906e3","6617fad957f7c6a12ea16e26","6622cd7ab7da879c41de457e","fixation cross","null","","","","","","","","","","","",""
"","2049","html-keyboard-response","178","322378","0.0-11.0-1.29","2A6sp3Bz26","5f920aa80a785011ef6906e3","6617fad957f7c6a12ea16e26","6622cd7ab7da879c41de457e","image grid","q","","","","","Ontogenetic_Distractor_Threat_target","2500","ongrid","q","4","Ontogenetic","true","experimental"
"","null","html-keyboard-response","179","322532","0.0-11.0-2.29","2A6sp3Bz26","5f920aa80a785011ef6906e3","6617fad957f7c6a12ea16e26","6622cd7ab7da879c41de457e","
    <div id=""grid-container"">
        <!-- Grid items will be dynamically added here -->
    </div>    ","null","","","","","","","","","","","",""
"","null","html-keyboard-response","180","323234","0.0-11.0-0.30","2A6sp3Bz26","5f920aa80a785011ef6906e3","6617fad957f7c6a12ea16e26","6622cd7ab7da879c41de457e","fixation cross","null","","","","","","","","","","","",""
"","1070","html-keyboard-response","181","324306","0.0-11.0-1.30","2A6sp3Bz26","5f920aa80a785011ef6906e3","6617fad957f7c6a12ea16e26","6622cd7ab7da879c41de457e","image grid","q","","","","","Ontogenetic_Distractor_Threat_target","2500","ongrid","q","1","Ontogenetic","true","experimental"
"","null","html-keyboard-response","182","324459","0.0-11.0-2.30","2A6sp3Bz26","5f920aa80a785011ef6906e3","6617fad957f7c6a12ea16e26","6622cd7ab7da879c41de457e","
    <div id=""grid-container"">
        <!-- Grid items will be dynamically added here -->
    </div>    ","null","","","","","","","","","","","",""
"","null","html-keyboard-response","183","325162","0.0-11.0-0.31","2A6sp3Bz26","5f920aa80a785011ef6906e3","6617fad957f7c6a12ea16e26","6622cd7ab7da879c41de457e","fixation cross","null","","","","","","","","","","","",""
"","877","html-keyboard-response","184","326041","0.0-11.0-1.31","2A6sp3Bz26","5f920aa80a785011ef6906e3","6617fad957f7c6a12ea16e26","6622cd7ab7da879c41de457e","image grid","q","","","","","Ontogenetic_Distractor_Threat_target","2500","ongrid","q","7","Ontogenetic","true","experimental"
"","null","html-keyboard-response","185","326194","0.0-11.0-2.31","2A6sp3Bz26","5f920aa80a785011ef6906e3","6617fad957f7c6a12ea16e26","6622cd7ab7da879c41de457e","
    <div id=""grid-container"">
        <!-- Grid items will be dynamically added here -->
    </div>    ","null","","","","","","","","","","","",""
"","null","html-keyboard-response","186","326897","0.0-11.0-0.32","2A6sp3Bz26","5f920aa80a785011ef6906e3","6617fad957f7c6a12ea16e26","6622cd7ab7da879c41de457e","fixation cross","null","","","","","","","","","","","",""
"","1003","html-keyboard-response","187","327901","0.0-11.0-1.32","2A6sp3Bz26","5f920aa80a785011ef6906e3","6617fad957f7c6a12ea16e26","6622cd7ab7da879c41de457e","image grid","q","","","","","Ontogenetic_Distractor_Threat_target","2500","ongrid","q","3","Ontogenetic","true","experimental"
"","null","html-keyboard-response","188","328055","0.0-11.0-2.32","2A6sp3Bz26","5f920aa80a785011ef6906e3","6617fad957f7c6a12ea16e26","6622cd7ab7da879c41de457e","
    <div id=""grid-container"">
        <!-- Grid items will be dynamically added here -->
    </div>    ","null","","","","","","","","","","","",""
"","null","html-keyboard-response","189","328758","0.0-11.0-0.33","2A6sp3Bz26","5f920aa80a785011ef6906e3","6617fad957f7c6a12ea16e26","6622cd7ab7da879c41de457e","fixation cross","null","","","","","","","","","","","",""
"","1144","html-keyboard-response","190","329903","0.0-11.0-1.33","2A6sp3Bz26","5f920aa80a785011ef6906e3","6617fad957f7c6a12ea16e26","6622cd7ab7da879c41de457e","image grid","p","","","","","Ontogenetic_Distractor_Nonthreat_target","2500","ongrid","p","3","Ontogenetic","true","experimental"
"","null","html-keyboard-response","191","330057","0.0-11.0-2.33","2A6sp3Bz26","5f920aa80a785011ef6906e3","6617fad957f7c6a12ea16e26","6622cd7ab7da879c41de457e","
    <div id=""grid-container"">
        <!-- Grid items will be dynamically added here -->
    </div>    ","null","","","","","","","","","","","",""
"","null","html-keyboard-response","192","330759","0.0-11.0-0.34","2A6sp3Bz26","5f920aa80a785011ef6906e3","6617fad957f7c6a12ea16e26","6622cd7ab7da879c41de457e","fixation cross","null","","","","","","","","","","","",""
"","1579","html-keyboard-response","193","332340","0.0-11.0-1.34","2A6sp3Bz26","5f920aa80a785011ef6906e3","6617fad957f7c6a12ea16e26","6622cd7ab7da879c41de457e","image grid","p","","","","","Ontogenetic_Distractor_notarget","2500","ongrid"," ","6","Ontogenetic","false","experimental"
"","null","html-keyboard-response","194","332493","0.0-11.0-2.34","2A6sp3Bz26","5f920aa80a785011ef6906e3","6617fad957f7c6a12ea16e26","6622cd7ab7da879c41de457e","
    <div id=""grid-container"">
        <!-- Grid items will be dynamically added here -->
    </div>    ","null","","","","","","","","","","","",""
"","null","html-keyboard-response","195","333196","0.0-11.0-0.35","2A6sp3Bz26","5f920aa80a785011ef6906e3","6617fad957f7c6a12ea16e26","6622cd7ab7da879c41de457e","fixation cross","null","","","","","","","","","","","",""
"","824","html-keyboard-response","196","334022","0.0-11.0-1.35","2A6sp3Bz26","5f920aa80a785011ef6906e3","6617fad957f7c6a12ea16e26","6622cd7ab7da879c41de457e","image grid","q","","","","","Ontogenetic_Distractor_Threat_target","2500","ongrid","q","1","Ontogenetic","true","experimental"
"","null","html-keyboard-response","197","334176","0.0-11.0-2.35","2A6sp3Bz26","5f920aa80a785011ef6906e3","6617fad957f7c6a12ea16e26","6622cd7ab7da879c41de457e","
    <div id=""grid-container"">
        <!-- Grid items will be dynamically added here -->
    </div>    ","null","","","","","","","","","","","",""
"","null","html-keyboard-response","198","334880","0.0-11.0-0.36","2A6sp3Bz26","5f920aa80a785011ef6906e3","6617fad957f7c6a12ea16e26","6622cd7ab7da879c41de457e","fixation cross","null","","","","","","","","","","","",""
"","876","html-keyboard-response","199","335758","0.0-11.0-1.36","2A6sp3Bz26","5f920aa80a785011ef6906e3","6617fad957f7c6a12ea16e26","6622cd7ab7da879c41de457e","image grid","q","","","","","Ontogenetic_Distractor_Threat_target","2500","ongrid","q","3","Ontogenetic","true","experimental"
"","null","html-keyboard-response","200","335912","0.0-11.0-2.36","2A6sp3Bz26","5f920aa80a785011ef6906e3","6617fad957f7c6a12ea16e26","6622cd7ab7da879c41de457e","
    <div id=""grid-container"">
        <!-- Grid items will be dynamically added here -->
    </div>    ","null","","","","","","","","","","","",""
"","null","html-keyboard-response","201","336615","0.0-11.0-0.37","2A6sp3Bz26","5f920aa80a785011ef6906e3","6617fad957f7c6a12ea16e26","6622cd7ab7da879c41de457e","fixation cross","null","","","","","","","","","","","",""
"","536","html-keyboard-response","202","337153","0.0-11.0-1.37","2A6sp3Bz26","5f920aa80a785011ef6906e3","6617fad957f7c6a12ea16e26","6622cd7ab7da879c41de457e","image grid","q","","","","","Ontogenetic_Distractor_Nonthreat_target","2500","ongrid","p","6","Ontogenetic","false","experimental"
"","null","html-keyboard-response","203","337307","0.0-11.0-2.37","2A6sp3Bz26","5f920aa80a785011ef6906e3","6617fad957f7c6a12ea16e26","6622cd7ab7da879c41de457e","
    <div id=""grid-container"">
        <!-- Grid items will be dynamically added here -->
    </div>    ","null","","","","","","","","","","","",""
"","null","html-keyboard-response","204","338010","0.0-11.0-0.38","2A6sp3Bz26","5f920aa80a785011ef6906e3","6617fad957f7c6a12ea16e26","6622cd7ab7da879c41de457e","fixation cross","null","","","","","","","","","","","",""
"","1741","html-keyboard-response","205","339753","0.0-11.0-1.38","2A6sp3Bz26","5f920aa80a785011ef6906e3","6617fad957f7c6a12ea16e26","6622cd7ab7da879c41de457e","image grid","p","","","","","Ontogenetic_Distractor_notarget","2500","ongrid"," ","7","Ontogenetic","false","experimental"
"","null","html-keyboard-response","206","339906","0.0-11.0-2.38","2A6sp3Bz26","5f920aa80a785011ef6906e3","6617fad957f7c6a12ea16e26","6622cd7ab7da879c41de457e","
    <div id=""grid-container"">
        <!-- Grid items will be dynamically added here -->
    </div>    ","null","","","","","","","","","","","",""
"","null","html-keyboard-response","207","340609","0.0-11.0-0.39","2A6sp3Bz26","5f920aa80a785011ef6906e3","6617fad957f7c6a12ea16e26","6622cd7ab7da879c41de457e","fixation cross","null","","","","","","","","","","","",""
"","767","html-keyboard-response","208","341378","0.0-11.0-1.39","2A6sp3Bz26","5f920aa80a785011ef6906e3","6617fad957f7c6a12ea16e26","6622cd7ab7da879c41de457e","image grid","p","","","","","Ontogenetic_Distractor_Nonthreat_target","2500","ongrid","p","4","Ontogenetic","true","experimental"
"","null","html-keyboard-response","209","341532","0.0-11.0-2.39","2A6sp3Bz26","5f920aa80a785011ef6906e3","6617fad957f7c6a12ea16e26","6622cd7ab7da879c41de457e","
    <div id=""grid-container"">
        <!-- Grid items will be dynamically added here -->
    </div>    ","null","","","","","","","","","","","",""
"","3141","html-keyboard-response","210","344923","0.0-12.0","2A6sp3Bz26","5f920aa80a785011ef6906e3","6617fad957f7c6a12ea16e26","6622cd7ab7da879c41de457e","break screen"," ","","","","","","","","","","","",""
"","null","html-keyboard-response","211","347485","0.0-13.0-0.0","2A6sp3Bz26","5f920aa80a785011ef6906e3","6617fad957f7c6a12ea16e26","6622cd7ab7da879c41de457e","fixation cross","null","","","","","","","","","","","",""
"","null","html-keyboard-response","212","348288","0.0-13.0-1.0","2A6sp3Bz26","5f920aa80a785011ef6906e3","6617fad957f7c6a12ea16e26","6622cd7ab7da879c41de457e","
        <div id=""grid-container"">
        <!-- Grid items will be dynamically added here -->
    </div>    ","null","","","","","","","","","","","",""
"","1124","html-keyboard-response","213","348614","0.0-13.0-2.0","2A6sp3Bz26","5f920aa80a785011ef6906e3","6617fad957f7c6a12ea16e26","6622cd7ab7da879c41de457e","mask grid","p","","","","","Phylogenetic_Distractor_notarget","800","onmask"," ","5","Phylogenetic","false","experimental"
"","null","html-keyboard-response","214","349317","0.0-13.0-0.1","2A6sp3Bz26","5f920aa80a785011ef6906e3","6617fad957f7c6a12ea16e26","6622cd7ab7da879c41de457e","fixation cross","null","","","","","","","","","","","",""
"","null","html-keyboard-response","215","350120","0.0-13.0-1.1","2A6sp3Bz26","5f920aa80a785011ef6906e3","6617fad957f7c6a12ea16e26","6622cd7ab7da879c41de457e","
        <div id=""grid-container"">
        <!-- Grid items will be dynamically added here -->
    </div>    ","null","","","","","","","","","","","",""
"","822","html-keyboard-response","216","350144","0.0-13.0-2.1","2A6sp3Bz26","5f920aa80a785011ef6906e3","6617fad957f7c6a12ea16e26","6622cd7ab7da879c41de457e","mask grid","q","","","","","Phylogenetic_Distractor_Threat_target","800","onmask","q","2","Phylogenetic","true","experimental"
"","null","html-keyboard-response","217","350848","0.0-13.0-0.2","2A6sp3Bz26","5f920aa80a785011ef6906e3","6617fad957f7c6a12ea16e26","6622cd7ab7da879c41de457e","fixation cross","null","","","","","","","","","","","",""
"","null","html-keyboard-response","218","351651","0.0-13.0-1.2","2A6sp3Bz26","5f920aa80a785011ef6906e3","6617fad957f7c6a12ea16e26","6622cd7ab7da879c41de457e","
        <div id=""grid-container"">
        <!-- Grid items will be dynamically added here -->
    </div>    ","null","","","","","","","","","","","",""
"","956","html-keyboard-response","219","351809","0.0-13.0-2.2","2A6sp3Bz26","5f920aa80a785011ef6906e3","6617fad957f7c6a12ea16e26","6622cd7ab7da879c41de457e","mask grid","q","","","","","Phylogenetic_Distractor_Nonthreat_target","800","onmask","p","2","Phylogenetic","false","experimental"
"","null","html-keyboard-response","220","352512","0.0-13.0-0.3","2A6sp3Bz26","5f920aa80a785011ef6906e3","6617fad957f7c6a12ea16e26","6622cd7ab7da879c41de457e","fixation cross","null","","","","","","","","","","","",""
"","null","html-keyboard-response","221","353315","0.0-13.0-1.3","2A6sp3Bz26","5f920aa80a785011ef6906e3","6617fad957f7c6a12ea16e26","6622cd7ab7da879c41de457e","
        <div id=""grid-container"">
        <!-- Grid items will be dynamically added here -->
    </div>    ","null","","","","","","","","","","","",""
"","1011","html-keyboard-response","222","353528","0.0-13.0-2.3","2A6sp3Bz26","5f920aa80a785011ef6906e3","6617fad957f7c6a12ea16e26","6622cd7ab7da879c41de457e","mask grid","p","","","","","Phylogenetic_Distractor_Nonthreat_target","800","onmask","p","5","Phylogenetic","true","experimental"
"","null","html-keyboard-response","223","354232","0.0-13.0-0.4","2A6sp3Bz26","5f920aa80a785011ef6906e3","6617fad957f7c6a12ea16e26","6622cd7ab7da879c41de457e","fixation cross","null","","","","","","","","","","","",""
"","777","html-keyboard-response","224","355011","0.0-13.0-1.4","2A6sp3Bz26","5f920aa80a785011ef6906e3","6617fad957f7c6a12ea16e26","6622cd7ab7da879c41de457e","image grid","p","","","","","Phylogenetic_Distractor_notarget","800","ongrid"," ","7","Phylogenetic","false","experimental"
"","null","html-keyboard-response","225","355165","0.0-13.0-2.4","2A6sp3Bz26","5f920aa80a785011ef6906e3","6617fad957f7c6a12ea16e26","6622cd7ab7da879c41de457e","
    <div id=""grid-container"">
        <!-- Grid items will be dynamically added here -->
    </div>    ","null","","","","","","","","","","","",""
"","null","html-keyboard-response","226","355868","0.0-13.0-0.5","2A6sp3Bz26","5f920aa80a785011ef6906e3","6617fad957f7c6a12ea16e26","6622cd7ab7da879c41de457e","fixation cross","null","","","","","","","","","","","",""
"","547","html-keyboard-response","227","356417","0.0-13.0-1.5","2A6sp3Bz26","5f920aa80a785011ef6906e3","6617fad957f7c6a12ea16e26","6622cd7ab7da879c41de457e","image grid","q","","","","","Phylogenetic_Distractor_Nonthreat_target","800","ongrid","p","4","Phylogenetic","false","experimental"
"","null","html-keyboard-response","228","356570","0.0-13.0-2.5","2A6sp3Bz26","5f920aa80a785011ef6906e3","6617fad957f7c6a12ea16e26","6622cd7ab7da879c41de457e","
    <div id=""grid-container"">
        <!-- Grid items will be dynamically added here -->
    </div>    ","null","","","","","","","","","","","",""
"","null","html-keyboard-response","229","357274","0.0-13.0-0.6","2A6sp3Bz26","5f920aa80a785011ef6906e3","6617fad957f7c6a12ea16e26","6622cd7ab7da879c41de457e","fixation cross","null","","","","","","","","","","","",""
"","null","html-keyboard-response","230","358077","0.0-13.0-1.6","2A6sp3Bz26","5f920aa80a785011ef6906e3","6617fad957f7c6a12ea16e26","6622cd7ab7da879c41de457e","
        <div id=""grid-container"">
        <!-- Grid items will be dynamically added here -->
    </div>    ","null","","","","","","","","","","","",""
"","899","html-keyboard-response","231","358177","0.0-13.0-2.6","2A6sp3Bz26","5f920aa80a785011ef6906e3","6617fad957f7c6a12ea16e26","6622cd7ab7da879c41de457e","mask grid","p","","","","","Phylogenetic_Distractor_notarget","800","onmask"," ","7","Phylogenetic","false","experimental"
"","null","html-keyboard-response","232","358881","0.0-13.0-0.7","2A6sp3Bz26","5f920aa80a785011ef6906e3","6617fad957f7c6a12ea16e26","6622cd7ab7da879c41de457e","fixation cross","null","","","","","","","","","","","",""
"","681","html-keyboard-response","233","359564","0.0-13.0-1.7","2A6sp3Bz26","5f920aa80a785011ef6906e3","6617fad957f7c6a12ea16e26","6622cd7ab7da879c41de457e","image grid","p","","","","","Phylogenetic_Distractor_Nonthreat_target","800","ongrid","p","1","Phylogenetic","true","experimental"
"","null","html-keyboard-response","234","359717","0.0-13.0-2.7","2A6sp3Bz26","5f920aa80a785011ef6906e3","6617fad957f7c6a12ea16e26","6622cd7ab7da879c41de457e","
    <div id=""grid-container"">
        <!-- Grid items will be dynamically added here -->
    </div>    ","null","","","","","","","","","","","",""
"","null","html-keyboard-response","235","360420","0.0-13.0-0.8","2A6sp3Bz26","5f920aa80a785011ef6906e3","6617fad957f7c6a12ea16e26","6622cd7ab7da879c41de457e","fixation cross","null","","","","","","","","","","","",""
"","null","html-keyboard-response","236","361223","0.0-13.0-1.8","2A6sp3Bz26","5f920aa80a785011ef6906e3","6617fad957f7c6a12ea16e26","6622cd7ab7da879c41de457e","
        <div id=""grid-container"">
        <!-- Grid items will be dynamically added here -->
    </div>    ","null","","","","","","","","","","","",""
"","825","html-keyboard-response","237","361249","0.0-13.0-2.8","2A6sp3Bz26","5f920aa80a785011ef6906e3","6617fad957f7c6a12ea16e26","6622cd7ab7da879c41de457e","mask grid","q","","","","","Phylogenetic_Distractor_Threat_target","800","onmask","q","2","Phylogenetic","true","experimental"
"","null","html-keyboard-response","238","361953","0.0-13.0-0.9","2A6sp3Bz26","5f920aa80a785011ef6906e3","6617fad957f7c6a12ea16e26","6622cd7ab7da879c41de457e","fixation cross","null","","","","","","","","","","","",""
"","null","html-keyboard-response","239","362756","0.0-13.0-1.9","2A6sp3Bz26","5f920aa80a785011ef6906e3","6617fad957f7c6a12ea16e26","6622cd7ab7da879c41de457e","
        <div id=""grid-container"">
        <!-- Grid items will be dynamically added here -->
    </div>    ","null","","","","","","","","","","","",""
"","867","html-keyboard-response","240","362825","0.0-13.0-2.9","2A6sp3Bz26","5f920aa80a785011ef6906e3","6617fad957f7c6a12ea16e26","6622cd7ab7da879c41de457e","mask grid","q","","","","","Phylogenetic_Distractor_Threat_target","800","onmask","q","9","Phylogenetic","true","experimental"
"","null","html-keyboard-response","241","363528","0.0-13.0-0.10","2A6sp3Bz26","5f920aa80a785011ef6906e3","6617fad957f7c6a12ea16e26","6622cd7ab7da879c41de457e","fixation cross","null","","","","","","","","","","","",""
"","660","html-keyboard-response","242","364190","0.0-13.0-1.10","2A6sp3Bz26","5f920aa80a785011ef6906e3","6617fad957f7c6a12ea16e26","6622cd7ab7da879c41de457e","image grid","q","","","","","Phylogenetic_Distractor_Threat_target","800","ongrid","q","8","Phylogenetic","true","experimental"
"","null","html-keyboard-response","243","364343","0.0-13.0-2.10","2A6sp3Bz26","5f920aa80a785011ef6906e3","6617fad957f7c6a12ea16e26","6622cd7ab7da879c41de457e","
    <div id=""grid-container"">
        <!-- Grid items will be dynamically added here -->
    </div>    ","null","","","","","","","","","","","",""
"","null","html-keyboard-response","244","365046","0.0-13.0-0.11","2A6sp3Bz26","5f920aa80a785011ef6906e3","6617fad957f7c6a12ea16e26","6622cd7ab7da879c41de457e","fixation cross","null","","","","","","","","","","","",""
"","null","html-keyboard-response","245","365848","0.0-13.0-1.11","2A6sp3Bz26","5f920aa80a785011ef6906e3","6617fad957f7c6a12ea16e26","6622cd7ab7da879c41de457e","
        <div id=""grid-container"">
        <!-- Grid items will be dynamically added here -->
    </div>    ","null","","","","","","","","","","","",""
"","929","html-keyboard-response","246","365979","0.0-13.0-2.11","2A6sp3Bz26","5f920aa80a785011ef6906e3","6617fad957f7c6a12ea16e26","6622cd7ab7da879c41de457e","mask grid","p","","","","","Phylogenetic_Distractor_Nonthreat_target","800","onmask","p","6","Phylogenetic","true","experimental"
"","null","html-keyboard-response","247","366682","0.0-13.0-0.12","2A6sp3Bz26","5f920aa80a785011ef6906e3","6617fad957f7c6a12ea16e26","6622cd7ab7da879c41de457e","fixation cross","null","","","","","","","","","","","",""
"","726","html-keyboard-response","248","367410","0.0-13.0-1.12","2A6sp3Bz26","5f920aa80a785011ef6906e3","6617fad957f7c6a12ea16e26","6622cd7ab7da879c41de457e","image grid","p","","","","","Phylogenetic_Distractor_Nonthreat_target","800","ongrid","p","1","Phylogenetic","true","experimental"
"","null","html-keyboard-response","249","367564","0.0-13.0-2.12","2A6sp3Bz26","5f920aa80a785011ef6906e3","6617fad957f7c6a12ea16e26","6622cd7ab7da879c41de457e","
    <div id=""grid-container"">
        <!-- Grid items will be dynamically added here -->
    </div>    ","null","","","","","","","","","","","",""
"","null","html-keyboard-response","250","368267","0.0-13.0-0.13","2A6sp3Bz26","5f920aa80a785011ef6906e3","6617fad957f7c6a12ea16e26","6622cd7ab7da879c41de457e","fixation cross","null","","","","","","","","","","","",""
"","613","html-keyboard-response","251","368882","0.0-13.0-1.13","2A6sp3Bz26","5f920aa80a785011ef6906e3","6617fad957f7c6a12ea16e26","6622cd7ab7da879c41de457e","image grid","p","","","","","Phylogenetic_Distractor_Nonthreat_target","800","ongrid","p","9","Phylogenetic","true","experimental"
"","null","html-keyboard-response","252","369036","0.0-13.0-2.13","2A6sp3Bz26","5f920aa80a785011ef6906e3","6617fad957f7c6a12ea16e26","6622cd7ab7da879c41de457e","
    <div id=""grid-container"">
        <!-- Grid items will be dynamically added here -->
    </div>    ","null","","","","","","","","","","","",""
"","null","html-keyboard-response","253","369739","0.0-13.0-0.14","2A6sp3Bz26","5f920aa80a785011ef6906e3","6617fad957f7c6a12ea16e26","6622cd7ab7da879c41de457e","fixation cross","null","","","","","","","","","","","",""
"","null","html-keyboard-response","254","370542","0.0-13.0-1.14","2A6sp3Bz26","5f920aa80a785011ef6906e3","6617fad957f7c6a12ea16e26","6622cd7ab7da879c41de457e","
        <div id=""grid-container"">
        <!-- Grid items will be dynamically added here -->
    </div>    ","null","","","","","","","","","","","",""
"","863","html-keyboard-response","255","370607","0.0-13.0-2.14","2A6sp3Bz26","5f920aa80a785011ef6906e3","6617fad957f7c6a12ea16e26","6622cd7ab7da879c41de457e","mask grid","p","","","","","Phylogenetic_Distractor_Nonthreat_target","800","onmask","p","2","Phylogenetic","true","experimental"
"","null","html-keyboard-response","256","371311","0.0-13.0-0.15","2A6sp3Bz26","5f920aa80a785011ef6906e3","6617fad957f7c6a12ea16e26","6622cd7ab7da879c41de457e","fixation cross","null","","","","","","","","","","","",""
"","790","html-keyboard-response","257","372102","0.0-13.0-1.15","2A6sp3Bz26","5f920aa80a785011ef6906e3","6617fad957f7c6a12ea16e26","6622cd7ab7da879c41de457e","image grid","q","","","","","Phylogenetic_Distractor_Threat_target","800","ongrid","q","2","Phylogenetic","true","experimental"
"","null","html-keyboard-response","258","372256","0.0-13.0-2.15","2A6sp3Bz26","5f920aa80a785011ef6906e3","6617fad957f7c6a12ea16e26","6622cd7ab7da879c41de457e","
    <div id=""grid-container"">
        <!-- Grid items will be dynamically added here -->
    </div>    ","null","","","","","","","","","","","",""
"","null","html-keyboard-response","259","372959","0.0-13.0-0.16","2A6sp3Bz26","5f920aa80a785011ef6906e3","6617fad957f7c6a12ea16e26","6622cd7ab7da879c41de457e","fixation cross","null","","","","","","","","","","","",""
"","626","html-keyboard-response","260","373586","0.0-13.0-1.16","2A6sp3Bz26","5f920aa80a785011ef6906e3","6617fad957f7c6a12ea16e26","6622cd7ab7da879c41de457e","image grid","q","","","","","Phylogenetic_Distractor_Threat_target","800","ongrid","q","9","Phylogenetic","true","experimental"
"","null","html-keyboard-response","261","373740","0.0-13.0-2.16","2A6sp3Bz26","5f920aa80a785011ef6906e3","6617fad957f7c6a12ea16e26","6622cd7ab7da879c41de457e","
    <div id=""grid-container"">
        <!-- Grid items will be dynamically added here -->
    </div>    ","null","","","","","","","","","","","",""
"","null","html-keyboard-response","262","374443","0.0-13.0-0.17","2A6sp3Bz26","5f920aa80a785011ef6906e3","6617fad957f7c6a12ea16e26","6622cd7ab7da879c41de457e","fixation cross","null","","","","","","","","","","","",""
"","684","html-keyboard-response","263","375129","0.0-13.0-1.17","2A6sp3Bz26","5f920aa80a785011ef6906e3","6617fad957f7c6a12ea16e26","6622cd7ab7da879c41de457e","image grid","q","","","","","Phylogenetic_Distractor_Threat_target","800","ongrid","q","8","Phylogenetic","true","experimental"
"","null","html-keyboard-response","264","375283","0.0-13.0-2.17","2A6sp3Bz26","5f920aa80a785011ef6906e3","6617fad957f7c6a12ea16e26","6622cd7ab7da879c41de457e","
    <div id=""grid-container"">
        <!-- Grid items will be dynamically added here -->
    </div>    ","null","","","","","","","","","","","",""
"","null","html-keyboard-response","265","375986","0.0-13.0-0.18","2A6sp3Bz26","5f920aa80a785011ef6906e3","6617fad957f7c6a12ea16e26","6622cd7ab7da879c41de457e","fixation cross","null","","","","","","","","","","","",""
"","null","html-keyboard-response","266","376789","0.0-13.0-1.18","2A6sp3Bz26","5f920aa80a785011ef6906e3","6617fad957f7c6a12ea16e26","6622cd7ab7da879c41de457e","
        <div id=""grid-container"">
        <!-- Grid items will be dynamically added here -->
    </div>    ","null","","","","","","","","","","","",""
"","866","html-keyboard-response","267","376857","0.0-13.0-2.18","2A6sp3Bz26","5f920aa80a785011ef6906e3","6617fad957f7c6a12ea16e26","6622cd7ab7da879c41de457e","mask grid","p","","","","","Phylogenetic_Distractor_Nonthreat_target","800","onmask","p","2","Phylogenetic","true","experimental"
"","null","html-keyboard-response","268","377560","0.0-13.0-0.19","2A6sp3Bz26","5f920aa80a785011ef6906e3","6617fad957f7c6a12ea16e26","6622cd7ab7da879c41de457e","fixation cross","null","","","","","","","","","","","",""
"","657","html-keyboard-response","269","378219","0.0-13.0-1.19","2A6sp3Bz26","5f920aa80a785011ef6906e3","6617fad957f7c6a12ea16e26","6622cd7ab7da879c41de457e","image grid","p","","","","","Phylogenetic_Distractor_Nonthreat_target","800","ongrid","p","9","Phylogenetic","true","experimental"
"","null","html-keyboard-response","270","378373","0.0-13.0-2.19","2A6sp3Bz26","5f920aa80a785011ef6906e3","6617fad957f7c6a12ea16e26","6622cd7ab7da879c41de457e","
    <div id=""grid-container"">
        <!-- Grid items will be dynamically added here -->
    </div>    ","null","","","","","","","","","","","",""
"","null","html-keyboard-response","271","379075","0.0-13.0-0.20","2A6sp3Bz26","5f920aa80a785011ef6906e3","6617fad957f7c6a12ea16e26","6622cd7ab7da879c41de457e","fixation cross","null","","","","","","","","","","","",""
"","null","html-keyboard-response","272","379878","0.0-13.0-1.20","2A6sp3Bz26","5f920aa80a785011ef6906e3","6617fad957f7c6a12ea16e26","6622cd7ab7da879c41de457e","
        <div id=""grid-container"">
        <!-- Grid items will be dynamically added here -->
    </div>    ","null","","","","","","","","","","","",""
"","816","html-keyboard-response","273","379895","0.0-13.0-2.20","2A6sp3Bz26","5f920aa80a785011ef6906e3","6617fad957f7c6a12ea16e26","6622cd7ab7da879c41de457e","mask grid","p","","","","","Phylogenetic_Distractor_Nonthreat_target","800","onmask","p","8","Phylogenetic","true","experimental"
"","null","html-keyboard-response","274","380598","0.0-13.0-0.21","2A6sp3Bz26","5f920aa80a785011ef6906e3","6617fad957f7c6a12ea16e26","6622cd7ab7da879c41de457e","fixation cross","null","","","","","","","","","","","",""
"","null","html-keyboard-response","275","381401","0.0-13.0-1.21","2A6sp3Bz26","5f920aa80a785011ef6906e3","6617fad957f7c6a12ea16e26","6622cd7ab7da879c41de457e","
        <div id=""grid-container"">
        <!-- Grid items will be dynamically added here -->
    </div>    ","null","","","","","","","","","","","",""
"","1454","html-keyboard-response","276","382057","0.0-13.0-2.21","2A6sp3Bz26","5f920aa80a785011ef6906e3","6617fad957f7c6a12ea16e26","6622cd7ab7da879c41de457e","mask grid","p","","","","","Phylogenetic_Distractor_Threat_target","800","onmask","q","1","Phylogenetic","false","experimental"
"","null","html-keyboard-response","277","382761","0.0-13.0-0.22","2A6sp3Bz26","5f920aa80a785011ef6906e3","6617fad957f7c6a12ea16e26","6622cd7ab7da879c41de457e","fixation cross","null","","","","","","","","","","","",""
"","null","html-keyboard-response","278","383564","0.0-13.0-1.22","2A6sp3Bz26","5f920aa80a785011ef6906e3","6617fad957f7c6a12ea16e26","6622cd7ab7da879c41de457e","
        <div id=""grid-container"">
        <!-- Grid items will be dynamically added here -->
    </div>    ","null","","","","","","","","","","","",""
"","830","html-keyboard-response","279","383595","0.0-13.0-2.22","2A6sp3Bz26","5f920aa80a785011ef6906e3","6617fad957f7c6a12ea16e26","6622cd7ab7da879c41de457e","mask grid","q","","","","","Phylogenetic_Distractor_Nonthreat_target","800","onmask","p","4","Phylogenetic","false","experimental"
"","null","html-keyboard-response","280","384299","0.0-13.0-0.23","2A6sp3Bz26","5f920aa80a785011ef6906e3","6617fad957f7c6a12ea16e26","6622cd7ab7da879c41de457e","fixation cross","null","","","","","","","","","","","",""
"","584","html-keyboard-response","281","384885","0.0-13.0-1.23","2A6sp3Bz26","5f920aa80a785011ef6906e3","6617fad957f7c6a12ea16e26","6622cd7ab7da879c41de457e","image grid","p","","","","","Phylogenetic_Distractor_Threat_target","800","ongrid","q","6","Phylogenetic","false","experimental"
"","null","html-keyboard-response","282","385038","0.0-13.0-2.23","2A6sp3Bz26","5f920aa80a785011ef6906e3","6617fad957f7c6a12ea16e26","6622cd7ab7da879c41de457e","
    <div id=""grid-container"">
        <!-- Grid items will be dynamically added here -->
    </div>    ","null","","","","","","","","","","","",""
"","null","html-keyboard-response","283","385742","0.0-13.0-0.24","2A6sp3Bz26","5f920aa80a785011ef6906e3","6617fad957f7c6a12ea16e26","6622cd7ab7da879c41de457e","fixation cross","null","","","","","","","","","","","",""
"","688","html-keyboard-response","284","386432","0.0-13.0-1.24","2A6sp3Bz26","5f920aa80a785011ef6906e3","6617fad957f7c6a12ea16e26","6622cd7ab7da879c41de457e","image grid","p","","","","","Phylogenetic_Distractor_Nonthreat_target","800","ongrid","p","5","Phylogenetic","true","experimental"
"","null","html-keyboard-response","285","386586","0.0-13.0-2.24","2A6sp3Bz26","5f920aa80a785011ef6906e3","6617fad957f7c6a12ea16e26","6622cd7ab7da879c41de457e","
    <div id=""grid-container"">
        <!-- Grid items will be dynamically added here -->
    </div>    ","null","","","","","","","","","","","",""
"","null","html-keyboard-response","286","387289","0.0-13.0-0.25","2A6sp3Bz26","5f920aa80a785011ef6906e3","6617fad957f7c6a12ea16e26","6622cd7ab7da879c41de457e","fixation cross","null","","","","","","","","","","","",""
"","744","html-keyboard-response","287","388035","0.0-13.0-1.25","2A6sp3Bz26","5f920aa80a785011ef6906e3","6617fad957f7c6a12ea16e26","6622cd7ab7da879c41de457e","image grid","p","","","","","Phylogenetic_Distractor_Threat_target","800","ongrid","q","9","Phylogenetic","false","experimental"
"","null","html-keyboard-response","288","388189","0.0-13.0-2.25","2A6sp3Bz26","5f920aa80a785011ef6906e3","6617fad957f7c6a12ea16e26","6622cd7ab7da879c41de457e","
    <div id=""grid-container"">
        <!-- Grid items will be dynamically added here -->
    </div>    ","null","","","","","","","","","","","",""
"","null","html-keyboard-response","289","388892","0.0-13.0-0.26","2A6sp3Bz26","5f920aa80a785011ef6906e3","6617fad957f7c6a12ea16e26","6622cd7ab7da879c41de457e","fixation cross","null","","","","","","","","","","","",""
"","537","html-keyboard-response","290","389432","0.0-13.0-1.26","2A6sp3Bz26","5f920aa80a785011ef6906e3","6617fad957f7c6a12ea16e26","6622cd7ab7da879c41de457e","image grid","q","","","","","Phylogenetic_Distractor_Threat_target","800","ongrid","q","4","Phylogenetic","true","experimental"
"","null","html-keyboard-response","291","389585","0.0-13.0-2.26","2A6sp3Bz26","5f920aa80a785011ef6906e3","6617fad957f7c6a12ea16e26","6622cd7ab7da879c41de457e","
    <div id=""grid-container"">
        <!-- Grid items will be dynamically added here -->
    </div>    ","null","","","","","","","","","","","",""
"","null","html-keyboard-response","292","390288","0.0-13.0-0.27","2A6sp3Bz26","5f920aa80a785011ef6906e3","6617fad957f7c6a12ea16e26","6622cd7ab7da879c41de457e","fixation cross","null","","","","","","","","","","","",""
"","null","html-keyboard-response","293","391091","0.0-13.0-1.27","2A6sp3Bz26","5f920aa80a785011ef6906e3","6617fad957f7c6a12ea16e26","6622cd7ab7da879c41de457e","
        <div id=""grid-container"">
        <!-- Grid items will be dynamically added here -->
    </div>    ","null","","","","","","","","","","","",""
"","869","html-keyboard-response","294","391162","0.0-13.0-2.27","2A6sp3Bz26","5f920aa80a785011ef6906e3","6617fad957f7c6a12ea16e26","6622cd7ab7da879c41de457e","mask grid","p","","","","","Phylogenetic_Distractor_Nonthreat_target","800","onmask","p","6","Phylogenetic","true","experimental"
"","null","html-keyboard-response","295","391866","0.0-13.0-0.28","2A6sp3Bz26","5f920aa80a785011ef6906e3","6617fad957f7c6a12ea16e26","6622cd7ab7da879c41de457e","fixation cross","null","","","","","","","","","","","",""
"","645","html-keyboard-response","296","392513","0.0-13.0-1.28","2A6sp3Bz26","5f920aa80a785011ef6906e3","6617fad957f7c6a12ea16e26","6622cd7ab7da879c41de457e","image grid","q","","","","","Phylogenetic_Distractor_Threat_target","800","ongrid","q","3","Phylogenetic","true","experimental"
"","null","html-keyboard-response","297","392667","0.0-13.0-2.28","2A6sp3Bz26","5f920aa80a785011ef6906e3","6617fad957f7c6a12ea16e26","6622cd7ab7da879c41de457e","
    <div id=""grid-container"">
        <!-- Grid items will be dynamically added here -->
    </div>    ","null","","","","","","","","","","","",""
"","null","html-keyboard-response","298","393371","0.0-13.0-0.29","2A6sp3Bz26","5f920aa80a785011ef6906e3","6617fad957f7c6a12ea16e26","6622cd7ab7da879c41de457e","fixation cross","null","","","","","","","","","","","",""
"","489","html-keyboard-response","299","393862","0.0-13.0-1.29","2A6sp3Bz26","5f920aa80a785011ef6906e3","6617fad957f7c6a12ea16e26","6622cd7ab7da879c41de457e","image grid","q","","","","","Phylogenetic_Distractor_Threat_target","800","ongrid","q","2","Phylogenetic","true","experimental"
"","null","html-keyboard-response","300","394016","0.0-13.0-2.29","2A6sp3Bz26","5f920aa80a785011ef6906e3","6617fad957f7c6a12ea16e26","6622cd7ab7da879c41de457e","
    <div id=""grid-container"">
        <!-- Grid items will be dynamically added here -->
    </div>    ","null","","","","","","","","","","","",""
"","null","html-keyboard-response","301","394719","0.0-13.0-0.30","2A6sp3Bz26","5f920aa80a785011ef6906e3","6617fad957f7c6a12ea16e26","6622cd7ab7da879c41de457e","fixation cross","null","","","","","","","","","","","",""
"","595","html-keyboard-response","302","395315","0.0-13.0-1.30","2A6sp3Bz26","5f920aa80a785011ef6906e3","6617fad957f7c6a12ea16e26","6622cd7ab7da879c41de457e","image grid","q","","","","","Phylogenetic_Distractor_Threat_target","800","ongrid","q","9","Phylogenetic","true","experimental"
"","null","html-keyboard-response","303","395469","0.0-13.0-2.30","2A6sp3Bz26","5f920aa80a785011ef6906e3","6617fad957f7c6a12ea16e26","6622cd7ab7da879c41de457e","
    <div id=""grid-container"">
        <!-- Grid items will be dynamically added here -->
    </div>    ","null","","","","","","","","","","","",""
"","null","html-keyboard-response","304","396172","0.0-13.0-0.31","2A6sp3Bz26","5f920aa80a785011ef6906e3","6617fad957f7c6a12ea16e26","6622cd7ab7da879c41de457e","fixation cross","null","","","","","","","","","","","",""
"","null","html-keyboard-response","305","396974","0.0-13.0-1.31","2A6sp3Bz26","5f920aa80a785011ef6906e3","6617fad957f7c6a12ea16e26","6622cd7ab7da879c41de457e","
        <div id=""grid-container"">
        <!-- Grid items will be dynamically added here -->
    </div>    ","null","","","","","","","","","","","",""
"","826","html-keyboard-response","306","397002","0.0-13.0-2.31","2A6sp3Bz26","5f920aa80a785011ef6906e3","6617fad957f7c6a12ea16e26","6622cd7ab7da879c41de457e","mask grid","q","","","","","Phylogenetic_Distractor_Threat_target","800","onmask","q","2","Phylogenetic","true","experimental"
"","null","html-keyboard-response","307","397705","0.0-13.0-0.32","2A6sp3Bz26","5f920aa80a785011ef6906e3","6617fad957f7c6a12ea16e26","6622cd7ab7da879c41de457e","fixation cross","null","","","","","","","","","","","",""
"","null","html-keyboard-response","308","398508","0.0-13.0-1.32","2A6sp3Bz26","5f920aa80a785011ef6906e3","6617fad957f7c6a12ea16e26","6622cd7ab7da879c41de457e","
        <div id=""grid-container"">
        <!-- Grid items will be dynamically added here -->
    </div>    ","null","","","","","","","","","","","",""
"","839","html-keyboard-response","309","398548","0.0-13.0-2.32","2A6sp3Bz26","5f920aa80a785011ef6906e3","6617fad957f7c6a12ea16e26","6622cd7ab7da879c41de457e","mask grid","p","","","","","Phylogenetic_Distractor_Nonthreat_target","800","onmask","p","6","Phylogenetic","true","experimental"
"","null","html-keyboard-response","310","399252","0.0-13.0-0.33","2A6sp3Bz26","5f920aa80a785011ef6906e3","6617fad957f7c6a12ea16e26","6622cd7ab7da879c41de457e","fixation cross","null","","","","","","","","","","","",""
"","641","html-keyboard-response","311","399895","0.0-13.0-1.33","2A6sp3Bz26","5f920aa80a785011ef6906e3","6617fad957f7c6a12ea16e26","6622cd7ab7da879c41de457e","image grid","q","","","","","Phylogenetic_Distractor_Threat_target","800","ongrid","q","2","Phylogenetic","true","experimental"
"","null","html-keyboard-response","312","400049","0.0-13.0-2.33","2A6sp3Bz26","5f920aa80a785011ef6906e3","6617fad957f7c6a12ea16e26","6622cd7ab7da879c41de457e","
    <div id=""grid-container"">
        <!-- Grid items will be dynamically added here -->
    </div>    ","null","","","","","","","","","","","",""
"","null","html-keyboard-response","313","400752","0.0-13.0-0.34","2A6sp3Bz26","5f920aa80a785011ef6906e3","6617fad957f7c6a12ea16e26","6622cd7ab7da879c41de457e","fixation cross","null","","","","","","","","","","","",""
"","795","html-keyboard-response","314","401549","0.0-13.0-1.34","2A6sp3Bz26","5f920aa80a785011ef6906e3","6617fad957f7c6a12ea16e26","6622cd7ab7da879c41de457e","image grid","p","","","","","Phylogenetic_Distractor_notarget","800","ongrid"," ","2","Phylogenetic","false","experimental"
"","null","html-keyboard-response","315","401703","0.0-13.0-2.34","2A6sp3Bz26","5f920aa80a785011ef6906e3","6617fad957f7c6a12ea16e26","6622cd7ab7da879c41de457e","
    <div id=""grid-container"">
        <!-- Grid items will be dynamically added here -->
    </div>    ","null","","","","","","","","","","","",""
"","null","html-keyboard-response","316","402405","0.0-13.0-0.35","2A6sp3Bz26","5f920aa80a785011ef6906e3","6617fad957f7c6a12ea16e26","6622cd7ab7da879c41de457e","fixation cross","null","","","","","","","","","","","",""
"","546","html-keyboard-response","317","402953","0.0-13.0-1.35","2A6sp3Bz26","5f920aa80a785011ef6906e3","6617fad957f7c6a12ea16e26","6622cd7ab7da879c41de457e","image grid","q","","","","","Phylogenetic_Distractor_Threat_target","800","ongrid","q","7","Phylogenetic","true","experimental"
"","null","html-keyboard-response","318","403107","0.0-13.0-2.35","2A6sp3Bz26","5f920aa80a785011ef6906e3","6617fad957f7c6a12ea16e26","6622cd7ab7da879c41de457e","
    <div id=""grid-container"">
        <!-- Grid items will be dynamically added here -->
    </div>    ","null","","","","","","","","","","","",""
"","null","html-keyboard-response","319","403810","0.0-13.0-0.36","2A6sp3Bz26","5f920aa80a785011ef6906e3","6617fad957f7c6a12ea16e26","6622cd7ab7da879c41de457e","fixation cross","null","","","","","","","","","","","",""
"","713","html-keyboard-response","320","404525","0.0-13.0-1.36","2A6sp3Bz26","5f920aa80a785011ef6906e3","6617fad957f7c6a12ea16e26","6622cd7ab7da879c41de457e","image grid","p","","","","","Phylogenetic_Distractor_Nonthreat_target","800","ongrid","p","7","Phylogenetic","true","experimental"
"","null","html-keyboard-response","321","404679","0.0-13.0-2.36","2A6sp3Bz26","5f920aa80a785011ef6906e3","6617fad957f7c6a12ea16e26","6622cd7ab7da879c41de457e","
    <div id=""grid-container"">
        <!-- Grid items will be dynamically added here -->
    </div>    ","null","","","","","","","","","","","",""
"","null","html-keyboard-response","322","405382","0.0-13.0-0.37","2A6sp3Bz26","5f920aa80a785011ef6906e3","6617fad957f7c6a12ea16e26","6622cd7ab7da879c41de457e","fixation cross","null","","","","","","","","","","","",""
"","738","html-keyboard-response","323","406122","0.0-13.0-1.37","2A6sp3Bz26","5f920aa80a785011ef6906e3","6617fad957f7c6a12ea16e26","6622cd7ab7da879c41de457e","image grid","p","","","","","Phylogenetic_Distractor_Nonthreat_target","800","ongrid","p","3","Phylogenetic","true","experimental"
"","null","html-keyboard-response","324","406276","0.0-13.0-2.37","2A6sp3Bz26","5f920aa80a785011ef6906e3","6617fad957f7c6a12ea16e26","6622cd7ab7da879c41de457e","
    <div id=""grid-container"">
        <!-- Grid items will be dynamically added here -->
    </div>    ","null","","","","","","","","","","","",""
"","null","html-keyboard-response","325","406979","0.0-13.0-0.38","2A6sp3Bz26","5f920aa80a785011ef6906e3","6617fad957f7c6a12ea16e26","6622cd7ab7da879c41de457e","fixation cross","null","","","","","","","","","","","",""
"","661","html-keyboard-response","326","407642","0.0-13.0-1.38","2A6sp3Bz26","5f920aa80a785011ef6906e3","6617fad957f7c6a12ea16e26","6622cd7ab7da879c41de457e","image grid","q","","","","","Phylogenetic_Distractor_Threat_target","800","ongrid","q","1","Phylogenetic","true","experimental"
"","null","html-keyboard-response","327","407796","0.0-13.0-2.38","2A6sp3Bz26","5f920aa80a785011ef6906e3","6617fad957f7c6a12ea16e26","6622cd7ab7da879c41de457e","
    <div id=""grid-container"">
        <!-- Grid items will be dynamically added here -->
    </div>    ","null","","","","","","","","","","","",""
"","null","html-keyboard-response","328","408498","0.0-13.0-0.39","2A6sp3Bz26","5f920aa80a785011ef6906e3","6617fad957f7c6a12ea16e26","6622cd7ab7da879c41de457e","fixation cross","null","","","","","","","","","","","",""
"","688","html-keyboard-response","329","409188","0.0-13.0-1.39","2A6sp3Bz26","5f920aa80a785011ef6906e3","6617fad957f7c6a12ea16e26","6622cd7ab7da879c41de457e","image grid","p","","","","","Phylogenetic_Distractor_Nonthreat_target","800","ongrid","p","7","Phylogenetic","true","experimental"
"","null","html-keyboard-response","330","409342","0.0-13.0-2.39","2A6sp3Bz26","5f920aa80a785011ef6906e3","6617fad957f7c6a12ea16e26","6622cd7ab7da879c41de457e","
    <div id=""grid-container"">
        <!-- Grid items will be dynamically added here -->
    </div>    ","null","","","","","","","","","","","",""
"","1448","html-keyboard-response","331","410994","0.0-14.0","2A6sp3Bz26","5f920aa80a785011ef6906e3","6617fad957f7c6a12ea16e26","6622cd7ab7da879c41de457e","break screen"," ","","","","","","","","","","","",""
"","null","html-keyboard-response","332","413497","0.0-15.0-0.0","2A6sp3Bz26","5f920aa80a785011ef6906e3","6617fad957f7c6a12ea16e26","6622cd7ab7da879c41de457e","fixation cross","null","","","","","","","","","","","",""
"","913","html-keyboard-response","333","414411","0.0-15.0-1.0","2A6sp3Bz26","5f920aa80a785011ef6906e3","6617fad957f7c6a12ea16e26","6622cd7ab7da879c41de457e","image grid","p","","","","","Ontogenetic_Distractor_notarget","2500","ongrid"," ","7","Ontogenetic","false","experimental"
"","null","html-keyboard-response","334","415039","0.0-15.0-2.0","2A6sp3Bz26","5f920aa80a785011ef6906e3","6617fad957f7c6a12ea16e26","6622cd7ab7da879c41de457e","
    <div id=""grid-container"">
        <!-- Grid items will be dynamically added here -->
    </div>    ","null","","","","","","","","","","","",""
"","null","html-keyboard-response","335","415742","0.0-15.0-0.1","2A6sp3Bz26","5f920aa80a785011ef6906e3","6617fad957f7c6a12ea16e26","6622cd7ab7da879c41de457e","fixation cross","null","","","","","","","","","","","",""
"","611","html-keyboard-response","336","416354","0.0-15.0-1.1","2A6sp3Bz26","5f920aa80a785011ef6906e3","6617fad957f7c6a12ea16e26","6622cd7ab7da879c41de457e","image grid","q","","","","","Ontogenetic_Distractor_Threat_target","2500","ongrid","q","3","Ontogenetic","true","experimental"
"","null","html-keyboard-response","337","416508","0.0-15.0-2.1","2A6sp3Bz26","5f920aa80a785011ef6906e3","6617fad957f7c6a12ea16e26","6622cd7ab7da879c41de457e","
    <div id=""grid-container"">
        <!-- Grid items will be dynamically added here -->
    </div>    ","null","","","","","","","","","","","",""
"","null","html-keyboard-response","338","417211","0.0-15.0-0.2","2A6sp3Bz26","5f920aa80a785011ef6906e3","6617fad957f7c6a12ea16e26","6622cd7ab7da879c41de457e","fixation cross","null","","","","","","","","","","","",""
"","761","html-keyboard-response","339","417974","0.0-15.0-1.2","2A6sp3Bz26","5f920aa80a785011ef6906e3","6617fad957f7c6a12ea16e26","6622cd7ab7da879c41de457e","image grid","p","","","","","Ontogenetic_Distractor_notarget","2500","ongrid"," ","8","Ontogenetic","false","experimental"
"","null","html-keyboard-response","340","418128","0.0-15.0-2.2","2A6sp3Bz26","5f920aa80a785011ef6906e3","6617fad957f7c6a12ea16e26","6622cd7ab7da879c41de457e","
    <div id=""grid-container"">
        <!-- Grid items will be dynamically added here -->
    </div>    ","null","","","","","","","","","","","",""
"","null","html-keyboard-response","341","418832","0.0-15.0-0.3","2A6sp3Bz26","5f920aa80a785011ef6906e3","6617fad957f7c6a12ea16e26","6622cd7ab7da879c41de457e","fixation cross","null","","","","","","","","","","","",""
"","1675","html-keyboard-response","342","420509","0.0-15.0-1.3","2A6sp3Bz26","5f920aa80a785011ef6906e3","6617fad957f7c6a12ea16e26","6622cd7ab7da879c41de457e","image grid","q","","","","","Ontogenetic_Distractor_Threat_target","2500","ongrid","q","8","Ontogenetic","true","experimental"
"","null","html-keyboard-response","343","420662","0.0-15.0-2.3","2A6sp3Bz26","5f920aa80a785011ef6906e3","6617fad957f7c6a12ea16e26","6622cd7ab7da879c41de457e","
    <div id=""grid-container"">
        <!-- Grid items will be dynamically added here -->
    </div>    ","null","","","","","","","","","","","",""
"","null","html-keyboard-response","344","421366","0.0-15.0-0.4","2A6sp3Bz26","5f920aa80a785011ef6906e3","6617fad957f7c6a12ea16e26","6622cd7ab7da879c41de457e","fixation cross","null","","","","","","","","","","","",""
"","800","html-keyboard-response","345","422168","0.0-15.0-1.4","2A6sp3Bz26","5f920aa80a785011ef6906e3","6617fad957f7c6a12ea16e26","6622cd7ab7da879c41de457e","image grid","q","","","","","Ontogenetic_Distractor_Threat_target","2500","ongrid","q","9","Ontogenetic","true","experimental"
"","null","html-keyboard-response","346","422323","0.0-15.0-2.4","2A6sp3Bz26","5f920aa80a785011ef6906e3","6617fad957f7c6a12ea16e26","6622cd7ab7da879c41de457e","
    <div id=""grid-container"">
        <!-- Grid items will be dynamically added here -->
    </div>    ","null","","","","","","","","","","","",""
"","null","html-keyboard-response","347","423025","0.0-15.0-0.5","2A6sp3Bz26","5f920aa80a785011ef6906e3","6617fad957f7c6a12ea16e26","6622cd7ab7da879c41de457e","fixation cross","null","","","","","","","","","","","",""
"","959","html-keyboard-response","348","423986","0.0-15.0-1.5","2A6sp3Bz26","5f920aa80a785011ef6906e3","6617fad957f7c6a12ea16e26","6622cd7ab7da879c41de457e","image grid","p","","","","","Ontogenetic_Distractor_notarget","2500","ongrid"," ","3","Ontogenetic","false","experimental"
"","null","html-keyboard-response","349","424141","0.0-15.0-2.5","2A6sp3Bz26","5f920aa80a785011ef6906e3","6617fad957f7c6a12ea16e26","6622cd7ab7da879c41de457e","
    <div id=""grid-container"">
        <!-- Grid items will be dynamically added here -->
    </div>    ","null","","","","","","","","","","","",""
"","null","html-keyboard-response","350","424843","0.0-15.0-0.6","2A6sp3Bz26","5f920aa80a785011ef6906e3","6617fad957f7c6a12ea16e26","6622cd7ab7da879c41de457e","fixation cross","null","","","","","","","","","","","",""
"","720","html-keyboard-response","351","425565","0.0-15.0-1.6","2A6sp3Bz26","5f920aa80a785011ef6906e3","6617fad957f7c6a12ea16e26","6622cd7ab7da879c41de457e","image grid","q","","","","","Ontogenetic_Distractor_Threat_target","2500","ongrid","q","8","Ontogenetic","true","experimental"
"","null","html-keyboard-response","352","425721","0.0-15.0-2.6","2A6sp3Bz26","5f920aa80a785011ef6906e3","6617fad957f7c6a12ea16e26","6622cd7ab7da879c41de457e","
    <div id=""grid-container"">
        <!-- Grid items will be dynamically added here -->
    </div>    ","null","","","","","","","","","","","",""
"","null","html-keyboard-response","353","426424","0.0-15.0-0.7","2A6sp3Bz26","5f920aa80a785011ef6906e3","6617fad957f7c6a12ea16e26","6622cd7ab7da879c41de457e","fixation cross","null","","","","","","","","","","","",""
"","797","html-keyboard-response","354","427223","0.0-15.0-1.7","2A6sp3Bz26","5f920aa80a785011ef6906e3","6617fad957f7c6a12ea16e26","6622cd7ab7da879c41de457e","image grid","p","","","","","Ontogenetic_Distractor_Nonthreat_target","2500","ongrid","p","8","Ontogenetic","true","experimental"
"","null","html-keyboard-response","355","427377","0.0-15.0-2.7","2A6sp3Bz26","5f920aa80a785011ef6906e3","6617fad957f7c6a12ea16e26","6622cd7ab7da879c41de457e","
    <div id=""grid-container"">
        <!-- Grid items will be dynamically added here -->
    </div>    ","null","","","","","","","","","","","",""
"","null","html-keyboard-response","356","428079","0.0-15.0-0.8","2A6sp3Bz26","5f920aa80a785011ef6906e3","6617fad957f7c6a12ea16e26","6622cd7ab7da879c41de457e","fixation cross","null","","","","","","","","","","","",""
"","630","html-keyboard-response","357","428711","0.0-15.0-1.8","2A6sp3Bz26","5f920aa80a785011ef6906e3","6617fad957f7c6a12ea16e26","6622cd7ab7da879c41de457e","image grid","p","","","","","Ontogenetic_Distractor_Nonthreat_target","2500","ongrid","p","4","Ontogenetic","true","experimental"
"","null","html-keyboard-response","358","428865","0.0-15.0-2.8","2A6sp3Bz26","5f920aa80a785011ef6906e3","6617fad957f7c6a12ea16e26","6622cd7ab7da879c41de457e","
    <div id=""grid-container"">
        <!-- Grid items will be dynamically added here -->
    </div>    ","null","","","","","","","","","","","",""
"","null","html-keyboard-response","359","429568","0.0-15.0-0.9","2A6sp3Bz26","5f920aa80a785011ef6906e3","6617fad957f7c6a12ea16e26","6622cd7ab7da879c41de457e","fixation cross","null","","","","","","","","","","","",""
"","724","html-keyboard-response","360","430294","0.0-15.0-1.9","2A6sp3Bz26","5f920aa80a785011ef6906e3","6617fad957f7c6a12ea16e26","6622cd7ab7da879c41de457e","image grid","p","","","","","Ontogenetic_Distractor_Threat_target","2500","ongrid","q","2","Ontogenetic","false","experimental"
"","null","html-keyboard-response","361","430449","0.0-15.0-2.9","2A6sp3Bz26","5f920aa80a785011ef6906e3","6617fad957f7c6a12ea16e26","6622cd7ab7da879c41de457e","
    <div id=""grid-container"">
        <!-- Grid items will be dynamically added here -->
    </div>    ","null","","","","","","","","","","","",""
"","null","html-keyboard-response","362","431152","0.0-15.0-0.10","2A6sp3Bz26","5f920aa80a785011ef6906e3","6617fad957f7c6a12ea16e26","6622cd7ab7da879c41de457e","fixation cross","null","","","","","","","","","","","",""
"","670","html-keyboard-response","363","431824","0.0-15.0-1.10","2A6sp3Bz26","5f920aa80a785011ef6906e3","6617fad957f7c6a12ea16e26","6622cd7ab7da879c41de457e","image grid","p","","","","","Ontogenetic_Distractor_Nonthreat_target","2500","ongrid","p","4","Ontogenetic","true","experimental"
"","null","html-keyboard-response","364","431978","0.0-15.0-2.10","2A6sp3Bz26","5f920aa80a785011ef6906e3","6617fad957f7c6a12ea16e26","6622cd7ab7da879c41de457e","
    <div id=""grid-container"">
        <!-- Grid items will be dynamically added here -->
    </div>    ","null","","","","","","","","","","","",""
"","null","html-keyboard-response","365","432682","0.0-15.0-0.11","2A6sp3Bz26","5f920aa80a785011ef6906e3","6617fad957f7c6a12ea16e26","6622cd7ab7da879c41de457e","fixation cross","null","","","","","","","","","","","",""
"","859","html-keyboard-response","366","433543","0.0-15.0-1.11","2A6sp3Bz26","5f920aa80a785011ef6906e3","6617fad957f7c6a12ea16e26","6622cd7ab7da879c41de457e","image grid","q","","","","","Ontogenetic_Distractor_Threat_target","2500","ongrid","q","5","Ontogenetic","true","experimental"
"","null","html-keyboard-response","367","433697","0.0-15.0-2.11","2A6sp3Bz26","5f920aa80a785011ef6906e3","6617fad957f7c6a12ea16e26","6622cd7ab7da879c41de457e","
    <div id=""grid-container"">
        <!-- Grid items will be dynamically added here -->
    </div>    ","null","","","","","","","","","","","",""
"","null","html-keyboard-response","368","434401","0.0-15.0-0.12","2A6sp3Bz26","5f920aa80a785011ef6906e3","6617fad957f7c6a12ea16e26","6622cd7ab7da879c41de457e","fixation cross","null","","","","","","","","","","","",""
"","743","html-keyboard-response","369","435146","0.0-15.0-1.12","2A6sp3Bz26","5f920aa80a785011ef6906e3","6617fad957f7c6a12ea16e26","6622cd7ab7da879c41de457e","image grid","p","","","","","Ontogenetic_Distractor_Nonthreat_target","2500","ongrid","p","6","Ontogenetic","true","experimental"
"","null","html-keyboard-response","370","435300","0.0-15.0-2.12","2A6sp3Bz26","5f920aa80a785011ef6906e3","6617fad957f7c6a12ea16e26","6622cd7ab7da879c41de457e","
    <div id=""grid-container"">
        <!-- Grid items will be dynamically added here -->
