"success","rt","trial_type","trial_index","time_elapsed","internal_node_id","unique_identifier","subject_id","study_id","session_id","stimulus","response","timeout","failed_images","failed_audio","failed_video","task","time_manipulation","respondedwhen","correctresponse","targetimagelocation","blocktype","correct","roundtype"
"true","153402","fullscreen","0","154404","0.0-0.0","0hh5mZ8heY","5df416a57bf5722f9a501255","6617fad957f7c6a12ea16e26","6622d0992d38107c676d2348","","","","","","","","","","","","","",""
"","22567","html-keyboard-response","1","176972","0.0-1.0","0hh5mZ8heY","5df416a57bf5722f9a501255","6617fad957f7c6a12ea16e26","6622d0992d38107c676d2348","instruction screen 0","f","","","","","","","","","","","",""
"true","","preload","2","179792","0.0-2.0","0hh5mZ8heY","5df416a57bf5722f9a501255","6617fad957f7c6a12ea16e26","6622d0992d38107c676d2348","","","false","[]","[]","[]","","","","","","","",""
"","78275","html-keyboard-response","3","258068","0.0-3.0","0hh5mZ8heY","5df416a57bf5722f9a501255","6617fad957f7c6a12ea16e26","6622d0992d38107c676d2348","instruction screen 1","h","","","","","","","","","","","",""
"","9145","html-keyboard-response","4","267229","0.0-4.0","0hh5mZ8heY","5df416a57bf5722f9a501255","6617fad957f7c6a12ea16e26","6622d0992d38107c676d2348","instruction screen 2","q","","","","","","","","","","","",""
"","6515","html-keyboard-response","5","273761","0.0-5.0","0hh5mZ8heY","5df416a57bf5722f9a501255","6617fad957f7c6a12ea16e26","6622d0992d38107c676d2348","instruction screen 3","p","","","","","","","","","","","",""
"","7633","html-keyboard-response","6","281408","0.0-6.0","0hh5mZ8heY","5df416a57bf5722f9a501255","6617fad957f7c6a12ea16e26","6622d0992d38107c676d2348","instruction screen 4"," ","","","","","","","","","","","",""
"","6251","html-keyboard-response","7","287675","0.0-7.0","0hh5mZ8heY","5df416a57bf5722f9a501255","6617fad957f7c6a12ea16e26","6622d0992d38107c676d2348","instruction screen 5"," ","","","","","","","","","","","",""
"","null","html-keyboard-response","8","288202","0.0-8.0","0hh5mZ8heY","5df416a57bf5722f9a501255","6617fad957f7c6a12ea16e26","6622d0992d38107c676d2348","fixation cross","null","","","","","","","","","","","",""
"","null","html-keyboard-response","9","288716","0.0-9.0-0.0","0hh5mZ8heY","5df416a57bf5722f9a501255","6617fad957f7c6a12ea16e26","6622d0992d38107c676d2348","fixation cross","null","","","","","","","","","","","",""
"","1605","html-keyboard-response","10","290320","0.0-9.0-1.0","0hh5mZ8heY","5df416a57bf5722f9a501255","6617fad957f7c6a12ea16e26","6622d0992d38107c676d2348","image grid","p","","","","","Phylogenetic_Distractor_Nonthreat_target","3000","ongrid","p","5","Ontogenetic","true","practice"
"","null","html-keyboard-response","11","290478","0.0-9.0-2.0","0hh5mZ8heY","5df416a57bf5722f9a501255","6617fad957f7c6a12ea16e26","6622d0992d38107c676d2348","
    <div id=""grid-container"">
        <!-- Grid items will be dynamically added here -->
    </div>    ","null","","","","","","","","","","","",""
"","null","html-keyboard-response","12","291695","0.0-9.0-3.0","0hh5mZ8heY","5df416a57bf5722f9a501255","6617fad957f7c6a12ea16e26","6622d0992d38107c676d2348","feedback screen","null","","","","","","","","","","","",""
"","null","html-keyboard-response","13","292211","0.0-9.0-0.1","0hh5mZ8heY","5df416a57bf5722f9a501255","6617fad957f7c6a12ea16e26","6622d0992d38107c676d2348","fixation cross","null","","","","","","","","","","","",""
"","2847","html-keyboard-response","14","295058","0.0-9.0-1.1","0hh5mZ8heY","5df416a57bf5722f9a501255","6617fad957f7c6a12ea16e26","6622d0992d38107c676d2348","image grid"," ","","","","","Ontogenetic_Distractor_notarget","2900","ongrid"," ","9","Ontogenetic","true","practice"
"","null","html-keyboard-response","15","295214","0.0-9.0-2.1","0hh5mZ8heY","5df416a57bf5722f9a501255","6617fad957f7c6a12ea16e26","6622d0992d38107c676d2348","
    <div id=""grid-container"">
        <!-- Grid items will be dynamically added here -->
    </div>    ","null","","","","","","","","","","","",""
"","null","html-keyboard-response","16","296420","0.0-9.0-3.1","0hh5mZ8heY","5df416a57bf5722f9a501255","6617fad957f7c6a12ea16e26","6622d0992d38107c676d2348","feedback screen","null","","","","","","","","","","","",""
"","null","html-keyboard-response","17","296936","0.0-9.0-0.2","0hh5mZ8heY","5df416a57bf5722f9a501255","6617fad957f7c6a12ea16e26","6622d0992d38107c676d2348","fixation cross","null","","","","","","","","","","","",""
"","2073","html-keyboard-response","18","299009","0.0-9.0-1.2","0hh5mZ8heY","5df416a57bf5722f9a501255","6617fad957f7c6a12ea16e26","6622d0992d38107c676d2348","image grid"," ","","","","","Phylogenetic_Distractor_notarget","2800","ongrid"," ","4","Ontogenetic","true","practice"
"","null","html-keyboard-response","19","299163","0.0-9.0-2.2","0hh5mZ8heY","5df416a57bf5722f9a501255","6617fad957f7c6a12ea16e26","6622d0992d38107c676d2348","
    <div id=""grid-container"">
        <!-- Grid items will be dynamically added here -->
    </div>    ","null","","","","","","","","","","","",""
"","null","html-keyboard-response","20","300374","0.0-9.0-3.2","0hh5mZ8heY","5df416a57bf5722f9a501255","6617fad957f7c6a12ea16e26","6622d0992d38107c676d2348","feedback screen","null","","","","","","","","","","","",""
"","null","html-keyboard-response","21","300880","0.0-9.0-0.3","0hh5mZ8heY","5df416a57bf5722f9a501255","6617fad957f7c6a12ea16e26","6622d0992d38107c676d2348","fixation cross","null","","","","","","","","","","","",""
"","2133","html-keyboard-response","22","303014","0.0-9.0-1.3","0hh5mZ8heY","5df416a57bf5722f9a501255","6617fad957f7c6a12ea16e26","6622d0992d38107c676d2348","image grid"," ","","","","","Ontogenetic_Distractor_notarget","2700","ongrid"," ","1","Ontogenetic","true","practice"
"","null","html-keyboard-response","23","303176","0.0-9.0-2.3","0hh5mZ8heY","5df416a57bf5722f9a501255","6617fad957f7c6a12ea16e26","6622d0992d38107c676d2348","
    <div id=""grid-container"">
        <!-- Grid items will be dynamically added here -->
    </div>    ","null","","","","","","","","","","","",""
"","null","html-keyboard-response","24","304386","0.0-9.0-3.3","0hh5mZ8heY","5df416a57bf5722f9a501255","6617fad957f7c6a12ea16e26","6622d0992d38107c676d2348","feedback screen","null","","","","","","","","","","","",""
"","null","html-keyboard-response","25","304890","0.0-9.0-0.4","0hh5mZ8heY","5df416a57bf5722f9a501255","6617fad957f7c6a12ea16e26","6622d0992d38107c676d2348","fixation cross","null","","","","","","","","","","","",""
"","1427","html-keyboard-response","26","306317","0.0-9.0-1.4","0hh5mZ8heY","5df416a57bf5722f9a501255","6617fad957f7c6a12ea16e26","6622d0992d38107c676d2348","image grid","q","","","","","Ontogenetic_Distractor_Threat_target","2600","ongrid","q","2","Ontogenetic","true","practice"
"","null","html-keyboard-response","27","306468","0.0-9.0-2.4","0hh5mZ8heY","5df416a57bf5722f9a501255","6617fad957f7c6a12ea16e26","6622d0992d38107c676d2348","
    <div id=""grid-container"">
        <!-- Grid items will be dynamically added here -->
    </div>    ","null","","","","","","","","","","","",""
"","null","html-keyboard-response","28","307681","0.0-9.0-3.4","0hh5mZ8heY","5df416a57bf5722f9a501255","6617fad957f7c6a12ea16e26","6622d0992d38107c676d2348","feedback screen","null","","","","","","","","","","","",""
"","null","html-keyboard-response","29","308196","0.0-9.0-0.5","0hh5mZ8heY","5df416a57bf5722f9a501255","6617fad957f7c6a12ea16e26","6622d0992d38107c676d2348","fixation cross","null","","","","","","","","","","","",""
"","1496","html-keyboard-response","30","309692","0.0-9.0-1.5","0hh5mZ8heY","5df416a57bf5722f9a501255","6617fad957f7c6a12ea16e26","6622d0992d38107c676d2348","image grid","q","","","","","Phylogenetic_Distractor_Threat_target","2500","ongrid","q","4","Ontogenetic","true","practice"
"","null","html-keyboard-response","31","309845","0.0-9.0-2.5","0hh5mZ8heY","5df416a57bf5722f9a501255","6617fad957f7c6a12ea16e26","6622d0992d38107c676d2348","
    <div id=""grid-container"">
        <!-- Grid items will be dynamically added here -->
    </div>    ","null","","","","","","","","","","","",""
"","null","html-keyboard-response","32","311054","0.0-9.0-3.5","0hh5mZ8heY","5df416a57bf5722f9a501255","6617fad957f7c6a12ea16e26","6622d0992d38107c676d2348","feedback screen","null","","","","","","","","","","","",""
"","null","html-keyboard-response","33","311567","0.0-9.0-0.6","0hh5mZ8heY","5df416a57bf5722f9a501255","6617fad957f7c6a12ea16e26","6622d0992d38107c676d2348","fixation cross","null","","","","","","","","","","","",""
"","1237","html-keyboard-response","34","312804","0.0-9.0-1.6","0hh5mZ8heY","5df416a57bf5722f9a501255","6617fad957f7c6a12ea16e26","6622d0992d38107c676d2348","image grid","p","","","","","Ontogenetic_Distractor_Nonthreat_target","2400","ongrid","p","2","Ontogenetic","true","practice"
"","null","html-keyboard-response","35","312957","0.0-9.0-2.6","0hh5mZ8heY","5df416a57bf5722f9a501255","6617fad957f7c6a12ea16e26","6622d0992d38107c676d2348","
    <div id=""grid-container"">
        <!-- Grid items will be dynamically added here -->
    </div>    ","null","","","","","","","","","","","",""
"","null","html-keyboard-response","36","314163","0.0-9.0-3.6","0hh5mZ8heY","5df416a57bf5722f9a501255","6617fad957f7c6a12ea16e26","6622d0992d38107c676d2348","feedback screen","null","","","","","","","","","","","",""
"","null","html-keyboard-response","37","314667","0.0-9.0-0.7","0hh5mZ8heY","5df416a57bf5722f9a501255","6617fad957f7c6a12ea16e26","6622d0992d38107c676d2348","fixation cross","null","","","","","","","","","","","",""
"","2066","html-keyboard-response","38","316733","0.0-9.0-1.7","0hh5mZ8heY","5df416a57bf5722f9a501255","6617fad957f7c6a12ea16e26","6622d0992d38107c676d2348","image grid","q","","","","","Phylogenetic_Distractor_Threat_target","2300","ongrid","q","8","Ontogenetic","true","practice"
"","null","html-keyboard-response","39","316892","0.0-9.0-2.7","0hh5mZ8heY","5df416a57bf5722f9a501255","6617fad957f7c6a12ea16e26","6622d0992d38107c676d2348","
    <div id=""grid-container"">
        <!-- Grid items will be dynamically added here -->
    </div>    ","null","","","","","","","","","","","",""
"","null","html-keyboard-response","40","318106","0.0-9.0-3.7","0hh5mZ8heY","5df416a57bf5722f9a501255","6617fad957f7c6a12ea16e26","6622d0992d38107c676d2348","feedback screen","null","","","","","","","","","","","",""
"","null","html-keyboard-response","41","318623","0.0-9.0-0.8","0hh5mZ8heY","5df416a57bf5722f9a501255","6617fad957f7c6a12ea16e26","6622d0992d38107c676d2348","fixation cross","null","","","","","","","","","","","",""
"","1163","html-keyboard-response","42","319786","0.0-9.0-1.8","0hh5mZ8heY","5df416a57bf5722f9a501255","6617fad957f7c6a12ea16e26","6622d0992d38107c676d2348","image grid","q","","","","","Ontogenetic_Distractor_Threat_target","2200","ongrid","q","4","Ontogenetic","true","practice"
"","null","html-keyboard-response","43","319937","0.0-9.0-2.8","0hh5mZ8heY","5df416a57bf5722f9a501255","6617fad957f7c6a12ea16e26","6622d0992d38107c676d2348","
    <div id=""grid-container"">
        <!-- Grid items will be dynamically added here -->
    </div>    ","null","","","","","","","","","","","",""
"","null","html-keyboard-response","44","321146","0.0-9.0-3.8","0hh5mZ8heY","5df416a57bf5722f9a501255","6617fad957f7c6a12ea16e26","6622d0992d38107c676d2348","feedback screen","null","","","","","","","","","","","",""
"","null","html-keyboard-response","45","321650","0.0-9.0-0.9","0hh5mZ8heY","5df416a57bf5722f9a501255","6617fad957f7c6a12ea16e26","6622d0992d38107c676d2348","fixation cross","null","","","","","","","","","","","",""
"","982","html-keyboard-response","46","322632","0.0-9.0-1.9","0hh5mZ8heY","5df416a57bf5722f9a501255","6617fad957f7c6a12ea16e26","6622d0992d38107c676d2348","image grid","p","","","","","Ontogenetic_Distractor_Nonthreat_target","2100","ongrid","p","5","Ontogenetic","true","practice"
"","null","html-keyboard-response","47","322783","0.0-9.0-2.9","0hh5mZ8heY","5df416a57bf5722f9a501255","6617fad957f7c6a12ea16e26","6622d0992d38107c676d2348","
    <div id=""grid-container"">
        <!-- Grid items will be dynamically added here -->
    </div>    ","null","","","","","","","","","","","",""
"","null","html-keyboard-response","48","323990","0.0-9.0-3.9","0hh5mZ8heY","5df416a57bf5722f9a501255","6617fad957f7c6a12ea16e26","6622d0992d38107c676d2348","feedback screen","null","","","","","","","","","","","",""
"","null","html-keyboard-response","49","324503","0.0-9.0-0.10","0hh5mZ8heY","5df416a57bf5722f9a501255","6617fad957f7c6a12ea16e26","6622d0992d38107c676d2348","fixation cross","null","","","","","","","","","","","",""
"","1641","html-keyboard-response","50","326144","0.0-9.0-1.10","0hh5mZ8heY","5df416a57bf5722f9a501255","6617fad957f7c6a12ea16e26","6622d0992d38107c676d2348","image grid","q","","","","","Phylogenetic_Distractor_Nonthreat_target","2000","ongrid","p","6","Ontogenetic","false","practice"
"","null","html-keyboard-response","51","326308","0.0-9.0-2.10","0hh5mZ8heY","5df416a57bf5722f9a501255","6617fad957f7c6a12ea16e26","6622d0992d38107c676d2348","
    <div id=""grid-container"">
        <!-- Grid items will be dynamically added here -->
    </div>    ","null","","","","","","","","","","","",""
"","null","html-keyboard-response","52","327516","0.0-9.0-3.10","0hh5mZ8heY","5df416a57bf5722f9a501255","6617fad957f7c6a12ea16e26","6622d0992d38107c676d2348","feedback screen","null","","","","","","","","","","","",""
"","null","html-keyboard-response","53","328019","0.0-9.0-0.11","0hh5mZ8heY","5df416a57bf5722f9a501255","6617fad957f7c6a12ea16e26","6622d0992d38107c676d2348","fixation cross","null","","","","","","","","","","","",""
"","1086","html-keyboard-response","54","329105","0.0-9.0-1.11","0hh5mZ8heY","5df416a57bf5722f9a501255","6617fad957f7c6a12ea16e26","6622d0992d38107c676d2348","image grid","p","","","","","Ontogenetic_Distractor_Nonthreat_target","1900","ongrid","p","1","Ontogenetic","true","practice"
"","null","html-keyboard-response","55","329259","0.0-9.0-2.11","0hh5mZ8heY","5df416a57bf5722f9a501255","6617fad957f7c6a12ea16e26","6622d0992d38107c676d2348","
    <div id=""grid-container"">
        <!-- Grid items will be dynamically added here -->
    </div>    ","null","","","","","","","","","","","",""
"","null","html-keyboard-response","56","330470","0.0-9.0-3.11","0hh5mZ8heY","5df416a57bf5722f9a501255","6617fad957f7c6a12ea16e26","6622d0992d38107c676d2348","feedback screen","null","","","","","","","","","","","",""
"","null","html-keyboard-response","57","330974","0.0-9.0-0.12","0hh5mZ8heY","5df416a57bf5722f9a501255","6617fad957f7c6a12ea16e26","6622d0992d38107c676d2348","fixation cross","null","","","","","","","","","","","",""
"","null","html-keyboard-response","58","332781","0.0-9.0-1.12","0hh5mZ8heY","5df416a57bf5722f9a501255","6617fad957f7c6a12ea16e26","6622d0992d38107c676d2348","
        <div id=""grid-container"">
        <!-- Grid items will be dynamically added here -->
    </div>    ","null","","","","","","","","","","","",""
"","4607","html-keyboard-response","59","335588","0.0-9.0-2.12","0hh5mZ8heY","5df416a57bf5722f9a501255","6617fad957f7c6a12ea16e26","6622d0992d38107c676d2348","mask grid","q","","","","","Phylogenetic_Distractor_Threat_target","1800","onmask","q","3","Ontogenetic","true","practice"
"","null","html-keyboard-response","60","336800","0.0-9.0-3.12","0hh5mZ8heY","5df416a57bf5722f9a501255","6617fad957f7c6a12ea16e26","6622d0992d38107c676d2348","feedback screen","null","","","","","","","","","","","",""
"","null","html-keyboard-response","61","337303","0.0-9.0-0.13","0hh5mZ8heY","5df416a57bf5722f9a501255","6617fad957f7c6a12ea16e26","6622d0992d38107c676d2348","fixation cross","null","","","","","","","","","","","",""
"","1553","html-keyboard-response","62","338856","0.0-9.0-1.13","0hh5mZ8heY","5df416a57bf5722f9a501255","6617fad957f7c6a12ea16e26","6622d0992d38107c676d2348","image grid","p","","","","","Phylogenetic_Distractor_Nonthreat_target","1700","ongrid","p","5","Ontogenetic","true","practice"
"","null","html-keyboard-response","63","339011","0.0-9.0-2.13","0hh5mZ8heY","5df416a57bf5722f9a501255","6617fad957f7c6a12ea16e26","6622d0992d38107c676d2348","
    <div id=""grid-container"">
        <!-- Grid items will be dynamically added here -->
    </div>    ","null","","","","","","","","","","","",""
"","null","html-keyboard-response","64","340222","0.0-9.0-3.13","0hh5mZ8heY","5df416a57bf5722f9a501255","6617fad957f7c6a12ea16e26","6622d0992d38107c676d2348","feedback screen","null","","","","","","","","","","","",""
"","null","html-keyboard-response","65","340724","0.0-9.0-0.14","0hh5mZ8heY","5df416a57bf5722f9a501255","6617fad957f7c6a12ea16e26","6622d0992d38107c676d2348","fixation cross","null","","","","","","","","","","","",""
"","1410","html-keyboard-response","66","342135","0.0-9.0-1.14","0hh5mZ8heY","5df416a57bf5722f9a501255","6617fad957f7c6a12ea16e26","6622d0992d38107c676d2348","image grid","q","","","","","Ontogenetic_Distractor_Threat_target","1600","ongrid","q","4","Ontogenetic","true","practice"
"","null","html-keyboard-response","67","342299","0.0-9.0-2.14","0hh5mZ8heY","5df416a57bf5722f9a501255","6617fad957f7c6a12ea16e26","6622d0992d38107c676d2348","
    <div id=""grid-container"">
        <!-- Grid items will be dynamically added here -->
    </div>    ","null","","","","","","","","","","","",""
"","null","html-keyboard-response","68","343517","0.0-9.0-3.14","0hh5mZ8heY","5df416a57bf5722f9a501255","6617fad957f7c6a12ea16e26","6622d0992d38107c676d2348","feedback screen","null","","","","","","","","","","","",""
"","null","html-keyboard-response","69","344033","0.0-9.0-0.15","0hh5mZ8heY","5df416a57bf5722f9a501255","6617fad957f7c6a12ea16e26","6622d0992d38107c676d2348","fixation cross","null","","","","","","","","","","","",""
"","1088","html-keyboard-response","70","345121","0.0-9.0-1.15","0hh5mZ8heY","5df416a57bf5722f9a501255","6617fad957f7c6a12ea16e26","6622d0992d38107c676d2348","image grid","q","","","","","Ontogenetic_Distractor_Threat_target","1500","ongrid","q","9","Ontogenetic","true","practice"
"","null","html-keyboard-response","71","345273","0.0-9.0-2.15","0hh5mZ8heY","5df416a57bf5722f9a501255","6617fad957f7c6a12ea16e26","6622d0992d38107c676d2348","
    <div id=""grid-container"">
        <!-- Grid items will be dynamically added here -->
    </div>    ","null","","","","","","","","","","","",""
"","null","html-keyboard-response","72","346481","0.0-9.0-3.15","0hh5mZ8heY","5df416a57bf5722f9a501255","6617fad957f7c6a12ea16e26","6622d0992d38107c676d2348","feedback screen","null","","","","","","","","","","","",""
"","null","html-keyboard-response","73","346982","0.0-9.0-0.16","0hh5mZ8heY","5df416a57bf5722f9a501255","6617fad957f7c6a12ea16e26","6622d0992d38107c676d2348","fixation cross","null","","","","","","","","","","","",""
"","null","html-keyboard-response","74","348398","0.0-9.0-1.16","0hh5mZ8heY","5df416a57bf5722f9a501255","6617fad957f7c6a12ea16e26","6622d0992d38107c676d2348","
        <div id=""grid-container"">
        <!-- Grid items will be dynamically added here -->
    </div>    ","null","","","","","","","","","","","",""
"","1697","html-keyboard-response","75","348695","0.0-9.0-2.16","0hh5mZ8heY","5df416a57bf5722f9a501255","6617fad957f7c6a12ea16e26","6622d0992d38107c676d2348","mask grid","p","","","","","Phylogenetic_Distractor_Nonthreat_target","1400","onmask","p","8","Ontogenetic","true","practice"
"","null","html-keyboard-response","76","349903","0.0-9.0-3.16","0hh5mZ8heY","5df416a57bf5722f9a501255","6617fad957f7c6a12ea16e26","6622d0992d38107c676d2348","feedback screen","null","","","","","","","","","","","",""
"","null","html-keyboard-response","77","350419","0.0-9.0-0.17","0hh5mZ8heY","5df416a57bf5722f9a501255","6617fad957f7c6a12ea16e26","6622d0992d38107c676d2348","fixation cross","null","","","","","","","","","","","",""
"","null","html-keyboard-response","78","351735","0.0-9.0-1.17","0hh5mZ8heY","5df416a57bf5722f9a501255","6617fad957f7c6a12ea16e26","6622d0992d38107c676d2348","
        <div id=""grid-container"">
        <!-- Grid items will be dynamically added here -->
    </div>    ","null","","","","","","","","","","","",""
"","1827","html-keyboard-response","79","352263","0.0-9.0-2.17","0hh5mZ8heY","5df416a57bf5722f9a501255","6617fad957f7c6a12ea16e26","6622d0992d38107c676d2348","mask grid","p","","","","","Phylogenetic_Distractor_notarget","1300","onmask"," ","5","Ontogenetic","false","practice"
"","null","html-keyboard-response","80","353489","0.0-9.0-3.17","0hh5mZ8heY","5df416a57bf5722f9a501255","6617fad957f7c6a12ea16e26","6622d0992d38107c676d2348","feedback screen","null","","","","","","","","","","","",""
"","null","html-keyboard-response","81","353995","0.0-9.0-0.18","0hh5mZ8heY","5df416a57bf5722f9a501255","6617fad957f7c6a12ea16e26","6622d0992d38107c676d2348","fixation cross","null","","","","","","","","","","","",""
"","null","html-keyboard-response","82","355203","0.0-9.0-1.18","0hh5mZ8heY","5df416a57bf5722f9a501255","6617fad957f7c6a12ea16e26","6622d0992d38107c676d2348","
        <div id=""grid-container"">
        <!-- Grid items will be dynamically added here -->
    </div>    ","null","","","","","","","","","","","",""
"","1435","html-keyboard-response","83","355438","0.0-9.0-2.18","0hh5mZ8heY","5df416a57bf5722f9a501255","6617fad957f7c6a12ea16e26","6622d0992d38107c676d2348","mask grid","p","","","","","Ontogenetic_Distractor_Nonthreat_target","1200","onmask","p","3","Ontogenetic","true","practice"
"","null","html-keyboard-response","84","356650","0.0-9.0-3.18","0hh5mZ8heY","5df416a57bf5722f9a501255","6617fad957f7c6a12ea16e26","6622d0992d38107c676d2348","feedback screen","null","","","","","","","","","","","",""
"","null","html-keyboard-response","85","357152","0.0-9.0-0.19","0hh5mZ8heY","5df416a57bf5722f9a501255","6617fad957f7c6a12ea16e26","6622d0992d38107c676d2348","fixation cross","null","","","","","","","","","","","",""
"","1027","html-keyboard-response","86","358180","0.0-9.0-1.19","0hh5mZ8heY","5df416a57bf5722f9a501255","6617fad957f7c6a12ea16e26","6622d0992d38107c676d2348","image grid","q","","","","","Phylogenetic_Distractor_Threat_target","1100","ongrid","q","5","Ontogenetic","true","practice"
"","null","html-keyboard-response","87","358334","0.0-9.0-2.19","0hh5mZ8heY","5df416a57bf5722f9a501255","6617fad957f7c6a12ea16e26","6622d0992d38107c676d2348","
    <div id=""grid-container"">
        <!-- Grid items will be dynamically added here -->
    </div>    ","null","","","","","","","","","","","",""
"","null","html-keyboard-response","88","359542","0.0-9.0-3.19","0hh5mZ8heY","5df416a57bf5722f9a501255","6617fad957f7c6a12ea16e26","6622d0992d38107c676d2348","feedback screen","null","","","","","","","","","","","",""
"","6115","html-keyboard-response","89","365674","0.0-10.0","0hh5mZ8heY","5df416a57bf5722f9a501255","6617fad957f7c6a12ea16e26","6622d0992d38107c676d2348","pre-experimental_briefing","v","","","","","","","","","","","",""
"","null","html-keyboard-response","90","368195","0.0-11.0-0.0","0hh5mZ8heY","5df416a57bf5722f9a501255","6617fad957f7c6a12ea16e26","6622d0992d38107c676d2348","fixation cross","null","","","","","","","","","","","",""
"","null","html-keyboard-response","91","368996","0.0-11.0-1.0","0hh5mZ8heY","5df416a57bf5722f9a501255","6617fad957f7c6a12ea16e26","6622d0992d38107c676d2348","
        <div id=""grid-container"">
        <!-- Grid items will be dynamically added here -->
    </div>    ","null","","","","","","","","","","","",""
"","1910","html-keyboard-response","92","370106","0.0-11.0-2.0","0hh5mZ8heY","5df416a57bf5722f9a501255","6617fad957f7c6a12ea16e26","6622d0992d38107c676d2348","mask grid","q","","","","","Ontogenetic_Distractor_Threat_target","800","onmask","q","3","Ontogenetic","true","experimental"
"","null","html-keyboard-response","93","370822","0.0-11.0-0.1","0hh5mZ8heY","5df416a57bf5722f9a501255","6617fad957f7c6a12ea16e26","6622d0992d38107c676d2348","fixation cross","null","","","","","","","","","","","",""
"","null","html-keyboard-response","94","371623","0.0-11.0-1.1","0hh5mZ8heY","5df416a57bf5722f9a501255","6617fad957f7c6a12ea16e26","6622d0992d38107c676d2348","
        <div id=""grid-container"">
        <!-- Grid items will be dynamically added here -->
    </div>    ","null","","","","","","","","","","","",""
"","1702","html-keyboard-response","95","372524","0.0-11.0-2.1","0hh5mZ8heY","5df416a57bf5722f9a501255","6617fad957f7c6a12ea16e26","6622d0992d38107c676d2348","mask grid","p","","","","","Ontogenetic_Distractor_Nonthreat_target","800","onmask","p","8","Ontogenetic","true","experimental"
"","null","html-keyboard-response","96","373239","0.0-11.0-0.2","0hh5mZ8heY","5df416a57bf5722f9a501255","6617fad957f7c6a12ea16e26","6622d0992d38107c676d2348","fixation cross","null","","","","","","","","","","","",""
"","null","html-keyboard-response","97","374042","0.0-11.0-1.2","0hh5mZ8heY","5df416a57bf5722f9a501255","6617fad957f7c6a12ea16e26","6622d0992d38107c676d2348","
        <div id=""grid-container"">
        <!-- Grid items will be dynamically added here -->
    </div>    ","null","","","","","","","","","","","",""
"","1527","html-keyboard-response","98","374769","0.0-11.0-2.2","0hh5mZ8heY","5df416a57bf5722f9a501255","6617fad957f7c6a12ea16e26","6622d0992d38107c676d2348","mask grid","p","","","","","Ontogenetic_Distractor_Nonthreat_target","800","onmask","p","7","Ontogenetic","true","experimental"
"","null","html-keyboard-response","99","375490","0.0-11.0-0.3","0hh5mZ8heY","5df416a57bf5722f9a501255","6617fad957f7c6a12ea16e26","6622d0992d38107c676d2348","fixation cross","null","","","","","","","","","","","",""
"","null","html-keyboard-response","100","376306","0.0-11.0-1.3","0hh5mZ8heY","5df416a57bf5722f9a501255","6617fad957f7c6a12ea16e26","6622d0992d38107c676d2348","
        <div id=""grid-container"">
        <!-- Grid items will be dynamically added here -->
    </div>    ","null","","","","","","","","","","","",""
"","1672","html-keyboard-response","101","377178","0.0-11.0-2.3","0hh5mZ8heY","5df416a57bf5722f9a501255","6617fad957f7c6a12ea16e26","6622d0992d38107c676d2348","mask grid","p","","","","","Ontogenetic_Distractor_Nonthreat_target","800","onmask","p","1","Ontogenetic","true","experimental"
"","null","html-keyboard-response","102","377888","0.0-11.0-0.4","0hh5mZ8heY","5df416a57bf5722f9a501255","6617fad957f7c6a12ea16e26","6622d0992d38107c676d2348","fixation cross","null","","","","","","","","","","","",""
"","null","html-keyboard-response","103","378703","0.0-11.0-1.4","0hh5mZ8heY","5df416a57bf5722f9a501255","6617fad957f7c6a12ea16e26","6622d0992d38107c676d2348","
        <div id=""grid-container"">
        <!-- Grid items will be dynamically added here -->
    </div>    ","null","","","","","","","","","","","",""
"","1562","html-keyboard-response","104","379465","0.0-11.0-2.4","0hh5mZ8heY","5df416a57bf5722f9a501255","6617fad957f7c6a12ea16e26","6622d0992d38107c676d2348","mask grid"," ","","","","","Ontogenetic_Distractor_Nonthreat_target","800","onmask","p","5","Ontogenetic","false","experimental"
"","null","html-keyboard-response","105","380182","0.0-11.0-0.5","0hh5mZ8heY","5df416a57bf5722f9a501255","6617fad957f7c6a12ea16e26","6622d0992d38107c676d2348","fixation cross","null","","","","","","","","","","","",""
"","null","html-keyboard-response","106","380995","0.0-11.0-1.5","0hh5mZ8heY","5df416a57bf5722f9a501255","6617fad957f7c6a12ea16e26","6622d0992d38107c676d2348","
        <div id=""grid-container"">
        <!-- Grid items will be dynamically added here -->
    </div>    ","null","","","","","","","","","","","",""
"","1911","html-keyboard-response","107","382106","0.0-11.0-2.5","0hh5mZ8heY","5df416a57bf5722f9a501255","6617fad957f7c6a12ea16e26","6622d0992d38107c676d2348","mask grid"," ","","","","","Ontogenetic_Distractor_Nonthreat_target","800","onmask","p","3","Ontogenetic","false","experimental"
"","null","html-keyboard-response","108","382815","0.0-11.0-0.6","0hh5mZ8heY","5df416a57bf5722f9a501255","6617fad957f7c6a12ea16e26","6622d0992d38107c676d2348","fixation cross","null","","","","","","","","","","","",""
"","null","html-keyboard-response","109","383615","0.0-11.0-1.6","0hh5mZ8heY","5df416a57bf5722f9a501255","6617fad957f7c6a12ea16e26","6622d0992d38107c676d2348","
        <div id=""grid-container"">
        <!-- Grid items will be dynamically added here -->
    </div>    ","null","","","","","","","","","","","",""
"","1621","html-keyboard-response","110","384437","0.0-11.0-2.6","0hh5mZ8heY","5df416a57bf5722f9a501255","6617fad957f7c6a12ea16e26","6622d0992d38107c676d2348","mask grid","p","","","","","Ontogenetic_Distractor_Nonthreat_target","800","onmask","p","7","Ontogenetic","true","experimental"
"","null","html-keyboard-response","111","385141","0.0-11.0-0.7","0hh5mZ8heY","5df416a57bf5722f9a501255","6617fad957f7c6a12ea16e26","6622d0992d38107c676d2348","fixation cross","null","","","","","","","","","","","",""
"","null","html-keyboard-response","112","385944","0.0-11.0-1.7","0hh5mZ8heY","5df416a57bf5722f9a501255","6617fad957f7c6a12ea16e26","6622d0992d38107c676d2348","
        <div id=""grid-container"">
        <!-- Grid items will be dynamically added here -->
    </div>    ","null","","","","","","","","","","","",""
"","1456","html-keyboard-response","113","386600","0.0-11.0-2.7","0hh5mZ8heY","5df416a57bf5722f9a501255","6617fad957f7c6a12ea16e26","6622d0992d38107c676d2348","mask grid"," ","","","","","Ontogenetic_Distractor_Nonthreat_target","800","onmask","p","2","Ontogenetic","false","experimental"
"","null","html-keyboard-response","114","387325","0.0-11.0-0.8","0hh5mZ8heY","5df416a57bf5722f9a501255","6617fad957f7c6a12ea16e26","6622d0992d38107c676d2348","fixation cross","null","","","","","","","","","","","",""
"","null","html-keyboard-response","115","388140","0.0-11.0-1.8","0hh5mZ8heY","5df416a57bf5722f9a501255","6617fad957f7c6a12ea16e26","6622d0992d38107c676d2348","
        <div id=""grid-container"">
        <!-- Grid items will be dynamically added here -->
    </div>    ","null","","","","","","","","","","","",""
"","1901","html-keyboard-response","116","389241","0.0-11.0-2.8","0hh5mZ8heY","5df416a57bf5722f9a501255","6617fad957f7c6a12ea16e26","6622d0992d38107c676d2348","mask grid"," ","","","","","Ontogenetic_Distractor_notarget","800","onmask"," ","2","Ontogenetic","true","experimental"
"","null","html-keyboard-response","117","389945","0.0-11.0-0.9","0hh5mZ8heY","5df416a57bf5722f9a501255","6617fad957f7c6a12ea16e26","6622d0992d38107c676d2348","fixation cross","null","","","","","","","","","","","",""
"","null","html-keyboard-response","118","390754","0.0-11.0-1.9","0hh5mZ8heY","5df416a57bf5722f9a501255","6617fad957f7c6a12ea16e26","6622d0992d38107c676d2348","
        <div id=""grid-container"">
        <!-- Grid items will be dynamically added here -->
    </div>    ","null","","","","","","","","","","","",""
"","1414","html-keyboard-response","119","391368","0.0-11.0-2.9","0hh5mZ8heY","5df416a57bf5722f9a501255","6617fad957f7c6a12ea16e26","6622d0992d38107c676d2348","mask grid","q","","","","","Ontogenetic_Distractor_Threat_target","800","onmask","q","8","Ontogenetic","true","experimental"
"","null","html-keyboard-response","120","392071","0.0-11.0-0.10","0hh5mZ8heY","5df416a57bf5722f9a501255","6617fad957f7c6a12ea16e26","6622d0992d38107c676d2348","fixation cross","null","","","","","","","","","","","",""
"","null","html-keyboard-response","121","392875","0.0-11.0-1.10","0hh5mZ8heY","5df416a57bf5722f9a501255","6617fad957f7c6a12ea16e26","6622d0992d38107c676d2348","
        <div id=""grid-container"">
        <!-- Grid items will be dynamically added here -->
    </div>    ","null","","","","","","","","","","","",""
"","1180","html-keyboard-response","122","393256","0.0-11.0-2.10","0hh5mZ8heY","5df416a57bf5722f9a501255","6617fad957f7c6a12ea16e26","6622d0992d38107c676d2348","mask grid","p","","","","","Ontogenetic_Distractor_Nonthreat_target","800","onmask","p","7","Ontogenetic","true","experimental"
"","null","html-keyboard-response","123","393958","0.0-11.0-0.11","0hh5mZ8heY","5df416a57bf5722f9a501255","6617fad957f7c6a12ea16e26","6622d0992d38107c676d2348","fixation cross","null","","","","","","","","","","","",""
"","null","html-keyboard-response","124","394758","0.0-11.0-1.11","0hh5mZ8heY","5df416a57bf5722f9a501255","6617fad957f7c6a12ea16e26","6622d0992d38107c676d2348","
        <div id=""grid-container"">
        <!-- Grid items will be dynamically added here -->
    </div>    ","null","","","","","","","","","","","",""
"","1533","html-keyboard-response","125","395492","0.0-11.0-2.11","0hh5mZ8heY","5df416a57bf5722f9a501255","6617fad957f7c6a12ea16e26","6622d0992d38107c676d2348","mask grid"," ","","","","","Ontogenetic_Distractor_notarget","800","onmask"," ","8","Ontogenetic","true","experimental"
"","null","html-keyboard-response","126","396205","0.0-11.0-0.12","0hh5mZ8heY","5df416a57bf5722f9a501255","6617fad957f7c6a12ea16e26","6622d0992d38107c676d2348","fixation cross","null","","","","","","","","","","","",""
"","null","html-keyboard-response","127","397017","0.0-11.0-1.12","0hh5mZ8heY","5df416a57bf5722f9a501255","6617fad957f7c6a12ea16e26","6622d0992d38107c676d2348","
        <div id=""grid-container"">
        <!-- Grid items will be dynamically added here -->
    </div>    ","null","","","","","","","","","","","",""
"","1389","html-keyboard-response","128","397606","0.0-11.0-2.12","0hh5mZ8heY","5df416a57bf5722f9a501255","6617fad957f7c6a12ea16e26","6622d0992d38107c676d2348","mask grid","p","","","","","Ontogenetic_Distractor_Nonthreat_target","800","onmask","p","7","Ontogenetic","true","experimental"
"","null","html-keyboard-response","129","398320","0.0-11.0-0.13","0hh5mZ8heY","5df416a57bf5722f9a501255","6617fad957f7c6a12ea16e26","6622d0992d38107c676d2348","fixation cross","null","","","","","","","","","","","",""
"","null","html-keyboard-response","130","399129","0.0-11.0-1.13","0hh5mZ8heY","5df416a57bf5722f9a501255","6617fad957f7c6a12ea16e26","6622d0992d38107c676d2348","
        <div id=""grid-container"">
        <!-- Grid items will be dynamically added here -->
    </div>    ","null","","","","","","","","","","","",""
"","1381","html-keyboard-response","131","399710","0.0-11.0-2.13","0hh5mZ8heY","5df416a57bf5722f9a501255","6617fad957f7c6a12ea16e26","6622d0992d38107c676d2348","mask grid","q","","","","","Ontogenetic_Distractor_Threat_target","800","onmask","q","8","Ontogenetic","true","experimental"
"","null","html-keyboard-response","132","400426","0.0-11.0-0.14","0hh5mZ8heY","5df416a57bf5722f9a501255","6617fad957f7c6a12ea16e26","6622d0992d38107c676d2348","fixation cross","null","","","","","","","","","","","",""
"","null","html-keyboard-response","133","401238","0.0-11.0-1.14","0hh5mZ8heY","5df416a57bf5722f9a501255","6617fad957f7c6a12ea16e26","6622d0992d38107c676d2348","
        <div id=""grid-container"">
        <!-- Grid items will be dynamically added here -->
    </div>    ","null","","","","","","","","","","","",""
"","1480","html-keyboard-response","134","401918","0.0-11.0-2.14","0hh5mZ8heY","5df416a57bf5722f9a501255","6617fad957f7c6a12ea16e26","6622d0992d38107c676d2348","mask grid","p","","","","","Ontogenetic_Distractor_Nonthreat_target","800","onmask","p","8","Ontogenetic","true","experimental"
"","null","html-keyboard-response","135","402629","0.0-11.0-0.15","0hh5mZ8heY","5df416a57bf5722f9a501255","6617fad957f7c6a12ea16e26","6622d0992d38107c676d2348","fixation cross","null","","","","","","","","","","","",""
"","null","html-keyboard-response","136","403429","0.0-11.0-1.15","0hh5mZ8heY","5df416a57bf5722f9a501255","6617fad957f7c6a12ea16e26","6622d0992d38107c676d2348","
        <div id=""grid-container"">
        <!-- Grid items will be dynamically added here -->
    </div>    ","null","","","","","","","","","","","",""
"","1664","html-keyboard-response","137","404294","0.0-11.0-2.15","0hh5mZ8heY","5df416a57bf5722f9a501255","6617fad957f7c6a12ea16e26","6622d0992d38107c676d2348","mask grid"," ","","","","","Ontogenetic_Distractor_notarget","800","onmask"," ","1","Ontogenetic","true","experimental"
"","null","html-keyboard-response","138","405018","0.0-11.0-0.16","0hh5mZ8heY","5df416a57bf5722f9a501255","6617fad957f7c6a12ea16e26","6622d0992d38107c676d2348","fixation cross","null","","","","","","","","","","","",""
"","null","html-keyboard-response","139","405820","0.0-11.0-1.16","0hh5mZ8heY","5df416a57bf5722f9a501255","6617fad957f7c6a12ea16e26","6622d0992d38107c676d2348","
        <div id=""grid-container"">
        <!-- Grid items will be dynamically added here -->
    </div>    ","null","","","","","","","","","","","",""
"","1157","html-keyboard-response","140","406177","0.0-11.0-2.16","0hh5mZ8heY","5df416a57bf5722f9a501255","6617fad957f7c6a12ea16e26","6622d0992d38107c676d2348","mask grid","p","","","","","Ontogenetic_Distractor_Nonthreat_target","800","onmask","p","8","Ontogenetic","true","experimental"
"","null","html-keyboard-response","141","406896","0.0-11.0-0.17","0hh5mZ8heY","5df416a57bf5722f9a501255","6617fad957f7c6a12ea16e26","6622d0992d38107c676d2348","fixation cross","null","","","","","","","","","","","",""
"","null","html-keyboard-response","142","407711","0.0-11.0-1.17","0hh5mZ8heY","5df416a57bf5722f9a501255","6617fad957f7c6a12ea16e26","6622d0992d38107c676d2348","
        <div id=""grid-container"">
        <!-- Grid items will be dynamically added here -->
    </div>    ","null","","","","","","","","","","","",""
"","1170","html-keyboard-response","143","408081","0.0-11.0-2.17","0hh5mZ8heY","5df416a57bf5722f9a501255","6617fad957f7c6a12ea16e26","6622d0992d38107c676d2348","mask grid","q","","","","","Ontogenetic_Distractor_Threat_target","800","onmask","q","4","Ontogenetic","true","experimental"
"","null","html-keyboard-response","144","408794","0.0-11.0-0.18","0hh5mZ8heY","5df416a57bf5722f9a501255","6617fad957f7c6a12ea16e26","6622d0992d38107c676d2348","fixation cross","null","","","","","","","","","","","",""
"","null","html-keyboard-response","145","409601","0.0-11.0-1.18","0hh5mZ8heY","5df416a57bf5722f9a501255","6617fad957f7c6a12ea16e26","6622d0992d38107c676d2348","
        <div id=""grid-container"">
        <!-- Grid items will be dynamically added here -->
    </div>    ","null","","","","","","","","","","","",""
"","1722","html-keyboard-response","146","410523","0.0-11.0-2.18","0hh5mZ8heY","5df416a57bf5722f9a501255","6617fad957f7c6a12ea16e26","6622d0992d38107c676d2348","mask grid"," ","","","","","Ontogenetic_Distractor_Threat_target","800","onmask","q","5","Ontogenetic","false","experimental"
"","null","html-keyboard-response","147","411230","0.0-11.0-0.19","0hh5mZ8heY","5df416a57bf5722f9a501255","6617fad957f7c6a12ea16e26","6622d0992d38107c676d2348","fixation cross","null","","","","","","","","","","","",""
"","null","html-keyboard-response","148","412042","0.0-11.0-1.19","0hh5mZ8heY","5df416a57bf5722f9a501255","6617fad957f7c6a12ea16e26","6622d0992d38107c676d2348","
        <div id=""grid-container"">
        <!-- Grid items will be dynamically added here -->
    </div>    ","null","","","","","","","","","","","",""
"","1136","html-keyboard-response","149","412379","0.0-11.0-2.19","0hh5mZ8heY","5df416a57bf5722f9a501255","6617fad957f7c6a12ea16e26","6622d0992d38107c676d2348","mask grid","q","","","","","Ontogenetic_Distractor_Threat_target","800","onmask","q","3","Ontogenetic","true","experimental"
"","null","html-keyboard-response","150","413102","0.0-11.0-0.20","0hh5mZ8heY","5df416a57bf5722f9a501255","6617fad957f7c6a12ea16e26","6622d0992d38107c676d2348","fixation cross","null","","","","","","","","","","","",""
"","null","html-keyboard-response","151","413918","0.0-11.0-1.20","0hh5mZ8heY","5df416a57bf5722f9a501255","6617fad957f7c6a12ea16e26","6622d0992d38107c676d2348","
        <div id=""grid-container"">
        <!-- Grid items will be dynamically added here -->
    </div>    ","null","","","","","","","","","","","",""
"","1305","html-keyboard-response","152","414423","0.0-11.0-2.20","0hh5mZ8heY","5df416a57bf5722f9a501255","6617fad957f7c6a12ea16e26","6622d0992d38107c676d2348","mask grid","p","","","","","Ontogenetic_Distractor_Nonthreat_target","800","onmask","p","7","Ontogenetic","true","experimental"
"","null","html-keyboard-response","153","415142","0.0-11.0-0.21","0hh5mZ8heY","5df416a57bf5722f9a501255","6617fad957f7c6a12ea16e26","6622d0992d38107c676d2348","fixation cross","null","","","","","","","","","","","",""
"","null","html-keyboard-response","154","415943","0.0-11.0-1.21","0hh5mZ8heY","5df416a57bf5722f9a501255","6617fad957f7c6a12ea16e26","6622d0992d38107c676d2348","
        <div id=""grid-container"">
        <!-- Grid items will be dynamically added here -->
    </div>    ","null","","","","","","","","","","","",""
"","1116","html-keyboard-response","155","416259","0.0-11.0-2.21","0hh5mZ8heY","5df416a57bf5722f9a501255","6617fad957f7c6a12ea16e26","6622d0992d38107c676d2348","mask grid","q","","","","","Ontogenetic_Distractor_Threat_target","800","onmask","q","2","Ontogenetic","true","experimental"
"","null","html-keyboard-response","156","416963","0.0-11.0-0.22","0hh5mZ8heY","5df416a57bf5722f9a501255","6617fad957f7c6a12ea16e26","6622d0992d38107c676d2348","fixation cross","null","","","","","","","","","","","",""
"","null","html-keyboard-response","157","417769","0.0-11.0-1.22","0hh5mZ8heY","5df416a57bf5722f9a501255","6617fad957f7c6a12ea16e26","6622d0992d38107c676d2348","
        <div id=""grid-container"">
        <!-- Grid items will be dynamically added here -->
    </div>    ","null","","","","","","","","","","","",""
"","1181","html-keyboard-response","158","418150","0.0-11.0-2.22","0hh5mZ8heY","5df416a57bf5722f9a501255","6617fad957f7c6a12ea16e26","6622d0992d38107c676d2348","mask grid","q","","","","","Ontogenetic_Distractor_Threat_target","800","onmask","q","8","Ontogenetic","true","experimental"
"","null","html-keyboard-response","159","418859","0.0-11.0-0.23","0hh5mZ8heY","5df416a57bf5722f9a501255","6617fad957f7c6a12ea16e26","6622d0992d38107c676d2348","fixation cross","null","","","","","","","","","","","",""
"","null","html-keyboard-response","160","419675","0.0-11.0-1.23","0hh5mZ8heY","5df416a57bf5722f9a501255","6617fad957f7c6a12ea16e26","6622d0992d38107c676d2348","
        <div id=""grid-container"">
        <!-- Grid items will be dynamically added here -->
    </div>    ","null","","","","","","","","","","","",""
"","1065","html-keyboard-response","161","419940","0.0-11.0-2.23","0hh5mZ8heY","5df416a57bf5722f9a501255","6617fad957f7c6a12ea16e26","6622d0992d38107c676d2348","mask grid","q","","","","","Ontogenetic_Distractor_Threat_target","800","onmask","q","1","Ontogenetic","true","experimental"
"","null","html-keyboard-response","162","420645","0.0-11.0-0.24","0hh5mZ8heY","5df416a57bf5722f9a501255","6617fad957f7c6a12ea16e26","6622d0992d38107c676d2348","fixation cross","null","","","","","","","","","","","",""
"","null","html-keyboard-response","163","421461","0.0-11.0-1.24","0hh5mZ8heY","5df416a57bf5722f9a501255","6617fad957f7c6a12ea16e26","6622d0992d38107c676d2348","
        <div id=""grid-container"">
        <!-- Grid items will be dynamically added here -->
    </div>    ","null","","","","","","","","","","","",""
"","1566","html-keyboard-response","164","422227","0.0-11.0-2.24","0hh5mZ8heY","5df416a57bf5722f9a501255","6617fad957f7c6a12ea16e26","6622d0992d38107c676d2348","mask grid","p","","","","","Ontogenetic_Distractor_Nonthreat_target","800","onmask","p","3","Ontogenetic","true","experimental"
"","null","html-keyboard-response","165","422941","0.0-11.0-0.25","0hh5mZ8heY","5df416a57bf5722f9a501255","6617fad957f7c6a12ea16e26","6622d0992d38107c676d2348","fixation cross","null","","","","","","","","","","","",""
"","null","html-keyboard-response","166","423743","0.0-11.0-1.25","0hh5mZ8heY","5df416a57bf5722f9a501255","6617fad957f7c6a12ea16e26","6622d0992d38107c676d2348","
        <div id=""grid-container"">
        <!-- Grid items will be dynamically added here -->
    </div>    ","null","","","","","","","","","","","",""
"","1182","html-keyboard-response","167","424125","0.0-11.0-2.25","0hh5mZ8heY","5df416a57bf5722f9a501255","6617fad957f7c6a12ea16e26","6622d0992d38107c676d2348","mask grid","q","","","","","Ontogenetic_Distractor_Threat_target","800","onmask","q","7","Ontogenetic","true","experimental"
"","null","html-keyboard-response","168","424855","0.0-11.0-0.26","0hh5mZ8heY","5df416a57bf5722f9a501255","6617fad957f7c6a12ea16e26","6622d0992d38107c676d2348","fixation cross","null","","","","","","","","","","","",""
"","null","html-keyboard-response","169","425666","0.0-11.0-1.26","0hh5mZ8heY","5df416a57bf5722f9a501255","6617fad957f7c6a12ea16e26","6622d0992d38107c676d2348","
        <div id=""grid-container"">
        <!-- Grid items will be dynamically added here -->
    </div>    ","null","","","","","","","","","","","",""
"","1603","html-keyboard-response","170","426469","0.0-11.0-2.26","0hh5mZ8heY","5df416a57bf5722f9a501255","6617fad957f7c6a12ea16e26","6622d0992d38107c676d2348","mask grid"," ","","","","","Ontogenetic_Distractor_Nonthreat_target","800","onmask","p","4","Ontogenetic","false","experimental"
"","null","html-keyboard-response","171","427186","0.0-11.0-0.27","0hh5mZ8heY","5df416a57bf5722f9a501255","6617fad957f7c6a12ea16e26","6622d0992d38107c676d2348","fixation cross","null","","","","","","","","","","","",""
"","null","html-keyboard-response","172","427989","0.0-11.0-1.27","0hh5mZ8heY","5df416a57bf5722f9a501255","6617fad957f7c6a12ea16e26","6622d0992d38107c676d2348","
        <div id=""grid-container"">
        <!-- Grid items will be dynamically added here -->
    </div>    ","null","","","","","","","","","","","",""
"","1071","html-keyboard-response","173","428260","0.0-11.0-2.27","0hh5mZ8heY","5df416a57bf5722f9a501255","6617fad957f7c6a12ea16e26","6622d0992d38107c676d2348","mask grid","q","","","","","Ontogenetic_Distractor_Threat_target","800","onmask","q","5","Ontogenetic","true","experimental"
"","null","html-keyboard-response","174","428978","0.0-11.0-0.28","0hh5mZ8heY","5df416a57bf5722f9a501255","6617fad957f7c6a12ea16e26","6622d0992d38107c676d2348","fixation cross","null","","","","","","","","","","","",""
"","null","html-keyboard-response","175","429780","0.0-11.0-1.28","0hh5mZ8heY","5df416a57bf5722f9a501255","6617fad957f7c6a12ea16e26","6622d0992d38107c676d2348","
        <div id=""grid-container"">
        <!-- Grid items will be dynamically added here -->
    </div>    ","null","","","","","","","","","","","",""
"","1473","html-keyboard-response","176","430454","0.0-11.0-2.28","0hh5mZ8heY","5df416a57bf5722f9a501255","6617fad957f7c6a12ea16e26","6622d0992d38107c676d2348","mask grid","p","","","","","Ontogenetic_Distractor_Nonthreat_target","800","onmask","p","1","Ontogenetic","true","experimental"
"","null","html-keyboard-response","177","431163","0.0-11.0-0.29","0hh5mZ8heY","5df416a57bf5722f9a501255","6617fad957f7c6a12ea16e26","6622d0992d38107c676d2348","fixation cross","null","","","","","","","","","","","",""
"","null","html-keyboard-response","178","431974","0.0-11.0-1.29","0hh5mZ8heY","5df416a57bf5722f9a501255","6617fad957f7c6a12ea16e26","6622d0992d38107c676d2348","
        <div id=""grid-container"">
        <!-- Grid items will be dynamically added here -->
    </div>    ","null","","","","","","","","","","","",""
"","1609","html-keyboard-response","179","432784","0.0-11.0-2.29","0hh5mZ8heY","5df416a57bf5722f9a501255","6617fad957f7c6a12ea16e26","6622d0992d38107c676d2348","mask grid","p","","","","","Ontogenetic_Distractor_Nonthreat_target","800","onmask","p","2","Ontogenetic","true","experimental"
"","null","html-keyboard-response","180","433499","0.0-11.0-0.30","0hh5mZ8heY","5df416a57bf5722f9a501255","6617fad957f7c6a12ea16e26","6622d0992d38107c676d2348","fixation cross","null","","","","","","","","","","","",""
"","null","html-keyboard-response","181","434315","0.0-11.0-1.30","0hh5mZ8heY","5df416a57bf5722f9a501255","6617fad957f7c6a12ea16e26","6622d0992d38107c676d2348","
        <div id=""grid-container"">
        <!-- Grid items will be dynamically added here -->
    </div>    ","null","","","","","","","","","","","",""
"","1063","html-keyboard-response","182","434578","0.0-11.0-2.30","0hh5mZ8heY","5df416a57bf5722f9a501255","6617fad957f7c6a12ea16e26","6622d0992d38107c676d2348","mask grid","q","","","","","Ontogenetic_Distractor_Threat_target","800","onmask","q","8","Ontogenetic","true","experimental"
"","null","html-keyboard-response","183","435295","0.0-11.0-0.31","0hh5mZ8heY","5df416a57bf5722f9a501255","6617fad957f7c6a12ea16e26","6622d0992d38107c676d2348","fixation cross","null","","","","","","","","","","","",""
"","null","html-keyboard-response","184","436096","0.0-11.0-1.31","0hh5mZ8heY","5df416a57bf5722f9a501255","6617fad957f7c6a12ea16e26","6622d0992d38107c676d2348","
        <div id=""grid-container"">
        <!-- Grid items will be dynamically added here -->
    </div>    ","null","","","","","","","","","","","",""
"","1066","html-keyboard-response","185","436363","0.0-11.0-2.31","0hh5mZ8heY","5df416a57bf5722f9a501255","6617fad957f7c6a12ea16e26","6622d0992d38107c676d2348","mask grid","q","","","","","Ontogenetic_Distractor_Threat_target","800","onmask","q","7","Ontogenetic","true","experimental"
"","null","html-keyboard-response","186","437079","0.0-11.0-0.32","0hh5mZ8heY","5df416a57bf5722f9a501255","6617fad957f7c6a12ea16e26","6622d0992d38107c676d2348","fixation cross","null","","","","","","","","","","","",""
"","null","html-keyboard-response","187","437885","0.0-11.0-1.32","0hh5mZ8heY","5df416a57bf5722f9a501255","6617fad957f7c6a12ea16e26","6622d0992d38107c676d2348","
        <div id=""grid-container"">
        <!-- Grid items will be dynamically added here -->
    </div>    ","null","","","","","","","","","","","",""
"","975","html-keyboard-response","188","438060","0.0-11.0-2.32","0hh5mZ8heY","5df416a57bf5722f9a501255","6617fad957f7c6a12ea16e26","6622d0992d38107c676d2348","mask grid","q","","","","","Ontogenetic_Distractor_Threat_target","800","onmask","q","3","Ontogenetic","true","experimental"
"","null","html-keyboard-response","189","438775","0.0-11.0-0.33","0hh5mZ8heY","5df416a57bf5722f9a501255","6617fad957f7c6a12ea16e26","6622d0992d38107c676d2348","fixation cross","null","","","","","","","","","","","",""
"","null","html-keyboard-response","190","439588","0.0-11.0-1.33","0hh5mZ8heY","5df416a57bf5722f9a501255","6617fad957f7c6a12ea16e26","6622d0992d38107c676d2348","
        <div id=""grid-container"">
        <!-- Grid items will be dynamically added here -->
    </div>    ","null","","","","","","","","","","","",""
"","1101","html-keyboard-response","191","439889","0.0-11.0-2.33","0hh5mZ8heY","5df416a57bf5722f9a501255","6617fad957f7c6a12ea16e26","6622d0992d38107c676d2348","mask grid","q","","","","","Ontogenetic_Distractor_Threat_target","800","onmask","q","1","Ontogenetic","true","experimental"
"","null","html-keyboard-response","192","440594","0.0-11.0-0.34","0hh5mZ8heY","5df416a57bf5722f9a501255","6617fad957f7c6a12ea16e26","6622d0992d38107c676d2348","fixation cross","null","","","","","","","","","","","",""
"","null","html-keyboard-response","193","441409","0.0-11.0-1.34","0hh5mZ8heY","5df416a57bf5722f9a501255","6617fad957f7c6a12ea16e26","6622d0992d38107c676d2348","
        <div id=""grid-container"">
        <!-- Grid items will be dynamically added here -->
    </div>    ","null","","","","","","","","","","","",""
"","947","html-keyboard-response","194","441557","0.0-11.0-2.34","0hh5mZ8heY","5df416a57bf5722f9a501255","6617fad957f7c6a12ea16e26","6622d0992d38107c676d2348","mask grid","q","","","","","Ontogenetic_Distractor_Threat_target","800","onmask","q","2","Ontogenetic","true","experimental"
"","null","html-keyboard-response","195","442269","0.0-11.0-0.35","0hh5mZ8heY","5df416a57bf5722f9a501255","6617fad957f7c6a12ea16e26","6622d0992d38107c676d2348","fixation cross","null","","","","","","","","","","","",""
"","null","html-keyboard-response","196","443082","0.0-11.0-1.35","0hh5mZ8heY","5df416a57bf5722f9a501255","6617fad957f7c6a12ea16e26","6622d0992d38107c676d2348","
        <div id=""grid-container"">
        <!-- Grid items will be dynamically added here -->
    </div>    ","null","","","","","","","","","","","",""
"","1387","html-keyboard-response","197","443669","0.0-11.0-2.35","0hh5mZ8heY","5df416a57bf5722f9a501255","6617fad957f7c6a12ea16e26","6622d0992d38107c676d2348","mask grid","p","","","","","Ontogenetic_Distractor_Nonthreat_target","800","onmask","p","9","Ontogenetic","true","experimental"
"","null","html-keyboard-response","198","444379","0.0-11.0-0.36","0hh5mZ8heY","5df416a57bf5722f9a501255","6617fad957f7c6a12ea16e26","6622d0992d38107c676d2348","fixation cross","null","","","","","","","","","","","",""
"","null","html-keyboard-response","199","445194","0.0-11.0-1.36","0hh5mZ8heY","5df416a57bf5722f9a501255","6617fad957f7c6a12ea16e26","6622d0992d38107c676d2348","
        <div id=""grid-container"">
        <!-- Grid items will be dynamically added here -->
    </div>    ","null","","","","","","","","","","","",""
"","1988","html-keyboard-response","200","446382","0.0-11.0-2.36","0hh5mZ8heY","5df416a57bf5722f9a501255","6617fad957f7c6a12ea16e26","6622d0992d38107c676d2348","mask grid"," ","","","","","Ontogenetic_Distractor_notarget","800","onmask"," ","3","Ontogenetic","true","experimental"
"","null","html-keyboard-response","201","447098","0.0-11.0-0.37","0hh5mZ8heY","5df416a57bf5722f9a501255","6617fad957f7c6a12ea16e26","6622d0992d38107c676d2348","fixation cross","null","","","","","","","","","","","",""
"","null","html-keyboard-response","202","447911","0.0-11.0-1.37","0hh5mZ8heY","5df416a57bf5722f9a501255","6617fad957f7c6a12ea16e26","6622d0992d38107c676d2348","
        <div id=""grid-container"">
        <!-- Grid items will be dynamically added here -->
    </div>    ","null","","","","","","","","","","","",""
"","1072","html-keyboard-response","203","448183","0.0-11.0-2.37","0hh5mZ8heY","5df416a57bf5722f9a501255","6617fad957f7c6a12ea16e26","6622d0992d38107c676d2348","mask grid","p","","","","","Ontogenetic_Distractor_Nonthreat_target","800","onmask","p","5","Ontogenetic","true","experimental"
"","null","html-keyboard-response","204","448894","0.0-11.0-0.38","0hh5mZ8heY","5df416a57bf5722f9a501255","6617fad957f7c6a12ea16e26","6622d0992d38107c676d2348","fixation cross","null","","","","","","","","","","","",""
"","null","html-keyboard-response","205","449707","0.0-11.0-1.38","0hh5mZ8heY","5df416a57bf5722f9a501255","6617fad957f7c6a12ea16e26","6622d0992d38107c676d2348","
        <div id=""grid-container"">
        <!-- Grid items will be dynamically added here -->
    </div>    ","null","","","","","","","","","","","",""
"","1185","html-keyboard-response","206","450092","0.0-11.0-2.38","0hh5mZ8heY","5df416a57bf5722f9a501255","6617fad957f7c6a12ea16e26","6622d0992d38107c676d2348","mask grid","q","","","","","Ontogenetic_Distractor_Threat_target","800","onmask","q","8","Ontogenetic","true","experimental"
"","null","html-keyboard-response","207","450804","0.0-11.0-0.39","0hh5mZ8heY","5df416a57bf5722f9a501255","6617fad957f7c6a12ea16e26","6622d0992d38107c676d2348","fixation cross","null","","","","","","","","","","","",""
"","null","html-keyboard-response","208","451609","0.0-11.0-1.39","0hh5mZ8heY","5df416a57bf5722f9a501255","6617fad957f7c6a12ea16e26","6622d0992d38107c676d2348","
        <div id=""grid-container"">
        <!-- Grid items will be dynamically added here -->
    </div>    ","null","","","","","","","","","","","",""
"","1098","html-keyboard-response","209","451907","0.0-11.0-2.39","0hh5mZ8heY","5df416a57bf5722f9a501255","6617fad957f7c6a12ea16e26","6622d0992d38107c676d2348","mask grid","q","","","","","Ontogenetic_Distractor_Threat_target","800","onmask","q","7","Ontogenetic","true","experimental"
"","1854","html-keyboard-response","210","453980","0.0-12.0","0hh5mZ8heY","5df416a57bf5722f9a501255","6617fad957f7c6a12ea16e26","6622d0992d38107c676d2348","break screen"," ","","","","","","","","","","","",""
"","null","html-keyboard-response","211","456488","0.0-13.0-0.0","0hh5mZ8heY","5df416a57bf5722f9a501255","6617fad957f7c6a12ea16e26","6622d0992d38107c676d2348","fixation cross","null","","","","","","","","","","","",""
"","1931","html-keyboard-response","212","458420","0.0-13.0-1.0","0hh5mZ8heY","5df416a57bf5722f9a501255","6617fad957f7c6a12ea16e26","6622d0992d38107c676d2348","image grid"," ","","","","","Phylogenetic_Distractor_Threat_target","2500","ongrid","q","4","Phylogenetic","false","experimental"
"","null","html-keyboard-response","213","458577","0.0-13.0-2.0","0hh5mZ8heY","5df416a57bf5722f9a501255","6617fad957f7c6a12ea16e26","6622d0992d38107c676d2348","
    <div id=""grid-container"">
        <!-- Grid items will be dynamically added here -->
    </div>    ","null","","","","","","","","","","","",""
"","null","html-keyboard-response","214","459286","0.0-13.0-0.1","0hh5mZ8heY","5df416a57bf5722f9a501255","6617fad957f7c6a12ea16e26","6622d0992d38107c676d2348","fixation cross","null","","","","","","","","","","","",""
"","2091","html-keyboard-response","215","461377","0.0-13.0-1.1","0hh5mZ8heY","5df416a57bf5722f9a501255","6617fad957f7c6a12ea16e26","6622d0992d38107c676d2348","image grid"," ","","","","","Phylogenetic_Distractor_Nonthreat_target","2500","ongrid","p","3","Phylogenetic","false","experimental"
"","null","html-keyboard-response","216","461533","0.0-13.0-2.1","0hh5mZ8heY","5df416a57bf5722f9a501255","6617fad957f7c6a12ea16e26","6622d0992d38107c676d2348","
    <div id=""grid-container"">
        <!-- Grid items will be dynamically added here -->
    </div>    ","null","","","","","","","","","","","",""
"","null","html-keyboard-response","217","462242","0.0-13.0-0.2","0hh5mZ8heY","5df416a57bf5722f9a501255","6617fad957f7c6a12ea16e26","6622d0992d38107c676d2348","fixation cross","null","","","","","","","","","","","",""
"","1727","html-keyboard-response","218","463969","0.0-13.0-1.2","0hh5mZ8heY","5df416a57bf5722f9a501255","6617fad957f7c6a12ea16e26","6622d0992d38107c676d2348","image grid","q","","","","","Phylogenetic_Distractor_Threat_target","2500","ongrid","q","9","Phylogenetic","true","experimental"
"","null","html-keyboard-response","219","464132","0.0-13.0-2.2","0hh5mZ8heY","5df416a57bf5722f9a501255","6617fad957f7c6a12ea16e26","6622d0992d38107c676d2348","
    <div id=""grid-container"">
        <!-- Grid items will be dynamically added here -->
    </div>    ","null","","","","","","","","","","","",""
"","null","html-keyboard-response","220","464842","0.0-13.0-0.3","0hh5mZ8heY","5df416a57bf5722f9a501255","6617fad957f7c6a12ea16e26","6622d0992d38107c676d2348","fixation cross","null","","","","","","","","","","","",""
"","1202","html-keyboard-response","221","466044","0.0-13.0-1.3","0hh5mZ8heY","5df416a57bf5722f9a501255","6617fad957f7c6a12ea16e26","6622d0992d38107c676d2348","image grid","q","","","","","Phylogenetic_Distractor_Threat_target","2500","ongrid","q","3","Phylogenetic","true","experimental"
"","null","html-keyboard-response","222","466209","0.0-13.0-2.3","0hh5mZ8heY","5df416a57bf5722f9a501255","6617fad957f7c6a12ea16e26","6622d0992d38107c676d2348","
    <div id=""grid-container"">
        <!-- Grid items will be dynamically added here -->
    </div>    ","null","","","","","","","","","","","",""
"","null","html-keyboard-response","223","466919","0.0-13.0-0.4","0hh5mZ8heY","5df416a57bf5722f9a501255","6617fad957f7c6a12ea16e26","6622d0992d38107c676d2348","fixation cross","null","","","","","","","","","","","",""
"","1808","html-keyboard-response","224","468728","0.0-13.0-1.4","0hh5mZ8heY","5df416a57bf5722f9a501255","6617fad957f7c6a12ea16e26","6622d0992d38107c676d2348","image grid","p","","","","","Phylogenetic_Distractor_Nonthreat_target","2500","ongrid","p","1","Phylogenetic","true","experimental"
"","null","html-keyboard-response","225","468893","0.0-13.0-2.4","0hh5mZ8heY","5df416a57bf5722f9a501255","6617fad957f7c6a12ea16e26","6622d0992d38107c676d2348","
    <div id=""grid-container"">
        <!-- Grid items will be dynamically added here -->
    </div>    ","null","","","","","","","","","","","",""
"","null","html-keyboard-response","226","469597","0.0-13.0-0.5","0hh5mZ8heY","5df416a57bf5722f9a501255","6617fad957f7c6a12ea16e26","6622d0992d38107c676d2348","fixation cross","null","","","","","","","","","","","",""
"","1444","html-keyboard-response","227","471042","0.0-13.0-1.5","0hh5mZ8heY","5df416a57bf5722f9a501255","6617fad957f7c6a12ea16e26","6622d0992d38107c676d2348","image grid","p","","","","","Phylogenetic_Distractor_Nonthreat_target","2500","ongrid","p","1","Phylogenetic","true","experimental"
"","null","html-keyboard-response","228","471196","0.0-13.0-2.5","0hh5mZ8heY","5df416a57bf5722f9a501255","6617fad957f7c6a12ea16e26","6622d0992d38107c676d2348","
    <div id=""grid-container"">
        <!-- Grid items will be dynamically added here -->
    </div>    ","null","","","","","","","","","","","",""
"","null","html-keyboard-response","229","471914","0.0-13.0-0.6","0hh5mZ8heY","5df416a57bf5722f9a501255","6617fad957f7c6a12ea16e26","6622d0992d38107c676d2348","fixation cross","null","","","","","","","","","","","",""
"","1093","html-keyboard-response","230","473007","0.0-13.0-1.6","0hh5mZ8heY","5df416a57bf5722f9a501255","6617fad957f7c6a12ea16e26","6622d0992d38107c676d2348","image grid","p","","","","","Phylogenetic_Distractor_Nonthreat_target","2500","ongrid","p","7","Phylogenetic","true","experimental"
"","null","html-keyboard-response","231","473160","0.0-13.0-2.6","0hh5mZ8heY","5df416a57bf5722f9a501255","6617fad957f7c6a12ea16e26","6622d0992d38107c676d2348","
    <div id=""grid-container"">
        <!-- Grid items will be dynamically added here -->
    </div>    ","null","","","","","","","","","","","",""
"","null","html-keyboard-response","232","473870","0.0-13.0-0.7","0hh5mZ8heY","5df416a57bf5722f9a501255","6617fad957f7c6a12ea16e26","6622d0992d38107c676d2348","fixation cross","null","","","","","","","","","","","",""
"","2031","html-keyboard-response","233","475901","0.0-13.0-1.7","0hh5mZ8heY","5df416a57bf5722f9a501255","6617fad957f7c6a12ea16e26","6622d0992d38107c676d2348","image grid","q","","","","","Phylogenetic_Distractor_Threat_target","2500","ongrid","q","6","Phylogenetic","true","experimental"
"","null","html-keyboard-response","234","476056","0.0-13.0-2.7","0hh5mZ8heY","5df416a57bf5722f9a501255","6617fad957f7c6a12ea16e26","6622d0992d38107c676d2348","
    <div id=""grid-container"">
        <!-- Grid items will be dynamically added here -->
    </div>    ","null","","","","","","","","","","","",""
"","null","html-keyboard-response","235","476773","0.0-13.0-0.8","0hh5mZ8heY","5df416a57bf5722f9a501255","6617fad957f7c6a12ea16e26","6622d0992d38107c676d2348","fixation cross","null","","","","","","","","","","","",""
"","1075","html-keyboard-response","236","477848","0.0-13.0-1.8","0hh5mZ8heY","5df416a57bf5722f9a501255","6617fad957f7c6a12ea16e26","6622d0992d38107c676d2348","image grid","q","","","","","Phylogenetic_Distractor_Threat_target","2500","ongrid","q","5","Phylogenetic","true","experimental"
"","null","html-keyboard-response","237","478010","0.0-13.0-2.8","0hh5mZ8heY","5df416a57bf5722f9a501255","6617fad957f7c6a12ea16e26","6622d0992d38107c676d2348","
    <div id=""grid-container"">
        <!-- Grid items will be dynamically added here -->
    </div>    ","null","","","","","","","","","","","",""
"","null","html-keyboard-response","238","478718","0.0-13.0-0.9","0hh5mZ8heY","5df416a57bf5722f9a501255","6617fad957f7c6a12ea16e26","6622d0992d38107c676d2348","fixation cross","null","","","","","","","","","","","",""
"","2014","html-keyboard-response","239","480733","0.0-13.0-1.9","0hh5mZ8heY","5df416a57bf5722f9a501255","6617fad957f7c6a12ea16e26","6622d0992d38107c676d2348","image grid"," ","","","","","Phylogenetic_Distractor_notarget","2500","ongrid"," ","3","Phylogenetic","true","experimental"
"","null","html-keyboard-response","240","480884","0.0-13.0-2.9","0hh5mZ8heY","5df416a57bf5722f9a501255","6617fad957f7c6a12ea16e26","6622d0992d38107c676d2348","
    <div id=""grid-container"">
        <!-- Grid items will be dynamically added here -->
    </div>    ","null","","","","","","","","","","","",""
"","null","html-keyboard-response","241","481603","0.0-13.0-0.10","0hh5mZ8heY","5df416a57bf5722f9a501255","6617fad957f7c6a12ea16e26","6622d0992d38107c676d2348","fixation cross","null","","","","","","","","","","","",""
"","1767","html-keyboard-response","242","483370","0.0-13.0-1.10","0hh5mZ8heY","5df416a57bf5722f9a501255","6617fad957f7c6a12ea16e26","6622d0992d38107c676d2348","image grid"," ","","","","","Phylogenetic_Distractor_notarget","2500","ongrid"," ","6","Phylogenetic","true","experimental"
"","null","html-keyboard-response","243","483524","0.0-13.0-2.10","0hh5mZ8heY","5df416a57bf5722f9a501255","6617fad957f7c6a12ea16e26","6622d0992d38107c676d2348","
    <div id=""grid-container"">
        <!-- Grid items will be dynamically added here -->
    </div>    ","null","","","","","","","","","","","",""
"","null","html-keyboard-response","244","484228","0.0-13.0-0.11","0hh5mZ8heY","5df416a57bf5722f9a501255","6617fad957f7c6a12ea16e26","6622d0992d38107c676d2348","fixation cross","null","","","","","","","","","","","",""
"","2275","html-keyboard-response","245","486504","0.0-13.0-1.11","0hh5mZ8heY","5df416a57bf5722f9a501255","6617fad957f7c6a12ea16e26","6622d0992d38107c676d2348","image grid"," ","","","","","Phylogenetic_Distractor_notarget","2500","ongrid"," ","9","Phylogenetic","true","experimental"
"","null","html-keyboard-response","246","486660","0.0-13.0-2.11","0hh5mZ8heY","5df416a57bf5722f9a501255","6617fad957f7c6a12ea16e26","6622d0992d38107c676d2348","
    <div id=""grid-container"">
        <!-- Grid items will be dynamically added here -->
    </div>    ","null","","","","","","","","","","","",""
"","null","html-keyboard-response","247","487368","0.0-13.0-0.12","0hh5mZ8heY","5df416a57bf5722f9a501255","6617fad957f7c6a12ea16e26","6622d0992d38107c676d2348","fixation cross","null","","","","","","","","","","","",""
"","2299","html-keyboard-response","248","489667","0.0-13.0-1.12","0hh5mZ8heY","5df416a57bf5722f9a501255","6617fad957f7c6a12ea16e26","6622d0992d38107c676d2348","image grid","p","","","","","Phylogenetic_Distractor_Nonthreat_target","2500","ongrid","p","4","Phylogenetic","true","experimental"
"","null","html-keyboard-response","249","489828","0.0-13.0-2.12","0hh5mZ8heY","5df416a57bf5722f9a501255","6617fad957f7c6a12ea16e26","6622d0992d38107c676d2348","
    <div id=""grid-container"">
        <!-- Grid items will be dynamically added here -->
    </div>    ","null","","","","","","","","","","","",""
"","null","html-keyboard-response","250","490539","0.0-13.0-0.13","0hh5mZ8heY","5df416a57bf5722f9a501255","6617fad957f7c6a12ea16e26","6622d0992d38107c676d2348","fixation cross","null","","","","","","","","","","","",""
"","2150","html-keyboard-response","251","492689","0.0-13.0-1.13","0hh5mZ8heY","5df416a57bf5722f9a501255","6617fad957f7c6a12ea16e26","6622d0992d38107c676d2348","image grid","q","","","","","Phylogenetic_Distractor_Threat_target","2500","ongrid","q","8","Phylogenetic","true","experimental"
"","null","html-keyboard-response","252","492848","0.0-13.0-2.13","0hh5mZ8heY","5df416a57bf5722f9a501255","6617fad957f7c6a12ea16e26","6622d0992d38107c676d2348","
    <div id=""grid-container"">
        <!-- Grid items will be dynamically added here -->
    </div>    ","null","","","","","","","","","","","",""
"","null","html-keyboard-response","253","493552","0.0-13.0-0.14","0hh5mZ8heY","5df416a57bf5722f9a501255","6617fad957f7c6a12ea16e26","6622d0992d38107c676d2348","fixation cross","null","","","","","","","","","","","",""
"","1658","html-keyboard-response","254","495211","0.0-13.0-1.14","0hh5mZ8heY","5df416a57bf5722f9a501255","6617fad957f7c6a12ea16e26","6622d0992d38107c676d2348","image grid","p","","","","","Phylogenetic_Distractor_Nonthreat_target","2500","ongrid","p","8","Phylogenetic","true","experimental"
"","null","html-keyboard-response","255","495367","0.0-13.0-2.14","0hh5mZ8heY","5df416a57bf5722f9a501255","6617fad957f7c6a12ea16e26","6622d0992d38107c676d2348","
    <div id=""grid-container"">
        <!-- Grid items will be dynamically added here -->
    </div>    ","null","","","","","","","","","","","",""
"","null","html-keyboard-response","256","496080","0.0-13.0-0.15","0hh5mZ8heY","5df416a57bf5722f9a501255","6617fad957f7c6a12ea16e26","6622d0992d38107c676d2348","fixation cross","null","","","","","","","","","","","",""
"","1094","html-keyboard-response","257","497175","0.0-13.0-1.15","0hh5mZ8heY","5df416a57bf5722f9a501255","6617fad957f7c6a12ea16e26","6622d0992d38107c676d2348","image grid","p","","","","","Phylogenetic_Distractor_Nonthreat_target","2500","ongrid","p","3","Phylogenetic","true","experimental"
"","null","html-keyboard-response","258","497329","0.0-13.0-2.15","0hh5mZ8heY","5df416a57bf5722f9a501255","6617fad957f7c6a12ea16e26","6622d0992d38107c676d2348","
    <div id=""grid-container"">
        <!-- Grid items will be dynamically added here -->
    </div>    ","null","","","","","","","","","","","",""
"","null","html-keyboard-response","259","498037","0.0-13.0-0.16","0hh5mZ8heY","5df416a57bf5722f9a501255","6617fad957f7c6a12ea16e26","6622d0992d38107c676d2348","fixation cross","null","","","","","","","","","","","",""
"","1603","html-keyboard-response","260","499640","0.0-13.0-1.16","0hh5mZ8heY","5df416a57bf5722f9a501255","6617fad957f7c6a12ea16e26","6622d0992d38107c676d2348","image grid","p","","","","","Phylogenetic_Distractor_Nonthreat_target","2500","ongrid","p","6","Phylogenetic","true","experimental"
"","null","html-keyboard-response","261","499800","0.0-13.0-2.16","0hh5mZ8heY","5df416a57bf5722f9a501255","6617fad957f7c6a12ea16e26","6622d0992d38107c676d2348","
    <div id=""grid-container"">
        <!-- Grid items will be dynamically added here -->
    </div>    ","null","","","","","","","","","","","",""
"","null","html-keyboard-response","262","500506","0.0-13.0-0.17","0hh5mZ8heY","5df416a57bf5722f9a501255","6617fad957f7c6a12ea16e26","6622d0992d38107c676d2348","fixation cross","null","","","","","","","","","","","",""
"","768","html-keyboard-response","263","501274","0.0-13.0-1.17","0hh5mZ8heY","5df416a57bf5722f9a501255","6617fad957f7c6a12ea16e26","6622d0992d38107c676d2348","image grid","p","","","","","Phylogenetic_Distractor_Nonthreat_target","2500","ongrid","p","5","Phylogenetic","true","experimental"
"","null","html-keyboard-response","264","501437","0.0-13.0-2.17","0hh5mZ8heY","5df416a57bf5722f9a501255","6617fad957f7c6a12ea16e26","6622d0992d38107c676d2348","
    <div id=""grid-container"">
        <!-- Grid items will be dynamically added here -->
    </div>    ","null","","","","","","","","","","","",""
"","null","html-keyboard-response","265","502148","0.0-13.0-0.18","0hh5mZ8heY","5df416a57bf5722f9a501255","6617fad957f7c6a12ea16e26","6622d0992d38107c676d2348","fixation cross","null","","","","","","","","","","","",""
"","1061","html-keyboard-response","266","503209","0.0-13.0-1.18","0hh5mZ8heY","5df416a57bf5722f9a501255","6617fad957f7c6a12ea16e26","6622d0992d38107c676d2348","image grid","q","","","","","Phylogenetic_Distractor_Threat_target","2500","ongrid","q","6","Phylogenetic","true","experimental"
"","null","html-keyboard-response","267","503369","0.0-13.0-2.18","0hh5mZ8heY","5df416a57bf5722f9a501255","6617fad957f7c6a12ea16e26","6622d0992d38107c676d2348","
    <div id=""grid-container"">
        <!-- Grid items will be dynamically added here -->
    </div>    ","null","","","","","","","","","","","",""
"","null","html-keyboard-response","268","504080","0.0-13.0-0.19","0hh5mZ8heY","5df416a57bf5722f9a501255","6617fad957f7c6a12ea16e26","6622d0992d38107c676d2348","fixation cross","null","","","","","","","","","","","",""
"","null","html-keyboard-response","269","506592","0.0-13.0-1.19","0hh5mZ8heY","5df416a57bf5722f9a501255","6617fad957f7c6a12ea16e26","6622d0992d38107c676d2348","
        <div id=""grid-container"">
        <!-- Grid items will be dynamically added here -->
    </div>    ","null","","","","","","","","","","","",""
"","2833","html-keyboard-response","270","506925","0.0-13.0-2.19","0hh5mZ8heY","5df416a57bf5722f9a501255","6617fad957f7c6a12ea16e26","6622d0992d38107c676d2348","mask grid","p","","","","","Phylogenetic_Distractor_Nonthreat_target","2500","onmask","p","9","Phylogenetic","true","experimental"
"","null","html-keyboard-response","271","507632","0.0-13.0-0.20","0hh5mZ8heY","5df416a57bf5722f9a501255","6617fad957f7c6a12ea16e26","6622d0992d38107c676d2348","fixation cross","null","","","","","","","","","","","",""
"","1123","html-keyboard-response","272","508755","0.0-13.0-1.20","0hh5mZ8heY","5df416a57bf5722f9a501255","6617fad957f7c6a12ea16e26","6622d0992d38107c676d2348","image grid","q","","","","","Phylogenetic_Distractor_Threat_target","2500","ongrid","q","3","Phylogenetic","true","experimental"
"","null","html-keyboard-response","273","508906","0.0-13.0-2.20","0hh5mZ8heY","5df416a57bf5722f9a501255","6617fad957f7c6a12ea16e26","6622d0992d38107c676d2348","
    <div id=""grid-container"">
        <!-- Grid items will be dynamically added here -->
    </div>    ","null","","","","","","","","","","","",""
"","null","html-keyboard-response","274","509623","0.0-13.0-0.21","0hh5mZ8heY","5df416a57bf5722f9a501255","6617fad957f7c6a12ea16e26","6622d0992d38107c676d2348","fixation cross","null","","","","","","","","","","","",""
"","1045","html-keyboard-response","275","510668","0.0-13.0-1.21","0hh5mZ8heY","5df416a57bf5722f9a501255","6617fad957f7c6a12ea16e26","6622d0992d38107c676d2348","image grid","q","","","","","Phylogenetic_Distractor_Threat_target","2500","ongrid","q","9","Phylogenetic","true","experimental"
"","null","html-keyboard-response","276","510830","0.0-13.0-2.21","0hh5mZ8heY","5df416a57bf5722f9a501255","6617fad957f7c6a12ea16e26","6622d0992d38107c676d2348","
    <div id=""grid-container"">
        <!-- Grid items will be dynamically added here -->
    </div>    ","null","","","","","","","","","","","",""
"","null","html-keyboard-response","277","511532","0.0-13.0-0.22","0hh5mZ8heY","5df416a57bf5722f9a501255","6617fad957f7c6a12ea16e26","6622d0992d38107c676d2348","fixation cross","null","","","","","","","","","","","",""
"","1987","html-keyboard-response","278","513519","0.0-13.0-1.22","0hh5mZ8heY","5df416a57bf5722f9a501255","6617fad957f7c6a12ea16e26","6622d0992d38107c676d2348","image grid","p","","","","","Phylogenetic_Distractor_Nonthreat_target","2500","ongrid","p","4","Phylogenetic","true","experimental"
"","null","html-keyboard-response","279","513675","0.0-13.0-2.22","0hh5mZ8heY","5df416a57bf5722f9a501255","6617fad957f7c6a12ea16e26","6622d0992d38107c676d2348","
    <div id=""grid-container"">
        <!-- Grid items will be dynamically added here -->
    </div>    ","null","","","","","","","","","","","",""
"","null","html-keyboard-response","280","514381","0.0-13.0-0.23","0hh5mZ8heY","5df416a57bf5722f9a501255","6617fad957f7c6a12ea16e26","6622d0992d38107c676d2348","fixation cross","null","","","","","","","","","","","",""
"","2443","html-keyboard-response","281","516825","0.0-13.0-1.23","0hh5mZ8heY","5df416a57bf5722f9a501255","6617fad957f7c6a12ea16e26","6622d0992d38107c676d2348","image grid"," ","","","","","Phylogenetic_Distractor_Nonthreat_target","2500","ongrid","p","6","Phylogenetic","false","experimental"
"","null","html-keyboard-response","282","516981","0.0-13.0-2.23","0hh5mZ8heY","5df416a57bf5722f9a501255","6617fad957f7c6a12ea16e26","6622d0992d38107c676d2348","
    <div id=""grid-container"">
        <!-- Grid items will be dynamically added here -->
    </div>    ","null","","","","","","","","","","","",""
"","null","html-keyboard-response","283","517690","0.0-13.0-0.24","0hh5mZ8heY","5df416a57bf5722f9a501255","6617fad957f7c6a12ea16e26","6622d0992d38107c676d2348","fixation cross","null","","","","","","","","","","","",""
"","1470","html-keyboard-response","284","519160","0.0-13.0-1.24","0hh5mZ8heY","5df416a57bf5722f9a501255","6617fad957f7c6a12ea16e26","6622d0992d38107c676d2348","image grid","q","","","","","Phylogenetic_Distractor_Threat_target","2500","ongrid","q","1","Phylogenetic","true","experimental"
"","null","html-keyboard-response","285","519320","0.0-13.0-2.24","0hh5mZ8heY","5df416a57bf5722f9a501255","6617fad957f7c6a12ea16e26","6622d0992d38107c676d2348","
    <div id=""grid-container"">
        <!-- Grid items will be dynamically added here -->
    </div>    ","null","","","","","","","","","","","",""
"","null","html-keyboard-response","286","520023","0.0-13.0-0.25","0hh5mZ8heY","5df416a57bf5722f9a501255","6617fad957f7c6a12ea16e26","6622d0992d38107c676d2348","fixation cross","null","","","","","","","","","","","",""
"","1041","html-keyboard-response","287","521064","0.0-13.0-1.25","0hh5mZ8heY","5df416a57bf5722f9a501255","6617fad957f7c6a12ea16e26","6622d0992d38107c676d2348","image grid","q","","","","","Phylogenetic_Distractor_Threat_target","2500","ongrid","q","4","Phylogenetic","true","experimental"
"","null","html-keyboard-response","288","521230","0.0-13.0-2.25","0hh5mZ8heY","5df416a57bf5722f9a501255","6617fad957f7c6a12ea16e26","6622d0992d38107c676d2348","
    <div id=""grid-container"">
        <!-- Grid items will be dynamically added here -->
    </div>    ","null","","","","","","","","","","","",""
"","null","html-keyboard-response","289","521940","0.0-13.0-0.26","0hh5mZ8heY","5df416a57bf5722f9a501255","6617fad957f7c6a12ea16e26","6622d0992d38107c676d2348","fixation cross","null","","","","","","","","","","","",""
"","1659","html-keyboard-response","290","523599","0.0-13.0-1.26","0hh5mZ8heY","5df416a57bf5722f9a501255","6617fad957f7c6a12ea16e26","6622d0992d38107c676d2348","image grid","p","","","","","Phylogenetic_Distractor_Nonthreat_target","2500","ongrid","p","6","Phylogenetic","true","experimental"
"","null","html-keyboard-response","291","523753","0.0-13.0-2.26","0hh5mZ8heY","5df416a57bf5722f9a501255","6617fad957f7c6a12ea16e26","6622d0992d38107c676d2348","
    <div id=""grid-container"">
        <!-- Grid items will be dynamically added here -->
    </div>    ","null","","","","","","","","","","","",""
"","null","html-keyboard-response","292","524463","0.0-13.0-0.27","0hh5mZ8heY","5df416a57bf5722f9a501255","6617fad957f7c6a12ea16e26","6622d0992d38107c676d2348","fixation cross","null","","","","","","","","","","","",""
"","981","html-keyboard-response","293","525444","0.0-13.0-1.27","0hh5mZ8heY","5df416a57bf5722f9a501255","6617fad957f7c6a12ea16e26","6622d0992d38107c676d2348","image grid","q","","","","","Phylogenetic_Distractor_Threat_target","2500","ongrid","q","8","Phylogenetic","true","experimental"
"","null","html-keyboard-response","294","525595","0.0-13.0-2.27","0hh5mZ8heY","5df416a57bf5722f9a501255","6617fad957f7c6a12ea16e26","6622d0992d38107c676d2348","
    <div id=""grid-container"">
        <!-- Grid items will be dynamically added here -->
    </div>    ","null","","","","","","","","","","","",""
"","null","html-keyboard-response","295","526304","0.0-13.0-0.28","0hh5mZ8heY","5df416a57bf5722f9a501255","6617fad957f7c6a12ea16e26","6622d0992d38107c676d2348","fixation cross","null","","","","","","","","","","","",""
"","919","html-keyboard-response","296","527223","0.0-13.0-1.28","0hh5mZ8heY","5df416a57bf5722f9a501255","6617fad957f7c6a12ea16e26","6622d0992d38107c676d2348","image grid","p","","","","","Phylogenetic_Distractor_Nonthreat_target","2500","ongrid","p","8","Phylogenetic","true","experimental"
"","null","html-keyboard-response","297","527388","0.0-13.0-2.28","0hh5mZ8heY","5df416a57bf5722f9a501255","6617fad957f7c6a12ea16e26","6622d0992d38107c676d2348","
    <div id=""grid-container"">
        <!-- Grid items will be dynamically added here -->
    </div>    ","null","","","","","","","","","","","",""
"","null","html-keyboard-response","298","528097","0.0-13.0-0.29","0hh5mZ8heY","5df416a57bf5722f9a501255","6617fad957f7c6a12ea16e26","6622d0992d38107c676d2348","fixation cross","null","","","","","","","","","","","",""
"","1616","html-keyboard-response","299","529713","0.0-13.0-1.29","0hh5mZ8heY","5df416a57bf5722f9a501255","6617fad957f7c6a12ea16e26","6622d0992d38107c676d2348","image grid","q","","","","","Phylogenetic_Distractor_Threat_target","2500","ongrid","q","2","Phylogenetic","true","experimental"
"","null","html-keyboard-response","300","529870","0.0-13.0-2.29","0hh5mZ8heY","5df416a57bf5722f9a501255","6617fad957f7c6a12ea16e26","6622d0992d38107c676d2348","
    <div id=""grid-container"">
        <!-- Grid items will be dynamically added here -->
    </div>    ","null","","","","","","","","","","","",""
"","null","html-keyboard-response","301","530580","0.0-13.0-0.30","0hh5mZ8heY","5df416a57bf5722f9a501255","6617fad957f7c6a12ea16e26","6622d0992d38107c676d2348","fixation cross","null","","","","","","","","","","","",""
"","1520","html-keyboard-response","302","532101","0.0-13.0-1.30","0hh5mZ8heY","5df416a57bf5722f9a501255","6617fad957f7c6a12ea16e26","6622d0992d38107c676d2348","image grid","q","","","","","Phylogenetic_Distractor_Threat_target","2500","ongrid","q","3","Phylogenetic","true","experimental"
"","null","html-keyboard-response","303","532259","0.0-13.0-2.30","0hh5mZ8heY","5df416a57bf5722f9a501255","6617fad957f7c6a12ea16e26","6622d0992d38107c676d2348","
    <div id=""grid-container"">
        <!-- Grid items will be dynamically added here -->
    </div>    ","null","","","","","","","","","","","",""
"","null","html-keyboard-response","304","532965","0.0-13.0-0.31","0hh5mZ8heY","5df416a57bf5722f9a501255","6617fad957f7c6a12ea16e26","6622d0992d38107c676d2348","fixation cross","null","","","","","","","","","","","",""
"","742","html-keyboard-response","305","533707","0.0-13.0-1.31","0hh5mZ8heY","5df416a57bf5722f9a501255","6617fad957f7c6a12ea16e26","6622d0992d38107c676d2348","image grid","q","","","","","Phylogenetic_Distractor_Threat_target","2500","ongrid","q","3","Phylogenetic","true","experimental"
"","null","html-keyboard-response","306","533866","0.0-13.0-2.31","0hh5mZ8heY","5df416a57bf5722f9a501255","6617fad957f7c6a12ea16e26","6622d0992d38107c676d2348","
    <div id=""grid-container"">
        <!-- Grid items will be dynamically added here -->
    </div>    ","null","","","","","","","","","","","",""
"","null","html-keyboard-response","307","534575","0.0-13.0-0.32","0hh5mZ8heY","5df416a57bf5722f9a501255","6617fad957f7c6a12ea16e26","6622d0992d38107c676d2348","fixation cross","null","","","","","","","","","","","",""
"","null","html-keyboard-response","308","537088","0.0-13.0-1.32","0hh5mZ8heY","5df416a57bf5722f9a501255","6617fad957f7c6a12ea16e26","6622d0992d38107c676d2348","
        <div id=""grid-container"">
        <!-- Grid items will be dynamically added here -->
    </div>    ","null","","","","","","","","","","","",""
"","2934","html-keyboard-response","309","537523","0.0-13.0-2.32","0hh5mZ8heY","5df416a57bf5722f9a501255","6617fad957f7c6a12ea16e26","6622d0992d38107c676d2348","mask grid"," ","","","","","Phylogenetic_Distractor_notarget","2500","onmask"," ","6","Phylogenetic","true","experimental"
"","null","html-keyboard-response","310","538242","0.0-13.0-0.33","0hh5mZ8heY","5df416a57bf5722f9a501255","6617fad957f7c6a12ea16e26","6622d0992d38107c676d2348","fixation cross","null","","","","","","","","","","","",""
"","1110","html-keyboard-response","311","539352","0.0-13.0-1.33","0hh5mZ8heY","5df416a57bf5722f9a501255","6617fad957f7c6a12ea16e26","6622d0992d38107c676d2348","image grid","q","","","","","Phylogenetic_Distractor_Threat_target","2500","ongrid","q","4","Phylogenetic","true","experimental"
"","null","html-keyboard-response","312","539507","0.0-13.0-2.33","0hh5mZ8heY","5df416a57bf5722f9a501255","6617fad957f7c6a12ea16e26","6622d0992d38107c676d2348","
    <div id=""grid-container"">
        <!-- Grid items will be dynamically added here -->
    </div>    ","null","","","","","","","","","","","",""
"","null","html-keyboard-response","313","540216","0.0-13.0-0.34","0hh5mZ8heY","5df416a57bf5722f9a501255","6617fad957f7c6a12ea16e26","6622d0992d38107c676d2348","fixation cross","null","","","","","","","","","","","",""
"","1923","html-keyboard-response","314","542140","0.0-13.0-1.34","0hh5mZ8heY","5df416a57bf5722f9a501255","6617fad957f7c6a12ea16e26","6622d0992d38107c676d2348","image grid","p","","","","","Phylogenetic_Distractor_Nonthreat_target","2500","ongrid","p","3","Phylogenetic","true","experimental"
"","null","html-keyboard-response","315","542304","0.0-13.0-2.34","0hh5mZ8heY","5df416a57bf5722f9a501255","6617fad957f7c6a12ea16e26","6622d0992d38107c676d2348","
    <div id=""grid-container"">
        <!-- Grid items will be dynamically added here -->
    </div>    ","null","","","","","","","","","","","",""
"","null","html-keyboard-response","316","543007","0.0-13.0-0.35","0hh5mZ8heY","5df416a57bf5722f9a501255","6617fad957f7c6a12ea16e26","6622d0992d38107c676d2348","fixation cross","null","","","","","","","","","","","",""
"","null","html-keyboard-response","317","545520","0.0-13.0-1.35","0hh5mZ8heY","5df416a57bf5722f9a501255","6617fad957f7c6a12ea16e26","6622d0992d38107c676d2348","
        <div id=""grid-container"">
        <!-- Grid items will be dynamically added here -->
    </div>    ","null","","","","","","","","","","","",""
"","2521","html-keyboard-response","318","545541","0.0-13.0-2.35","0hh5mZ8heY","5df416a57bf5722f9a501255","6617fad957f7c6a12ea16e26","6622d0992d38107c676d2348","mask grid","p","","","","","Phylogenetic_Distractor_Nonthreat_target","2500","onmask","p","4","Phylogenetic","true","experimental"
"","null","html-keyboard-response","319","546258","0.0-13.0-0.36","0hh5mZ8heY","5df416a57bf5722f9a501255","6617fad957f7c6a12ea16e26","6622d0992d38107c676d2348","fixation cross","null","","","","","","","","","","","",""
"","1749","html-keyboard-response","320","548007","0.0-13.0-1.36","0hh5mZ8heY","5df416a57bf5722f9a501255","6617fad957f7c6a12ea16e26","6622d0992d38107c676d2348","image grid","q","","","","","Phylogenetic_Distractor_Threat_target","2500","ongrid","q","3","Phylogenetic","true","experimental"
"","null","html-keyboard-response","321","548162","0.0-13.0-2.36","0hh5mZ8heY","5df416a57bf5722f9a501255","6617fad957f7c6a12ea16e26","6622d0992d38107c676d2348","
    <div id=""grid-container"">
        <!-- Grid items will be dynamically added here -->
    </div>    ","null","","","","","","","","","","","",""
"","null","html-keyboard-response","322","548868","0.0-13.0-0.37","0hh5mZ8heY","5df416a57bf5722f9a501255","6617fad957f7c6a12ea16e26","6622d0992d38107c676d2348","fixation cross","null","","","","","","","","","","","",""
"","1736","html-keyboard-response","323","550605","0.0-13.0-1.37","0hh5mZ8heY","5df416a57bf5722f9a501255","6617fad957f7c6a12ea16e26","6622d0992d38107c676d2348","image grid","q","","","","","Phylogenetic_Distractor_Threat_target","2500","ongrid","q","5","Phylogenetic","true","experimental"
"","null","html-keyboard-response","324","550756","0.0-13.0-2.37","0hh5mZ8heY","5df416a57bf5722f9a501255","6617fad957f7c6a12ea16e26","6622d0992d38107c676d2348","
    <div id=""grid-container"">
        <!-- Grid items will be dynamically added here -->
    </div>    ","null","","","","","","","","","","","",""
"","null","html-keyboard-response","325","551466","0.0-13.0-0.38","0hh5mZ8heY","5df416a57bf5722f9a501255","6617fad957f7c6a12ea16e26","6622d0992d38107c676d2348","fixation cross","null","","","","","","","","","","","",""
"","1936","html-keyboard-response","326","553402","0.0-13.0-1.38","0hh5mZ8heY","5df416a57bf5722f9a501255","6617fad957f7c6a12ea16e26","6622d0992d38107c676d2348","image grid","p","","","","","Phylogenetic_Distractor_Nonthreat_target","2500","ongrid","p","6","Phylogenetic","true","experimental"
"","null","html-keyboard-response","327","553554","0.0-13.0-2.38","0hh5mZ8heY","5df416a57bf5722f9a501255","6617fad957f7c6a12ea16e26","6622d0992d38107c676d2348","
    <div id=""grid-container"">
        <!-- Grid items will be dynamically added here -->
    </div>    ","null","","","","","","","","","","","",""
"","null","html-keyboard-response","328","554262","0.0-13.0-0.39","0hh5mZ8heY","5df416a57bf5722f9a501255","6617fad957f7c6a12ea16e26","6622d0992d38107c676d2348","fixation cross","null","","","","","","","","","","","",""
"","1366","html-keyboard-response","329","555627","0.0-13.0-1.39","0hh5mZ8heY","5df416a57bf5722f9a501255","6617fad957f7c6a12ea16e26","6622d0992d38107c676d2348","image grid","p","","","","","Phylogenetic_Distractor_Nonthreat_target","2500","ongrid","p","4","Phylogenetic","true","experimental"
"","null","html-keyboard-response","330","555780","0.0-13.0-2.39","0hh5mZ8heY","5df416a57bf5722f9a501255","6617fad957f7c6a12ea16e26","6622d0992d38107c676d2348","
    <div id=""grid-container"">
        <!-- Grid items will be dynamically added here -->
    </div>    ","null","","","","","","","","","","","",""
"","40161","html-keyboard-response","331","596145","0.0-14.0","0hh5mZ8heY","5df416a57bf5722f9a501255","6617fad957f7c6a12ea16e26","6622d0992d38107c676d2348","break screen","h","","","","","","","","","","","",""
"","null","html-keyboard-response","332","598664","0.0-15.0-0.0","0hh5mZ8heY","5df416a57bf5722f9a501255","6617fad957f7c6a12ea16e26","6622d0992d38107c676d2348","fixation cross","null","","","","","","","","","","","",""
"","2451","html-keyboard-response","333","601116","0.0-15.0-1.0","0hh5mZ8heY","5df416a57bf5722f9a501255","6617fad957f7c6a12ea16e26","6622d0992d38107c676d2348","image grid","q","","","","","Phylogenetic_Distractor_Threat_target","2500","ongrid","q","4","Phylogenetic","true","experimental"
"","null","html-keyboard-response","334","601282","0.0-15.0-2.0","0hh5mZ8heY","5df416a57bf5722f9a501255","6617fad957f7c6a12ea16e26","6622d0992d38107c676d2348","
    <div id=""grid-container"">
        <!-- Grid items will be dynamically added here -->
    </div>    ","null","","","","","","","","","","","",""
"","null","html-keyboard-response","335","601990","0.0-15.0-0.1","0hh5mZ8heY","5df416a57bf5722f9a501255","6617fad957f7c6a12ea16e26","6622d0992d38107c676d2348","fixation cross","null","","","","","","","","","","","",""
"","932","html-keyboard-response","336","602922","0.0-15.0-1.1","0hh5mZ8heY","5df416a57bf5722f9a501255","6617fad957f7c6a12ea16e26","6622d0992d38107c676d2348","image grid","q","","","","","Phylogenetic_Distractor_Threat_target","2500","ongrid","q","4","Phylogenetic","true","experimental"
"","null","html-keyboard-response","337","603078","0.0-15.0-2.1","0hh5mZ8heY","5df416a57bf5722f9a501255","6617fad957f7c6a12ea16e26","6622d0992d38107c676d2348","
    <div id=""grid-container"">
        <!-- Grid items will be dynamically added here -->
    </div>    ","null","","","","","","","","","","","",""
"","null","html-keyboard-response","338","603789","0.0-15.0-0.2","0hh5mZ8heY","5df416a57bf5722f9a501255","6617fad957f7c6a12ea16e26","6622d0992d38107c676d2348","fixation cross","null","","","","","","","","","","","",""
"","2158","html-keyboard-response","339","605947","0.0-15.0-1.2","0hh5mZ8heY","5df416a57bf5722f9a501255","6617fad957f7c6a12ea16e26","6622d0992d38107c676d2348","image grid","p","","","","","Phylogenetic_Distractor_Nonthreat_target","2500","ongrid","p","4","Phylogenetic","true","experimental"
"","null","html-keyboard-response","340","606102","0.0-15.0-2.2","0hh5mZ8heY","5df416a57bf5722f9a501255","6617fad957f7c6a12ea16e26","6622d0992d38107c676d2348","
    <div id=""grid-container"">
        <!-- Grid items will be dynamically added here -->
    </div>    ","null","","","","","","","","","","","",""
"","null","html-keyboard-response","341","606817","0.0-15.0-0.3","0hh5mZ8heY","5df416a57bf5722f9a501255","6617fad957f7c6a12ea16e26","6622d0992d38107c676d2348","fixation cross","null","","","","","","","","","","","",""
"","927","html-keyboard-response","342","607744","0.0-15.0-1.3","0hh5mZ8heY","5df416a57bf5722f9a501255","6617fad957f7c6a12ea16e26","6622d0992d38107c676d2348","image grid","p","","","","","Phylogenetic_Distractor_Nonthreat_target","2500","ongrid","p","4","Phylogenetic","true","experimental"
"","null","html-keyboard-response","343","607899","0.0-15.0-2.3","0hh5mZ8heY","5df416a57bf5722f9a501255","6617fad957f7c6a12ea16e26","6622d0992d38107c676d2348","
    <div id=""grid-container"">
        <!-- Grid items will be dynamically added here -->
    </div>    ","null","","","","","","","","","","","",""
"","null","html-keyboard-response","344","608615","0.0-15.0-0.4","0hh5mZ8heY","5df416a57bf5722f9a501255","6617fad957f7c6a12ea16e26","6622d0992d38107c676d2348","fixation cross","null","","","","","","","","","","","",""
"","1146","html-keyboard-response","345","609762","0.0-15.0-1.4","0hh5mZ8heY","5df416a57bf5722f9a501255","6617fad957f7c6a12ea16e26","6622d0992d38107c676d2348","image grid","q","","","","","Phylogenetic_Distractor_Threat_target","2500","ongrid","q","9","Phylogenetic","true","experimental"
"","null","html-keyboard-response","346","609928","0.0-15.0-2.4","0hh5mZ8heY","5df416a57bf5722f9a501255","6617fad957f7c6a12ea16e26","6622d0992d38107c676d2348","
    <div id=""grid-container"">
        <!-- Grid items will be dynamically added here -->
    </div>    ","null","","","","","","","","","","","",""
"","null","html-keyboard-response","347","610650","0.0-15.0-0.5","0hh5mZ8heY","5df416a57bf5722f9a501255","6617fad957f7c6a12ea16e26","6622d0992d38107c676d2348","fixation cross","null","","","","","","","","","","","",""
"","1483","html-keyboard-response","348","612133","0.0-15.0-1.5","0hh5mZ8heY","5df416a57bf5722f9a501255","6617fad957f7c6a12ea16e26","6622d0992d38107c676d2348","image grid","p","","","","","Phylogenetic_Distractor_Nonthreat_target","2500","ongrid","p","3","Phylogenetic","true","experimental"
"","null","html-keyboard-response","349","612284","0.0-15.0-2.5","0hh5mZ8heY","5df416a57bf5722f9a501255","6617fad957f7c6a12ea16e26","6622d0992d38107c676d2348","
    <div id=""grid-container"">
        <!-- Grid items will be dynamically added here -->
    </div>    ","null","","","","","","","","","","","",""
"","null","html-keyboard-response","350","612992","0.0-15.0-0.6","0hh5mZ8heY","5df416a57bf5722f9a501255","6617fad957f7c6a12ea16e26","6622d0992d38107c676d2348","fixation cross","null","","","","","","","","","","","",""
"","1284","html-keyboard-response","351","614276","0.0-15.0-1.6","0hh5mZ8heY","5df416a57bf5722f9a501255","6617fad957f7c6a12ea16e26","6622d0992d38107c676d2348","image grid","q","","","","","Phylogenetic_Distractor_Threat_target","2500","ongrid","q","5","Phylogenetic","true","experimental"
"","null","html-keyboard-response","352","614433","0.0-15.0-2.6","0hh5mZ8heY","5df416a57bf5722f9a501255","6617fad957f7c6a12ea16e26","6622d0992d38107c676d2348","
    <div id=""grid-container"">
        <!-- Grid items will be dynamically added here -->
    </div>    ","null","","","","","","","","","","","",""
"","null","html-keyboard-response","353","615151","0.0-15.0-0.7","0hh5mZ8heY","5df416a57bf5722f9a501255","6617fad957f7c6a12ea16e26","6622d0992d38107c676d2348","fixation cross","null","","","","","","","","","","","",""
"","981","html-keyboard-response","354","616133","0.0-15.0-1.7","0hh5mZ8heY","5df416a57bf5722f9a501255","6617fad957f7c6a12ea16e26","6622d0992d38107c676d2348","image grid","p","","","","","Phylogenetic_Distractor_Nonthreat_target","2500","ongrid","p","5","Phylogenetic","true","experimental"
"","null","html-keyboard-response","355","616291","0.0-15.0-2.7","0hh5mZ8heY","5df416a57bf5722f9a501255","6617fad957f7c6a12ea16e26","6622d0992d38107c676d2348","
    <div id=""grid-container"">
        <!-- Grid items will be dynamically added here -->
    </div>    ","null","","","","","","","","","","","",""
"","null","html-keyboard-response","356","616998","0.0-15.0-0.8","0hh5mZ8heY","5df416a57bf5722f9a501255","6617fad957f7c6a12ea16e26","6622d0992d38107c676d2348","fixation cross","null","","","","","","","","","","","",""
"","1482","html-keyboard-response","357","618481","0.0-15.0-1.8","0hh5mZ8heY","5df416a57bf5722f9a501255","6617fad957f7c6a12ea16e26","6622d0992d38107c676d2348","image grid","p","","","","","Phylogenetic_Distractor_Nonthreat_target","2500","ongrid","p","4","Phylogenetic","true","experimental"
"","null","html-keyboard-response","358","618633","0.0-15.0-2.8","0hh5mZ8heY","5df416a57bf5722f9a501255","6617fad957f7c6a12ea16e26","6622d0992d38107c676d2348","
    <div id=""grid-container"">
        <!-- Grid items will be dynamically added here -->
    </div>    ","null","","","","","","","","","","","",""
"","null","html-keyboard-response","359","619353","0.0-15.0-0.9","0hh5mZ8heY","5df416a57bf5722f9a501255","6617fad957f7c6a12ea16e26","6622d0992d38107c676d2348","fixation cross","null","","","","","","","","","","","",""
"","1407","html-keyboard-response","360","620760","0.0-15.0-1.9","0hh5mZ8heY","5df416a57bf5722f9a501255","6617fad957f7c6a12ea16e26","6622d0992d38107c676d2348","image grid","p","","","","","Phylogenetic_Distractor_Nonthreat_target","2500","ongrid","p","3","Phylogenetic","true","experimental"
"","null","html-keyboard-response","361","620919","0.0-15.0-2.9","0hh5mZ8heY","5df416a57bf5722f9a501255","6617fad957f7c6a12ea16e26","6622d0992d38107c676d2348","
    <div id=""grid-container"">
        <!-- Grid items will be dynamically added here -->
    </div>    ","null","","","","","","","","","","","",""
"","null","html-keyboard-response","362","621626","0.0-15.0-0.10","0hh5mZ8heY","5df416a57bf5722f9a501255","6617fad957f7c6a12ea16e26","6622d0992d38107c676d2348","fixation cross","null","","","","","","","","","","","",""
"","1833","html-keyboard-response","363","623460","0.0-15.0-1.10","0hh5mZ8heY","5df416a57bf5722f9a501255","6617fad957f7c6a12ea16e26","6622d0992d38107c676d2348","image grid"," ","","","","","Phylogenetic_Distractor_notarget","2500","ongrid"," ","3","Phylogenetic","true","experimental"
"","null","html-keyboard-response","364","623612","0.0-15.0-2.10","0hh5mZ8heY","5df416a57bf5722f9a501255","6617fad957f7c6a12ea16e26","6622d0992d38107c676d2348","
    <div id=""grid-container"">
        <!-- Grid items will be dynamically added here -->
    </div>    ","null","","","","","","","","","","","",""
"","null","html-keyboard-response","365","624332","0.0-15.0-0.11","0hh5mZ8heY","5df416a57bf5722f9a501255","6617fad957f7c6a12ea16e26","6622d0992d38107c676d2348","fixation cross","null","","","","","","","","","","","",""
"","1178","html-keyboard-response","366","625510","0.0-15.0-1.11","0hh5mZ8heY","5df416a57bf5722f9a501255","6617fad957f7c6a12ea16e26","6622d0992d38107c676d2348","image grid","p","","","","","Phylogenetic_Distractor_Nonthreat_target","2500","ongrid","p","4","Phylogenetic","true","experimental"
"","null","html-keyboard-response","367","625664","0.0-15.0-2.11","0hh5mZ8heY","5df416a57bf5722f9a501255","6617fad957f7c6a12ea16e26","6622d0992d38107c676d2348","
    <div id=""grid-container"">
        <!-- Grid items will be dynamically added here -->
    </div>    ","null","","","","","","","","","","","",""
"","null","html-keyboard-response","368","626371","0.0-15.0-0.12","0hh5mZ8heY","5df416a57bf5722f9a501255","6617fad957f7c6a12ea16e26","6622d0992d38107c676d2348","fixation cross","null","","","","","","","","","","","",""
"","1881","html-keyboard-response","369","628252","0.0-15.0-1.12","0hh5mZ8heY","5df416a57bf5722f9a501255","6617fad957f7c6a12ea16e26","6622d0992d38107c676d2348","image grid","q","","","","","Phylogenetic_Distractor_Threat_target","2500","ongrid","q","1","Phylogenetic","true","experimental"
