"success","rt","trial_type","trial_index","time_elapsed","internal_node_id","unique_identifier","subject_id","study_id","session_id","stimulus","response","timeout","failed_images","failed_audio","failed_video","task","respondedwhen","time_manipulation","correctresponse","targetimagelocation","blocktype","correct","roundtype"
"true","1725","fullscreen","0","2729","0.0-0.0","F2u1GHJ1Ug","6400dde611c4534903252cba","6617fad957f7c6a12ea16e26","6622cf46c230f86477d59bbc","","","","","","","","","","","","","",""
"","10316","html-keyboard-response","1","13049","0.0-1.0","F2u1GHJ1Ug","6400dde611c4534903252cba","6617fad957f7c6a12ea16e26","6622cf46c230f86477d59bbc","instruction screen 0","n","","","","","","","","","","","",""
"true","","preload","2","17884","0.0-2.0","F2u1GHJ1Ug","6400dde611c4534903252cba","6617fad957f7c6a12ea16e26","6622cf46c230f86477d59bbc","","","false","[]","[]","[]","","","","","","","",""
"","15085","html-keyboard-response","3","32971","0.0-3.0","F2u1GHJ1Ug","6400dde611c4534903252cba","6617fad957f7c6a12ea16e26","6622cf46c230f86477d59bbc","instruction screen 1"," ","","","","","","","","","","","",""
"","7486","html-keyboard-response","4","40462","0.0-4.0","F2u1GHJ1Ug","6400dde611c4534903252cba","6617fad957f7c6a12ea16e26","6622cf46c230f86477d59bbc","instruction screen 2","q","","","","","","","","","","","",""
"","3799","html-keyboard-response","5","44265","0.0-5.0","F2u1GHJ1Ug","6400dde611c4534903252cba","6617fad957f7c6a12ea16e26","6622cf46c230f86477d59bbc","instruction screen 3","p","","","","","","","","","","","",""
"","4603","html-keyboard-response","6","48872","0.0-6.0","F2u1GHJ1Ug","6400dde611c4534903252cba","6617fad957f7c6a12ea16e26","6622cf46c230f86477d59bbc","instruction screen 4"," ","","","","","","","","","","","",""
"","9437","html-keyboard-response","7","58314","0.0-7.0","F2u1GHJ1Ug","6400dde611c4534903252cba","6617fad957f7c6a12ea16e26","6622cf46c230f86477d59bbc","instruction screen 5"," ","","","","","","","","","","","",""
"","null","html-keyboard-response","8","58818","0.0-8.0","F2u1GHJ1Ug","6400dde611c4534903252cba","6617fad957f7c6a12ea16e26","6622cf46c230f86477d59bbc","fixation cross","null","","","","","","","","","","","",""
"","null","html-keyboard-response","9","59320","0.0-9.0-0.0","F2u1GHJ1Ug","6400dde611c4534903252cba","6617fad957f7c6a12ea16e26","6622cf46c230f86477d59bbc","fixation cross","null","","","","","","","","","","","",""
"","null","html-keyboard-response","10","62323","0.0-9.0-1.0","F2u1GHJ1Ug","6400dde611c4534903252cba","6617fad957f7c6a12ea16e26","6622cf46c230f86477d59bbc","
        <div id=""grid-container"">
        <!-- Grid items will be dynamically added here -->
    </div>    ","null","","","","","","","","","","","",""
"","4284","html-keyboard-response","11","63607","0.0-9.0-2.0","F2u1GHJ1Ug","6400dde611c4534903252cba","6617fad957f7c6a12ea16e26","6622cf46c230f86477d59bbc","mask grid","p","","","","","Phylogenetic_Distractor_notarget","onmask","3000"," ","9","Phylogenetic","false","practice"
"","null","html-keyboard-response","12","64812","0.0-9.0-3.0","F2u1GHJ1Ug","6400dde611c4534903252cba","6617fad957f7c6a12ea16e26","6622cf46c230f86477d59bbc","feedback screen","null","","","","","","","","","","","",""
"","null","html-keyboard-response","13","65319","0.0-9.0-0.1","F2u1GHJ1Ug","6400dde611c4534903252cba","6617fad957f7c6a12ea16e26","6622cf46c230f86477d59bbc","fixation cross","null","","","","","","","","","","","",""
"","1461","html-keyboard-response","14","66781","0.0-9.0-1.1","F2u1GHJ1Ug","6400dde611c4534903252cba","6617fad957f7c6a12ea16e26","6622cf46c230f86477d59bbc","image grid","q","","","","","Ontogenetic_Distractor_Threat_target","ongrid","2900","q","1","Phylogenetic","true","practice"
"","null","html-keyboard-response","15","66934","0.0-9.0-2.1","F2u1GHJ1Ug","6400dde611c4534903252cba","6617fad957f7c6a12ea16e26","6622cf46c230f86477d59bbc","
    <div id=""grid-container"">
        <!-- Grid items will be dynamically added here -->
    </div>    ","null","","","","","","","","","","","",""
"","null","html-keyboard-response","16","68139","0.0-9.0-3.1","F2u1GHJ1Ug","6400dde611c4534903252cba","6617fad957f7c6a12ea16e26","6622cf46c230f86477d59bbc","feedback screen","null","","","","","","","","","","","",""
"","null","html-keyboard-response","17","68645","0.0-9.0-0.2","F2u1GHJ1Ug","6400dde611c4534903252cba","6617fad957f7c6a12ea16e26","6622cf46c230f86477d59bbc","fixation cross","null","","","","","","","","","","","",""
"","2182","html-keyboard-response","18","70829","0.0-9.0-1.2","F2u1GHJ1Ug","6400dde611c4534903252cba","6617fad957f7c6a12ea16e26","6622cf46c230f86477d59bbc","image grid","q","","","","","Phylogenetic_Distractor_Threat_target","ongrid","2800","q","7","Phylogenetic","true","practice"
"","null","html-keyboard-response","19","70981","0.0-9.0-2.2","F2u1GHJ1Ug","6400dde611c4534903252cba","6617fad957f7c6a12ea16e26","6622cf46c230f86477d59bbc","
    <div id=""grid-container"">
        <!-- Grid items will be dynamically added here -->
    </div>    ","null","","","","","","","","","","","",""
"","null","html-keyboard-response","20","72186","0.0-9.0-3.2","F2u1GHJ1Ug","6400dde611c4534903252cba","6617fad957f7c6a12ea16e26","6622cf46c230f86477d59bbc","feedback screen","null","","","","","","","","","","","",""
"","null","html-keyboard-response","21","72693","0.0-9.0-0.3","F2u1GHJ1Ug","6400dde611c4534903252cba","6617fad957f7c6a12ea16e26","6622cf46c230f86477d59bbc","fixation cross","null","","","","","","","","","","","",""
"","1091","html-keyboard-response","22","73784","0.0-9.0-1.3","F2u1GHJ1Ug","6400dde611c4534903252cba","6617fad957f7c6a12ea16e26","6622cf46c230f86477d59bbc","image grid","q","","","","","Ontogenetic_Distractor_Threat_target","ongrid","2700","q","8","Phylogenetic","true","practice"
"","null","html-keyboard-response","23","73937","0.0-9.0-2.3","F2u1GHJ1Ug","6400dde611c4534903252cba","6617fad957f7c6a12ea16e26","6622cf46c230f86477d59bbc","
    <div id=""grid-container"">
        <!-- Grid items will be dynamically added here -->
    </div>    ","null","","","","","","","","","","","",""
"","null","html-keyboard-response","24","75142","0.0-9.0-3.3","F2u1GHJ1Ug","6400dde611c4534903252cba","6617fad957f7c6a12ea16e26","6622cf46c230f86477d59bbc","feedback screen","null","","","","","","","","","","","",""
"","null","html-keyboard-response","25","75648","0.0-9.0-0.4","F2u1GHJ1Ug","6400dde611c4534903252cba","6617fad957f7c6a12ea16e26","6622cf46c230f86477d59bbc","fixation cross","null","","","","","","","","","","","",""
"","835","html-keyboard-response","26","76484","0.0-9.0-1.4","F2u1GHJ1Ug","6400dde611c4534903252cba","6617fad957f7c6a12ea16e26","6622cf46c230f86477d59bbc","image grid","q","","","","","Phylogenetic_Distractor_Threat_target","ongrid","2600","q","4","Phylogenetic","true","practice"
"","null","html-keyboard-response","27","76636","0.0-9.0-2.4","F2u1GHJ1Ug","6400dde611c4534903252cba","6617fad957f7c6a12ea16e26","6622cf46c230f86477d59bbc","
    <div id=""grid-container"">
        <!-- Grid items will be dynamically added here -->
    </div>    ","null","","","","","","","","","","","",""
"","null","html-keyboard-response","28","77841","0.0-9.0-3.4","F2u1GHJ1Ug","6400dde611c4534903252cba","6617fad957f7c6a12ea16e26","6622cf46c230f86477d59bbc","feedback screen","null","","","","","","","","","","","",""
"","null","html-keyboard-response","29","78347","0.0-9.0-0.5","F2u1GHJ1Ug","6400dde611c4534903252cba","6617fad957f7c6a12ea16e26","6622cf46c230f86477d59bbc","fixation cross","null","","","","","","","","","","","",""
"","937","html-keyboard-response","30","79284","0.0-9.0-1.5","F2u1GHJ1Ug","6400dde611c4534903252cba","6617fad957f7c6a12ea16e26","6622cf46c230f86477d59bbc","image grid","q","","","","","Phylogenetic_Distractor_Threat_target","ongrid","2500","q","9","Phylogenetic","true","practice"
"","null","html-keyboard-response","31","79437","0.0-9.0-2.5","F2u1GHJ1Ug","6400dde611c4534903252cba","6617fad957f7c6a12ea16e26","6622cf46c230f86477d59bbc","
    <div id=""grid-container"">
        <!-- Grid items will be dynamically added here -->
    </div>    ","null","","","","","","","","","","","",""
"","null","html-keyboard-response","32","80641","0.0-9.0-3.5","F2u1GHJ1Ug","6400dde611c4534903252cba","6617fad957f7c6a12ea16e26","6622cf46c230f86477d59bbc","feedback screen","null","","","","","","","","","","","",""
"","null","html-keyboard-response","33","81147","0.0-9.0-0.6","F2u1GHJ1Ug","6400dde611c4534903252cba","6617fad957f7c6a12ea16e26","6622cf46c230f86477d59bbc","fixation cross","null","","","","","","","","","","","",""
"","1102","html-keyboard-response","34","82249","0.0-9.0-1.6","F2u1GHJ1Ug","6400dde611c4534903252cba","6617fad957f7c6a12ea16e26","6622cf46c230f86477d59bbc","image grid","p","","","","","Ontogenetic_Distractor_Nonthreat_target","ongrid","2400","p","3","Phylogenetic","true","practice"
"","null","html-keyboard-response","35","82402","0.0-9.0-2.6","F2u1GHJ1Ug","6400dde611c4534903252cba","6617fad957f7c6a12ea16e26","6622cf46c230f86477d59bbc","
    <div id=""grid-container"">
        <!-- Grid items will be dynamically added here -->
    </div>    ","null","","","","","","","","","","","",""
"","null","html-keyboard-response","36","83606","0.0-9.0-3.6","F2u1GHJ1Ug","6400dde611c4534903252cba","6617fad957f7c6a12ea16e26","6622cf46c230f86477d59bbc","feedback screen","null","","","","","","","","","","","",""
"","null","html-keyboard-response","37","84112","0.0-9.0-0.7","F2u1GHJ1Ug","6400dde611c4534903252cba","6617fad957f7c6a12ea16e26","6622cf46c230f86477d59bbc","fixation cross","null","","","","","","","","","","","",""
"","833","html-keyboard-response","38","84945","0.0-9.0-1.7","F2u1GHJ1Ug","6400dde611c4534903252cba","6617fad957f7c6a12ea16e26","6622cf46c230f86477d59bbc","image grid","q","","","","","Ontogenetic_Distractor_Threat_target","ongrid","2300","q","3","Phylogenetic","true","practice"
"","null","html-keyboard-response","39","85098","0.0-9.0-2.7","F2u1GHJ1Ug","6400dde611c4534903252cba","6617fad957f7c6a12ea16e26","6622cf46c230f86477d59bbc","
    <div id=""grid-container"">
        <!-- Grid items will be dynamically added here -->
    </div>    ","null","","","","","","","","","","","",""
"","null","html-keyboard-response","40","86302","0.0-9.0-3.7","F2u1GHJ1Ug","6400dde611c4534903252cba","6617fad957f7c6a12ea16e26","6622cf46c230f86477d59bbc","feedback screen","null","","","","","","","","","","","",""
"","null","html-keyboard-response","41","86809","0.0-9.0-0.8","F2u1GHJ1Ug","6400dde611c4534903252cba","6617fad957f7c6a12ea16e26","6622cf46c230f86477d59bbc","fixation cross","null","","","","","","","","","","","",""
"","874","html-keyboard-response","42","87684","0.0-9.0-1.8","F2u1GHJ1Ug","6400dde611c4534903252cba","6617fad957f7c6a12ea16e26","6622cf46c230f86477d59bbc","image grid","q","","","","","Ontogenetic_Distractor_Threat_target","ongrid","2200","q","9","Phylogenetic","true","practice"
"","null","html-keyboard-response","43","87837","0.0-9.0-2.8","F2u1GHJ1Ug","6400dde611c4534903252cba","6617fad957f7c6a12ea16e26","6622cf46c230f86477d59bbc","
    <div id=""grid-container"">
        <!-- Grid items will be dynamically added here -->
    </div>    ","null","","","","","","","","","","","",""
"","null","html-keyboard-response","44","89041","0.0-9.0-3.8","F2u1GHJ1Ug","6400dde611c4534903252cba","6617fad957f7c6a12ea16e26","6622cf46c230f86477d59bbc","feedback screen","null","","","","","","","","","","","",""
"","null","html-keyboard-response","45","89546","0.0-9.0-0.9","F2u1GHJ1Ug","6400dde611c4534903252cba","6617fad957f7c6a12ea16e26","6622cf46c230f86477d59bbc","fixation cross","null","","","","","","","","","","","",""
"","890","html-keyboard-response","46","90437","0.0-9.0-1.9","F2u1GHJ1Ug","6400dde611c4534903252cba","6617fad957f7c6a12ea16e26","6622cf46c230f86477d59bbc","image grid","p","","","","","Ontogenetic_Distractor_Nonthreat_target","ongrid","2100","p","8","Phylogenetic","true","practice"
"","null","html-keyboard-response","47","90590","0.0-9.0-2.9","F2u1GHJ1Ug","6400dde611c4534903252cba","6617fad957f7c6a12ea16e26","6622cf46c230f86477d59bbc","
    <div id=""grid-container"">
        <!-- Grid items will be dynamically added here -->
    </div>    ","null","","","","","","","","","","","",""
"","null","html-keyboard-response","48","91794","0.0-9.0-3.9","F2u1GHJ1Ug","6400dde611c4534903252cba","6617fad957f7c6a12ea16e26","6622cf46c230f86477d59bbc","feedback screen","null","","","","","","","","","","","",""
"","null","html-keyboard-response","49","92301","0.0-9.0-0.10","F2u1GHJ1Ug","6400dde611c4534903252cba","6617fad957f7c6a12ea16e26","6622cf46c230f86477d59bbc","fixation cross","null","","","","","","","","","","","",""
"","1076","html-keyboard-response","50","93378","0.0-9.0-1.10","F2u1GHJ1Ug","6400dde611c4534903252cba","6617fad957f7c6a12ea16e26","6622cf46c230f86477d59bbc","image grid","p","","","","","Ontogenetic_Distractor_Nonthreat_target","ongrid","2000","p","1","Phylogenetic","true","practice"
"","null","html-keyboard-response","51","93530","0.0-9.0-2.10","F2u1GHJ1Ug","6400dde611c4534903252cba","6617fad957f7c6a12ea16e26","6622cf46c230f86477d59bbc","
    <div id=""grid-container"">
        <!-- Grid items will be dynamically added here -->
    </div>    ","null","","","","","","","","","","","",""
"","null","html-keyboard-response","52","94733","0.0-9.0-3.10","F2u1GHJ1Ug","6400dde611c4534903252cba","6617fad957f7c6a12ea16e26","6622cf46c230f86477d59bbc","feedback screen","null","","","","","","","","","","","",""
"","null","html-keyboard-response","53","95240","0.0-9.0-0.11","F2u1GHJ1Ug","6400dde611c4534903252cba","6617fad957f7c6a12ea16e26","6622cf46c230f86477d59bbc","fixation cross","null","","","","","","","","","","","",""
"","1842","html-keyboard-response","54","97083","0.0-9.0-1.11","F2u1GHJ1Ug","6400dde611c4534903252cba","6617fad957f7c6a12ea16e26","6622cf46c230f86477d59bbc","image grid","q","","","","","Phylogenetic_Distractor_Nonthreat_target","ongrid","1900","p","2","Phylogenetic","false","practice"
"","null","html-keyboard-response","55","97235","0.0-9.0-2.11","F2u1GHJ1Ug","6400dde611c4534903252cba","6617fad957f7c6a12ea16e26","6622cf46c230f86477d59bbc","
    <div id=""grid-container"">
        <!-- Grid items will be dynamically added here -->
    </div>    ","null","","","","","","","","","","","",""
"","207","html-keyboard-response","56","97645","0.0-9.0-3.11","F2u1GHJ1Ug","6400dde611c4534903252cba","6617fad957f7c6a12ea16e26","6622cf46c230f86477d59bbc","feedback screen","p","","","","","","","","","","","",""
"","null","html-keyboard-response","57","98150","0.0-9.0-0.12","F2u1GHJ1Ug","6400dde611c4534903252cba","6617fad957f7c6a12ea16e26","6622cf46c230f86477d59bbc","fixation cross","null","","","","","","","","","","","",""
"","1445","html-keyboard-response","58","99595","0.0-9.0-1.12","F2u1GHJ1Ug","6400dde611c4534903252cba","6617fad957f7c6a12ea16e26","6622cf46c230f86477d59bbc","image grid","p","","","","","Phylogenetic_Distractor_Nonthreat_target","ongrid","1800","p","8","Phylogenetic","true","practice"
"","null","html-keyboard-response","59","99748","0.0-9.0-2.12","F2u1GHJ1Ug","6400dde611c4534903252cba","6617fad957f7c6a12ea16e26","6622cf46c230f86477d59bbc","
    <div id=""grid-container"">
        <!-- Grid items will be dynamically added here -->
    </div>    ","null","","","","","","","","","","","",""
"","null","html-keyboard-response","60","100952","0.0-9.0-3.12","F2u1GHJ1Ug","6400dde611c4534903252cba","6617fad957f7c6a12ea16e26","6622cf46c230f86477d59bbc","feedback screen","null","","","","","","","","","","","",""
"","null","html-keyboard-response","61","101457","0.0-9.0-0.13","F2u1GHJ1Ug","6400dde611c4534903252cba","6617fad957f7c6a12ea16e26","6622cf46c230f86477d59bbc","fixation cross","null","","","","","","","","","","","",""
"","1587","html-keyboard-response","62","103045","0.0-9.0-1.13","F2u1GHJ1Ug","6400dde611c4534903252cba","6617fad957f7c6a12ea16e26","6622cf46c230f86477d59bbc","image grid","p","","","","","Ontogenetic_Distractor_notarget","ongrid","1700"," ","9","Phylogenetic","false","practice"
"","null","html-keyboard-response","63","103198","0.0-9.0-2.13","F2u1GHJ1Ug","6400dde611c4534903252cba","6617fad957f7c6a12ea16e26","6622cf46c230f86477d59bbc","
    <div id=""grid-container"">
        <!-- Grid items will be dynamically added here -->
    </div>    ","null","","","","","","","","","","","",""
"","null","html-keyboard-response","64","104402","0.0-9.0-3.13","F2u1GHJ1Ug","6400dde611c4534903252cba","6617fad957f7c6a12ea16e26","6622cf46c230f86477d59bbc","feedback screen","null","","","","","","","","","","","",""
"","null","html-keyboard-response","65","104909","0.0-9.0-0.14","F2u1GHJ1Ug","6400dde611c4534903252cba","6617fad957f7c6a12ea16e26","6622cf46c230f86477d59bbc","fixation cross","null","","","","","","","","","","","",""
"","null","html-keyboard-response","66","106510","0.0-9.0-1.14","F2u1GHJ1Ug","6400dde611c4534903252cba","6617fad957f7c6a12ea16e26","6622cf46c230f86477d59bbc","
        <div id=""grid-container"">
        <!-- Grid items will be dynamically added here -->
    </div>    ","null","","","","","","","","","","","",""
"","2526","html-keyboard-response","67","107437","0.0-9.0-2.14","F2u1GHJ1Ug","6400dde611c4534903252cba","6617fad957f7c6a12ea16e26","6622cf46c230f86477d59bbc","mask grid","p","","","","","Phylogenetic_Distractor_notarget","onmask","1600"," ","9","Phylogenetic","false","practice"
"","null","html-keyboard-response","68","108642","0.0-9.0-3.14","F2u1GHJ1Ug","6400dde611c4534903252cba","6617fad957f7c6a12ea16e26","6622cf46c230f86477d59bbc","feedback screen","null","","","","","","","","","","","",""
"","null","html-keyboard-response","69","109149","0.0-9.0-0.15","F2u1GHJ1Ug","6400dde611c4534903252cba","6617fad957f7c6a12ea16e26","6622cf46c230f86477d59bbc","fixation cross","null","","","","","","","","","","","",""
"","null","html-keyboard-response","70","110652","0.0-9.0-1.15","F2u1GHJ1Ug","6400dde611c4534903252cba","6617fad957f7c6a12ea16e26","6622cf46c230f86477d59bbc","
        <div id=""grid-container"">
        <!-- Grid items will be dynamically added here -->
    </div>    ","null","","","","","","","","","","","",""
"","2516","html-keyboard-response","71","111668","0.0-9.0-2.15","F2u1GHJ1Ug","6400dde611c4534903252cba","6617fad957f7c6a12ea16e26","6622cf46c230f86477d59bbc","mask grid","p","","","","","Ontogenetic_Distractor_notarget","onmask","1500"," ","7","Phylogenetic","false","practice"
"","null","html-keyboard-response","72","112870","0.0-9.0-3.15","F2u1GHJ1Ug","6400dde611c4534903252cba","6617fad957f7c6a12ea16e26","6622cf46c230f86477d59bbc","feedback screen","null","","","","","","","","","","","",""
"","null","html-keyboard-response","73","113374","0.0-9.0-0.16","F2u1GHJ1Ug","6400dde611c4534903252cba","6617fad957f7c6a12ea16e26","6622cf46c230f86477d59bbc","fixation cross","null","","","","","","","","","","","",""
"","null","html-keyboard-response","74","114776","0.0-9.0-1.16","F2u1GHJ1Ug","6400dde611c4534903252cba","6617fad957f7c6a12ea16e26","6622cf46c230f86477d59bbc","
        <div id=""grid-container"">
        <!-- Grid items will be dynamically added here -->
    </div>    ","null","","","","","","","","","","","",""
"","1495","html-keyboard-response","75","114872","0.0-9.0-2.16","F2u1GHJ1Ug","6400dde611c4534903252cba","6617fad957f7c6a12ea16e26","6622cf46c230f86477d59bbc","mask grid","p","","","","","Phylogenetic_Distractor_Nonthreat_target","onmask","1400","p","2","Phylogenetic","true","practice"
"","null","html-keyboard-response","76","116076","0.0-9.0-3.16","F2u1GHJ1Ug","6400dde611c4534903252cba","6617fad957f7c6a12ea16e26","6622cf46c230f86477d59bbc","feedback screen","null","","","","","","","","","","","",""
"","null","html-keyboard-response","77","116582","0.0-9.0-0.17","F2u1GHJ1Ug","6400dde611c4534903252cba","6617fad957f7c6a12ea16e26","6622cf46c230f86477d59bbc","fixation cross","null","","","","","","","","","","","",""
"","null","html-keyboard-response","78","117885","0.0-9.0-1.17","F2u1GHJ1Ug","6400dde611c4534903252cba","6617fad957f7c6a12ea16e26","6622cf46c230f86477d59bbc","
        <div id=""grid-container"">
        <!-- Grid items will be dynamically added here -->
    </div>    ","null","","","","","","","","","","","",""
"","2447","html-keyboard-response","79","119033","0.0-9.0-2.17","F2u1GHJ1Ug","6400dde611c4534903252cba","6617fad957f7c6a12ea16e26","6622cf46c230f86477d59bbc","mask grid","p","","","","","Phylogenetic_Distractor_Nonthreat_target","onmask","1300","p","2","Phylogenetic","true","practice"
"","null","html-keyboard-response","80","120237","0.0-9.0-3.17","F2u1GHJ1Ug","6400dde611c4534903252cba","6617fad957f7c6a12ea16e26","6622cf46c230f86477d59bbc","feedback screen","null","","","","","","","","","","","",""
"","null","html-keyboard-response","81","120742","0.0-9.0-0.18","F2u1GHJ1Ug","6400dde611c4534903252cba","6617fad957f7c6a12ea16e26","6622cf46c230f86477d59bbc","fixation cross","null","","","","","","","","","","","",""
"","1096","html-keyboard-response","82","121839","0.0-9.0-1.18","F2u1GHJ1Ug","6400dde611c4534903252cba","6617fad957f7c6a12ea16e26","6622cf46c230f86477d59bbc","image grid","q","","","","","Phylogenetic_Distractor_Threat_target","ongrid","1200","q","1","Phylogenetic","true","practice"
"","null","html-keyboard-response","83","121991","0.0-9.0-2.18","F2u1GHJ1Ug","6400dde611c4534903252cba","6617fad957f7c6a12ea16e26","6622cf46c230f86477d59bbc","
    <div id=""grid-container"">
        <!-- Grid items will be dynamically added here -->
    </div>    ","null","","","","","","","","","","","",""
"","null","html-keyboard-response","84","123195","0.0-9.0-3.18","F2u1GHJ1Ug","6400dde611c4534903252cba","6617fad957f7c6a12ea16e26","6622cf46c230f86477d59bbc","feedback screen","null","","","","","","","","","","","",""
"","null","html-keyboard-response","85","123701","0.0-9.0-0.19","F2u1GHJ1Ug","6400dde611c4534903252cba","6617fad957f7c6a12ea16e26","6622cf46c230f86477d59bbc","fixation cross","null","","","","","","","","","","","",""
"","null","html-keyboard-response","86","124804","0.0-9.0-1.19","F2u1GHJ1Ug","6400dde611c4534903252cba","6617fad957f7c6a12ea16e26","6622cf46c230f86477d59bbc","
        <div id=""grid-container"">
        <!-- Grid items will be dynamically added here -->
    </div>    ","null","","","","","","","","","","","",""
"","1139","html-keyboard-response","87","124844","0.0-9.0-2.19","F2u1GHJ1Ug","6400dde611c4534903252cba","6617fad957f7c6a12ea16e26","6622cf46c230f86477d59bbc","mask grid","p","","","","","Ontogenetic_Distractor_Nonthreat_target","onmask","1100","p","4","Phylogenetic","true","practice"
"","null","html-keyboard-response","88","126048","0.0-9.0-3.19","F2u1GHJ1Ug","6400dde611c4534903252cba","6617fad957f7c6a12ea16e26","6622cf46c230f86477d59bbc","feedback screen","null","","","","","","","","","","","",""
"","5110","html-keyboard-response","89","131199","0.0-10.0","F2u1GHJ1Ug","6400dde611c4534903252cba","6617fad957f7c6a12ea16e26","6622cf46c230f86477d59bbc","pre-experimental_briefing"," ","","","","","","","","","","","",""
"","null","html-keyboard-response","90","133735","0.0-11.0-0.0","F2u1GHJ1Ug","6400dde611c4534903252cba","6617fad957f7c6a12ea16e26","6622cf46c230f86477d59bbc","fixation cross","null","","","","","","","","","","","",""
"","null","html-keyboard-response","91","136237","0.0-11.0-1.0","F2u1GHJ1Ug","6400dde611c4534903252cba","6617fad957f7c6a12ea16e26","6622cf46c230f86477d59bbc","
        <div id=""grid-container"">
        <!-- Grid items will be dynamically added here -->
    </div>    ","null","","","","","","","","","","","",""
"","3356","html-keyboard-response","92","137094","0.0-11.0-2.0","F2u1GHJ1Ug","6400dde611c4534903252cba","6617fad957f7c6a12ea16e26","6622cf46c230f86477d59bbc","mask grid","p","","","","","Phylogenetic_Distractor_notarget","onmask","2500"," ","8","Phylogenetic","false","experimental"
"","null","html-keyboard-response","93","137799","0.0-11.0-0.1","F2u1GHJ1Ug","6400dde611c4534903252cba","6617fad957f7c6a12ea16e26","6622cf46c230f86477d59bbc","fixation cross","null","","","","","","","","","","","",""
"","1388","html-keyboard-response","94","139187","0.0-11.0-1.1","F2u1GHJ1Ug","6400dde611c4534903252cba","6617fad957f7c6a12ea16e26","6622cf46c230f86477d59bbc","image grid","p","","","","","Phylogenetic_Distractor_Threat_target","ongrid","2500","q","1","Phylogenetic","false","experimental"
"","null","html-keyboard-response","95","139339","0.0-11.0-2.1","F2u1GHJ1Ug","6400dde611c4534903252cba","6617fad957f7c6a12ea16e26","6622cf46c230f86477d59bbc","
    <div id=""grid-container"">
        <!-- Grid items will be dynamically added here -->
    </div>    ","null","","","","","","","","","","","",""
"","269","html-keyboard-response","96","140043","0.0-11.0-0.2","F2u1GHJ1Ug","6400dde611c4534903252cba","6617fad957f7c6a12ea16e26","6622cf46c230f86477d59bbc","fixation cross","q","","","","","","","","","","","",""
"","1402","html-keyboard-response","97","141446","0.0-11.0-1.2","F2u1GHJ1Ug","6400dde611c4534903252cba","6617fad957f7c6a12ea16e26","6622cf46c230f86477d59bbc","image grid","q","","","","","Phylogenetic_Distractor_Nonthreat_target","ongrid","2500","p","1","Phylogenetic","false","experimental"
"","null","html-keyboard-response","98","141599","0.0-11.0-2.2","F2u1GHJ1Ug","6400dde611c4534903252cba","6617fad957f7c6a12ea16e26","6622cf46c230f86477d59bbc","
    <div id=""grid-container"">
        <!-- Grid items will be dynamically added here -->
    </div>    ","null","","","","","","","","","","","",""
"","null","html-keyboard-response","99","142302","0.0-11.0-0.3","F2u1GHJ1Ug","6400dde611c4534903252cba","6617fad957f7c6a12ea16e26","6622cf46c230f86477d59bbc","fixation cross","null","","","","","","","","","","","",""
"","1328","html-keyboard-response","100","143631","0.0-11.0-1.3","F2u1GHJ1Ug","6400dde611c4534903252cba","6617fad957f7c6a12ea16e26","6622cf46c230f86477d59bbc","image grid","q","","","","","Phylogenetic_Distractor_Threat_target","ongrid","2500","q","9","Phylogenetic","true","experimental"
"","null","html-keyboard-response","101","143784","0.0-11.0-2.3","F2u1GHJ1Ug","6400dde611c4534903252cba","6617fad957f7c6a12ea16e26","6622cf46c230f86477d59bbc","
    <div id=""grid-container"">
        <!-- Grid items will be dynamically added here -->
    </div>    ","null","","","","","","","","","","","",""
"","null","html-keyboard-response","102","144489","0.0-11.0-0.4","F2u1GHJ1Ug","6400dde611c4534903252cba","6617fad957f7c6a12ea16e26","6622cf46c230f86477d59bbc","fixation cross","null","","","","","","","","","","","",""
"","2075","html-keyboard-response","103","146565","0.0-11.0-1.4","F2u1GHJ1Ug","6400dde611c4534903252cba","6617fad957f7c6a12ea16e26","6622cf46c230f86477d59bbc","image grid","p","","","","","Phylogenetic_Distractor_Nonthreat_target","ongrid","2500","p","3","Phylogenetic","true","experimental"
"","null","html-keyboard-response","104","146717","0.0-11.0-2.4","F2u1GHJ1Ug","6400dde611c4534903252cba","6617fad957f7c6a12ea16e26","6622cf46c230f86477d59bbc","
    <div id=""grid-container"">
        <!-- Grid items will be dynamically added here -->
    </div>    ","null","","","","","","","","","","","",""
"","null","html-keyboard-response","105","147420","0.0-11.0-0.5","F2u1GHJ1Ug","6400dde611c4534903252cba","6617fad957f7c6a12ea16e26","6622cf46c230f86477d59bbc","fixation cross","null","","","","","","","","","","","",""
"","1259","html-keyboard-response","106","148680","0.0-11.0-1.5","F2u1GHJ1Ug","6400dde611c4534903252cba","6617fad957f7c6a12ea16e26","6622cf46c230f86477d59bbc","image grid","p","","","","","Phylogenetic_Distractor_Nonthreat_target","ongrid","2500","p","6","Phylogenetic","true","experimental"
"","null","html-keyboard-response","107","148832","0.0-11.0-2.5","F2u1GHJ1Ug","6400dde611c4534903252cba","6617fad957f7c6a12ea16e26","6622cf46c230f86477d59bbc","
    <div id=""grid-container"">
        <!-- Grid items will be dynamically added here -->
    </div>    ","null","","","","","","","","","","","",""
"","null","html-keyboard-response","108","149536","0.0-11.0-0.6","F2u1GHJ1Ug","6400dde611c4534903252cba","6617fad957f7c6a12ea16e26","6622cf46c230f86477d59bbc","fixation cross","null","","","","","","","","","","","",""
"","1064","html-keyboard-response","109","150601","0.0-11.0-1.6","F2u1GHJ1Ug","6400dde611c4534903252cba","6617fad957f7c6a12ea16e26","6622cf46c230f86477d59bbc","image grid","q","","","","","Phylogenetic_Distractor_Threat_target","ongrid","2500","q","4","Phylogenetic","true","experimental"
"","null","html-keyboard-response","110","150753","0.0-11.0-2.6","F2u1GHJ1Ug","6400dde611c4534903252cba","6617fad957f7c6a12ea16e26","6622cf46c230f86477d59bbc","
    <div id=""grid-container"">
        <!-- Grid items will be dynamically added here -->
    </div>    ","null","","","","","","","","","","","",""
"","null","html-keyboard-response","111","151458","0.0-11.0-0.7","F2u1GHJ1Ug","6400dde611c4534903252cba","6617fad957f7c6a12ea16e26","6622cf46c230f86477d59bbc","fixation cross","null","","","","","","","","","","","",""
"","1274","html-keyboard-response","112","152732","0.0-11.0-1.7","F2u1GHJ1Ug","6400dde611c4534903252cba","6617fad957f7c6a12ea16e26","6622cf46c230f86477d59bbc","image grid","q","","","","","Phylogenetic_Distractor_Threat_target","ongrid","2500","q","9","Phylogenetic","true","experimental"
"","null","html-keyboard-response","113","152884","0.0-11.0-2.7","F2u1GHJ1Ug","6400dde611c4534903252cba","6617fad957f7c6a12ea16e26","6622cf46c230f86477d59bbc","
    <div id=""grid-container"">
        <!-- Grid items will be dynamically added here -->
    </div>    ","null","","","","","","","","","","","",""
"","null","html-keyboard-response","114","153587","0.0-11.0-0.8","F2u1GHJ1Ug","6400dde611c4534903252cba","6617fad957f7c6a12ea16e26","6622cf46c230f86477d59bbc","fixation cross","null","","","","","","","","","","","",""
"","945","html-keyboard-response","115","154533","0.0-11.0-1.8","F2u1GHJ1Ug","6400dde611c4534903252cba","6617fad957f7c6a12ea16e26","6622cf46c230f86477d59bbc","image grid","q","","","","","Phylogenetic_Distractor_Threat_target","ongrid","2500","q","9","Phylogenetic","true","experimental"
"","null","html-keyboard-response","116","154685","0.0-11.0-2.8","F2u1GHJ1Ug","6400dde611c4534903252cba","6617fad957f7c6a12ea16e26","6622cf46c230f86477d59bbc","
    <div id=""grid-container"">
        <!-- Grid items will be dynamically added here -->
    </div>    ","null","","","","","","","","","","","",""
"","null","html-keyboard-response","117","155389","0.0-11.0-0.9","F2u1GHJ1Ug","6400dde611c4534903252cba","6617fad957f7c6a12ea16e26","6622cf46c230f86477d59bbc","fixation cross","null","","","","","","","","","","","",""
"","1494","html-keyboard-response","118","156884","0.0-11.0-1.9","F2u1GHJ1Ug","6400dde611c4534903252cba","6617fad957f7c6a12ea16e26","6622cf46c230f86477d59bbc","image grid","p","","","","","Phylogenetic_Distractor_Nonthreat_target","ongrid","2500","p","3","Phylogenetic","true","experimental"
"","null","html-keyboard-response","119","157037","0.0-11.0-2.9","F2u1GHJ1Ug","6400dde611c4534903252cba","6617fad957f7c6a12ea16e26","6622cf46c230f86477d59bbc","
    <div id=""grid-container"">
        <!-- Grid items will be dynamically added here -->
    </div>    ","null","","","","","","","","","","","",""
"","null","html-keyboard-response","120","157740","0.0-11.0-0.10","F2u1GHJ1Ug","6400dde611c4534903252cba","6617fad957f7c6a12ea16e26","6622cf46c230f86477d59bbc","fixation cross","null","","","","","","","","","","","",""
"","1450","html-keyboard-response","121","159190","0.0-11.0-1.10","F2u1GHJ1Ug","6400dde611c4534903252cba","6617fad957f7c6a12ea16e26","6622cf46c230f86477d59bbc","image grid","p","","","","","Phylogenetic_Distractor_Nonthreat_target","ongrid","2500","p","6","Phylogenetic","true","experimental"
"","null","html-keyboard-response","122","159342","0.0-11.0-2.10","F2u1GHJ1Ug","6400dde611c4534903252cba","6617fad957f7c6a12ea16e26","6622cf46c230f86477d59bbc","
    <div id=""grid-container"">
        <!-- Grid items will be dynamically added here -->
    </div>    ","null","","","","","","","","","","","",""
"","null","html-keyboard-response","123","160046","0.0-11.0-0.11","F2u1GHJ1Ug","6400dde611c4534903252cba","6617fad957f7c6a12ea16e26","6622cf46c230f86477d59bbc","fixation cross","null","","","","","","","","","","","",""
"","1296","html-keyboard-response","124","161343","0.0-11.0-1.11","F2u1GHJ1Ug","6400dde611c4534903252cba","6617fad957f7c6a12ea16e26","6622cf46c230f86477d59bbc","image grid","q","","","","","Phylogenetic_Distractor_Threat_target","ongrid","2500","q","7","Phylogenetic","true","experimental"
"","null","html-keyboard-response","125","161496","0.0-11.0-2.11","F2u1GHJ1Ug","6400dde611c4534903252cba","6617fad957f7c6a12ea16e26","6622cf46c230f86477d59bbc","
    <div id=""grid-container"">
        <!-- Grid items will be dynamically added here -->
    </div>    ","null","","","","","","","","","","","",""
"","null","html-keyboard-response","126","162200","0.0-11.0-0.12","F2u1GHJ1Ug","6400dde611c4534903252cba","6617fad957f7c6a12ea16e26","6622cf46c230f86477d59bbc","fixation cross","null","","","","","","","","","","","",""
"","760","html-keyboard-response","127","162960","0.0-11.0-1.12","F2u1GHJ1Ug","6400dde611c4534903252cba","6617fad957f7c6a12ea16e26","6622cf46c230f86477d59bbc","image grid","q","","","","","Phylogenetic_Distractor_Threat_target","ongrid","2500","q","4","Phylogenetic","true","experimental"
"","null","html-keyboard-response","128","163113","0.0-11.0-2.12","F2u1GHJ1Ug","6400dde611c4534903252cba","6617fad957f7c6a12ea16e26","6622cf46c230f86477d59bbc","
    <div id=""grid-container"">
        <!-- Grid items will be dynamically added here -->
    </div>    ","null","","","","","","","","","","","",""
"","null","html-keyboard-response","129","163816","0.0-11.0-0.13","F2u1GHJ1Ug","6400dde611c4534903252cba","6617fad957f7c6a12ea16e26","6622cf46c230f86477d59bbc","fixation cross","null","","","","","","","","","","","",""
"","null","html-keyboard-response","130","166318","0.0-11.0-1.13","F2u1GHJ1Ug","6400dde611c4534903252cba","6617fad957f7c6a12ea16e26","6622cf46c230f86477d59bbc","
        <div id=""grid-container"">
        <!-- Grid items will be dynamically added here -->
    </div>    ","null","","","","","","","","","","","",""
"","3348","html-keyboard-response","131","167167","0.0-11.0-2.13","F2u1GHJ1Ug","6400dde611c4534903252cba","6617fad957f7c6a12ea16e26","6622cf46c230f86477d59bbc","mask grid","q","","","","","Phylogenetic_Distractor_notarget","onmask","2500"," ","9","Phylogenetic","false","experimental"
"","null","html-keyboard-response","132","167871","0.0-11.0-0.14","F2u1GHJ1Ug","6400dde611c4534903252cba","6617fad957f7c6a12ea16e26","6622cf46c230f86477d59bbc","fixation cross","null","","","","","","","","","","","",""
"","2018","html-keyboard-response","133","169889","0.0-11.0-1.14","F2u1GHJ1Ug","6400dde611c4534903252cba","6617fad957f7c6a12ea16e26","6622cf46c230f86477d59bbc","image grid","p","","","","","Phylogenetic_Distractor_Nonthreat_target","ongrid","2500","p","9","Phylogenetic","true","experimental"
"","null","html-keyboard-response","134","170042","0.0-11.0-2.14","F2u1GHJ1Ug","6400dde611c4534903252cba","6617fad957f7c6a12ea16e26","6622cf46c230f86477d59bbc","
    <div id=""grid-container"">
        <!-- Grid items will be dynamically added here -->
    </div>    ","null","","","","","","","","","","","",""
"","null","html-keyboard-response","135","170746","0.0-11.0-0.15","F2u1GHJ1Ug","6400dde611c4534903252cba","6617fad957f7c6a12ea16e26","6622cf46c230f86477d59bbc","fixation cross","null","","","","","","","","","","","",""
"","837","html-keyboard-response","136","171584","0.0-11.0-1.15","F2u1GHJ1Ug","6400dde611c4534903252cba","6617fad957f7c6a12ea16e26","6622cf46c230f86477d59bbc","image grid","q","","","","","Phylogenetic_Distractor_Threat_target","ongrid","2500","q","1","Phylogenetic","true","experimental"
"","null","html-keyboard-response","137","171735","0.0-11.0-2.15","F2u1GHJ1Ug","6400dde611c4534903252cba","6617fad957f7c6a12ea16e26","6622cf46c230f86477d59bbc","
    <div id=""grid-container"">
        <!-- Grid items will be dynamically added here -->
    </div>    ","null","","","","","","","","","","","",""
"","null","html-keyboard-response","138","172439","0.0-11.0-0.16","F2u1GHJ1Ug","6400dde611c4534903252cba","6617fad957f7c6a12ea16e26","6622cf46c230f86477d59bbc","fixation cross","null","","","","","","","","","","","",""
"","732","html-keyboard-response","139","173172","0.0-11.0-1.16","F2u1GHJ1Ug","6400dde611c4534903252cba","6617fad957f7c6a12ea16e26","6622cf46c230f86477d59bbc","image grid","q","","","","","Phylogenetic_Distractor_Threat_target","ongrid","2500","q","4","Phylogenetic","true","experimental"
"","null","html-keyboard-response","140","173325","0.0-11.0-2.16","F2u1GHJ1Ug","6400dde611c4534903252cba","6617fad957f7c6a12ea16e26","6622cf46c230f86477d59bbc","
    <div id=""grid-container"">
        <!-- Grid items will be dynamically added here -->
    </div>    ","null","","","","","","","","","","","",""
"","null","html-keyboard-response","141","174028","0.0-11.0-0.17","F2u1GHJ1Ug","6400dde611c4534903252cba","6617fad957f7c6a12ea16e26","6622cf46c230f86477d59bbc","fixation cross","null","","","","","","","","","","","",""
"","2210","html-keyboard-response","142","176239","0.0-11.0-1.17","F2u1GHJ1Ug","6400dde611c4534903252cba","6617fad957f7c6a12ea16e26","6622cf46c230f86477d59bbc","image grid","p","","","","","Phylogenetic_Distractor_Nonthreat_target","ongrid","2500","p","3","Phylogenetic","true","experimental"
"","null","html-keyboard-response","143","176392","0.0-11.0-2.17","F2u1GHJ1Ug","6400dde611c4534903252cba","6617fad957f7c6a12ea16e26","6622cf46c230f86477d59bbc","
    <div id=""grid-container"">
        <!-- Grid items will be dynamically added here -->
    </div>    ","null","","","","","","","","","","","",""
"","null","html-keyboard-response","144","177094","0.0-11.0-0.18","F2u1GHJ1Ug","6400dde611c4534903252cba","6617fad957f7c6a12ea16e26","6622cf46c230f86477d59bbc","fixation cross","null","","","","","","","","","","","",""
"","1619","html-keyboard-response","145","178714","0.0-11.0-1.18","F2u1GHJ1Ug","6400dde611c4534903252cba","6617fad957f7c6a12ea16e26","6622cf46c230f86477d59bbc","image grid","p","","","","","Phylogenetic_Distractor_Nonthreat_target","ongrid","2500","p","6","Phylogenetic","true","experimental"
"","null","html-keyboard-response","146","178867","0.0-11.0-2.18","F2u1GHJ1Ug","6400dde611c4534903252cba","6617fad957f7c6a12ea16e26","6622cf46c230f86477d59bbc","
    <div id=""grid-container"">
        <!-- Grid items will be dynamically added here -->
    </div>    ","null","","","","","","","","","","","",""
"","null","html-keyboard-response","147","179570","0.0-11.0-0.19","F2u1GHJ1Ug","6400dde611c4534903252cba","6617fad957f7c6a12ea16e26","6622cf46c230f86477d59bbc","fixation cross","null","","","","","","","","","","","",""
"","961","html-keyboard-response","148","180531","0.0-11.0-1.19","F2u1GHJ1Ug","6400dde611c4534903252cba","6617fad957f7c6a12ea16e26","6622cf46c230f86477d59bbc","image grid","q","","","","","Phylogenetic_Distractor_Threat_target","ongrid","2500","q","7","Phylogenetic","true","experimental"
"","null","html-keyboard-response","149","180683","0.0-11.0-2.19","F2u1GHJ1Ug","6400dde611c4534903252cba","6617fad957f7c6a12ea16e26","6622cf46c230f86477d59bbc","
    <div id=""grid-container"">
        <!-- Grid items will be dynamically added here -->
    </div>    ","null","","","","","","","","","","","",""
"","null","html-keyboard-response","150","181387","0.0-11.0-0.20","F2u1GHJ1Ug","6400dde611c4534903252cba","6617fad957f7c6a12ea16e26","6622cf46c230f86477d59bbc","fixation cross","null","","","","","","","","","","","",""
"","904","html-keyboard-response","151","182292","0.0-11.0-1.20","F2u1GHJ1Ug","6400dde611c4534903252cba","6617fad957f7c6a12ea16e26","6622cf46c230f86477d59bbc","image grid","q","","","","","Phylogenetic_Distractor_Threat_target","ongrid","2500","q","6","Phylogenetic","true","experimental"
"","null","html-keyboard-response","152","182445","0.0-11.0-2.20","F2u1GHJ1Ug","6400dde611c4534903252cba","6617fad957f7c6a12ea16e26","6622cf46c230f86477d59bbc","
    <div id=""grid-container"">
        <!-- Grid items will be dynamically added here -->
    </div>    ","null","","","","","","","","","","","",""
"","null","html-keyboard-response","153","183149","0.0-11.0-0.21","F2u1GHJ1Ug","6400dde611c4534903252cba","6617fad957f7c6a12ea16e26","6622cf46c230f86477d59bbc","fixation cross","null","","","","","","","","","","","",""
"","null","html-keyboard-response","154","185651","0.0-11.0-1.21","F2u1GHJ1Ug","6400dde611c4534903252cba","6617fad957f7c6a12ea16e26","6622cf46c230f86477d59bbc","
        <div id=""grid-container"">
        <!-- Grid items will be dynamically added here -->
    </div>    ","null","","","","","","","","","","","",""
"","2675","html-keyboard-response","155","185827","0.0-11.0-2.21","F2u1GHJ1Ug","6400dde611c4534903252cba","6617fad957f7c6a12ea16e26","6622cf46c230f86477d59bbc","mask grid","p","","","","","Phylogenetic_Distractor_notarget","onmask","2500"," ","1","Phylogenetic","false","experimental"
"","null","html-keyboard-response","156","186531","0.0-11.0-0.22","F2u1GHJ1Ug","6400dde611c4534903252cba","6617fad957f7c6a12ea16e26","6622cf46c230f86477d59bbc","fixation cross","null","","","","","","","","","","","",""
"","null","html-keyboard-response","157","189033","0.0-11.0-1.22","F2u1GHJ1Ug","6400dde611c4534903252cba","6617fad957f7c6a12ea16e26","6622cf46c230f86477d59bbc","
        <div id=""grid-container"">
        <!-- Grid items will be dynamically added here -->
    </div>    ","null","","","","","","","","","","","",""
"","2563","html-keyboard-response","158","189096","0.0-11.0-2.22","F2u1GHJ1Ug","6400dde611c4534903252cba","6617fad957f7c6a12ea16e26","6622cf46c230f86477d59bbc","mask grid","q","","","","","Phylogenetic_Distractor_Nonthreat_target","onmask","2500","p","2","Phylogenetic","false","experimental"
"","null","html-keyboard-response","159","189800","0.0-11.0-0.23","F2u1GHJ1Ug","6400dde611c4534903252cba","6617fad957f7c6a12ea16e26","6622cf46c230f86477d59bbc","fixation cross","null","","","","","","","","","","","",""
"","1212","html-keyboard-response","160","191012","0.0-11.0-1.23","F2u1GHJ1Ug","6400dde611c4534903252cba","6617fad957f7c6a12ea16e26","6622cf46c230f86477d59bbc","image grid","q","","","","","Phylogenetic_Distractor_Threat_target","ongrid","2500","q","6","Phylogenetic","true","experimental"
"","null","html-keyboard-response","161","191164","0.0-11.0-2.23","F2u1GHJ1Ug","6400dde611c4534903252cba","6617fad957f7c6a12ea16e26","6622cf46c230f86477d59bbc","
    <div id=""grid-container"">
        <!-- Grid items will be dynamically added here -->
    </div>    ","null","","","","","","","","","","","",""
"","null","html-keyboard-response","162","191867","0.0-11.0-0.24","F2u1GHJ1Ug","6400dde611c4534903252cba","6617fad957f7c6a12ea16e26","6622cf46c230f86477d59bbc","fixation cross","null","","","","","","","","","","","",""
"","1799","html-keyboard-response","163","193667","0.0-11.0-1.24","F2u1GHJ1Ug","6400dde611c4534903252cba","6617fad957f7c6a12ea16e26","6622cf46c230f86477d59bbc","image grid","p","","","","","Phylogenetic_Distractor_notarget","ongrid","2500"," ","2","Phylogenetic","false","experimental"
"","null","html-keyboard-response","164","193819","0.0-11.0-2.24","F2u1GHJ1Ug","6400dde611c4534903252cba","6617fad957f7c6a12ea16e26","6622cf46c230f86477d59bbc","
    <div id=""grid-container"">
        <!-- Grid items will be dynamically added here -->
    </div>    ","null","","","","","","","","","","","",""
"","null","html-keyboard-response","165","194523","0.0-11.0-0.25","F2u1GHJ1Ug","6400dde611c4534903252cba","6617fad957f7c6a12ea16e26","6622cf46c230f86477d59bbc","fixation cross","null","","","","","","","","","","","",""
"","811","html-keyboard-response","166","195334","0.0-11.0-1.25","F2u1GHJ1Ug","6400dde611c4534903252cba","6617fad957f7c6a12ea16e26","6622cf46c230f86477d59bbc","image grid","p","","","","","Phylogenetic_Distractor_Nonthreat_target","ongrid","2500","p","6","Phylogenetic","true","experimental"
"","null","html-keyboard-response","167","195486","0.0-11.0-2.25","F2u1GHJ1Ug","6400dde611c4534903252cba","6617fad957f7c6a12ea16e26","6622cf46c230f86477d59bbc","
    <div id=""grid-container"">
        <!-- Grid items will be dynamically added here -->
    </div>    ","null","","","","","","","","","","","",""
"","null","html-keyboard-response","168","196190","0.0-11.0-0.26","F2u1GHJ1Ug","6400dde611c4534903252cba","6617fad957f7c6a12ea16e26","6622cf46c230f86477d59bbc","fixation cross","null","","","","","","","","","","","",""
"","673","html-keyboard-response","169","196864","0.0-11.0-1.26","F2u1GHJ1Ug","6400dde611c4534903252cba","6617fad957f7c6a12ea16e26","6622cf46c230f86477d59bbc","image grid","p","","","","","Phylogenetic_Distractor_Nonthreat_target","ongrid","2500","p","4","Phylogenetic","true","experimental"
"","null","html-keyboard-response","170","197017","0.0-11.0-2.26","F2u1GHJ1Ug","6400dde611c4534903252cba","6617fad957f7c6a12ea16e26","6622cf46c230f86477d59bbc","
    <div id=""grid-container"">
        <!-- Grid items will be dynamically added here -->
    </div>    ","null","","","","","","","","","","","",""
"","null","html-keyboard-response","171","197720","0.0-11.0-0.27","F2u1GHJ1Ug","6400dde611c4534903252cba","6617fad957f7c6a12ea16e26","6622cf46c230f86477d59bbc","fixation cross","null","","","","","","","","","","","",""
"","791","html-keyboard-response","172","198513","0.0-11.0-1.27","F2u1GHJ1Ug","6400dde611c4534903252cba","6617fad957f7c6a12ea16e26","6622cf46c230f86477d59bbc","image grid","q","","","","","Phylogenetic_Distractor_Threat_target","ongrid","2500","q","7","Phylogenetic","true","experimental"
"","null","html-keyboard-response","173","198665","0.0-11.0-2.27","F2u1GHJ1Ug","6400dde611c4534903252cba","6617fad957f7c6a12ea16e26","6622cf46c230f86477d59bbc","
    <div id=""grid-container"">
        <!-- Grid items will be dynamically added here -->
    </div>    ","null","","","","","","","","","","","",""
"","null","html-keyboard-response","174","199368","0.0-11.0-0.28","F2u1GHJ1Ug","6400dde611c4534903252cba","6617fad957f7c6a12ea16e26","6622cf46c230f86477d59bbc","fixation cross","null","","","","","","","","","","","",""
"","916","html-keyboard-response","175","200285","0.0-11.0-1.28","F2u1GHJ1Ug","6400dde611c4534903252cba","6617fad957f7c6a12ea16e26","6622cf46c230f86477d59bbc","image grid","q","","","","","Phylogenetic_Distractor_Threat_target","ongrid","2500","q","8","Phylogenetic","true","experimental"
"","null","html-keyboard-response","176","200438","0.0-11.0-2.28","F2u1GHJ1Ug","6400dde611c4534903252cba","6617fad957f7c6a12ea16e26","6622cf46c230f86477d59bbc","
    <div id=""grid-container"">
        <!-- Grid items will be dynamically added here -->
    </div>    ","null","","","","","","","","","","","",""
"","null","html-keyboard-response","177","201141","0.0-11.0-0.29","F2u1GHJ1Ug","6400dde611c4534903252cba","6617fad957f7c6a12ea16e26","6622cf46c230f86477d59bbc","fixation cross","null","","","","","","","","","","","",""
"","842","html-keyboard-response","178","201984","0.0-11.0-1.29","F2u1GHJ1Ug","6400dde611c4534903252cba","6617fad957f7c6a12ea16e26","6622cf46c230f86477d59bbc","image grid","q","","","","","Phylogenetic_Distractor_Threat_target","ongrid","2500","q","7","Phylogenetic","true","experimental"
"","null","html-keyboard-response","179","202137","0.0-11.0-2.29","F2u1GHJ1Ug","6400dde611c4534903252cba","6617fad957f7c6a12ea16e26","6622cf46c230f86477d59bbc","
    <div id=""grid-container"">
        <!-- Grid items will be dynamically added here -->
    </div>    ","null","","","","","","","","","","","",""
"","null","html-keyboard-response","180","202841","0.0-11.0-0.30","F2u1GHJ1Ug","6400dde611c4534903252cba","6617fad957f7c6a12ea16e26","6622cf46c230f86477d59bbc","fixation cross","null","","","","","","","","","","","",""
"","1194","html-keyboard-response","181","204035","0.0-11.0-1.30","F2u1GHJ1Ug","6400dde611c4534903252cba","6617fad957f7c6a12ea16e26","6622cf46c230f86477d59bbc","image grid","p","","","","","Phylogenetic_Distractor_Nonthreat_target","ongrid","2500","p","4","Phylogenetic","true","experimental"
"","null","html-keyboard-response","182","204188","0.0-11.0-2.30","F2u1GHJ1Ug","6400dde611c4534903252cba","6617fad957f7c6a12ea16e26","6622cf46c230f86477d59bbc","
    <div id=""grid-container"">
        <!-- Grid items will be dynamically added here -->
    </div>    ","null","","","","","","","","","","","",""
"","null","html-keyboard-response","183","204891","0.0-11.0-0.31","F2u1GHJ1Ug","6400dde611c4534903252cba","6617fad957f7c6a12ea16e26","6622cf46c230f86477d59bbc","fixation cross","null","","","","","","","","","","","",""
"","1620","html-keyboard-response","184","206511","0.0-11.0-1.31","F2u1GHJ1Ug","6400dde611c4534903252cba","6617fad957f7c6a12ea16e26","6622cf46c230f86477d59bbc","image grid","p","","","","","Phylogenetic_Distractor_Threat_target","ongrid","2500","q","1","Phylogenetic","false","experimental"
"","null","html-keyboard-response","185","206664","0.0-11.0-2.31","F2u1GHJ1Ug","6400dde611c4534903252cba","6617fad957f7c6a12ea16e26","6622cf46c230f86477d59bbc","
    <div id=""grid-container"">
        <!-- Grid items will be dynamically added here -->
    </div>    ","null","","","","","","","","","","","",""
"","170","html-keyboard-response","186","207366","0.0-11.0-0.32","F2u1GHJ1Ug","6400dde611c4534903252cba","6617fad957f7c6a12ea16e26","6622cf46c230f86477d59bbc","fixation cross","q","","","","","","","","","","","",""
"","1193","html-keyboard-response","187","208560","0.0-11.0-1.32","F2u1GHJ1Ug","6400dde611c4534903252cba","6617fad957f7c6a12ea16e26","6622cf46c230f86477d59bbc","image grid","p","","","","","Phylogenetic_Distractor_Nonthreat_target","ongrid","2500","p","8","Phylogenetic","true","experimental"
"","null","html-keyboard-response","188","208712","0.0-11.0-2.32","F2u1GHJ1Ug","6400dde611c4534903252cba","6617fad957f7c6a12ea16e26","6622cf46c230f86477d59bbc","
    <div id=""grid-container"">
        <!-- Grid items will be dynamically added here -->
    </div>    ","null","","","","","","","","","","","",""
"","null","html-keyboard-response","189","209416","0.0-11.0-0.33","F2u1GHJ1Ug","6400dde611c4534903252cba","6617fad957f7c6a12ea16e26","6622cf46c230f86477d59bbc","fixation cross","null","","","","","","","","","","","",""
"","1855","html-keyboard-response","190","211271","0.0-11.0-1.33","F2u1GHJ1Ug","6400dde611c4534903252cba","6617fad957f7c6a12ea16e26","6622cf46c230f86477d59bbc","image grid","q","","","","","Phylogenetic_Distractor_Nonthreat_target","ongrid","2500","p","9","Phylogenetic","false","experimental"
"","null","html-keyboard-response","191","211424","0.0-11.0-2.33","F2u1GHJ1Ug","6400dde611c4534903252cba","6617fad957f7c6a12ea16e26","6622cf46c230f86477d59bbc","
    <div id=""grid-container"">
        <!-- Grid items will be dynamically added here -->
    </div>    ","null","","","","","","","","","","","",""
"","null","html-keyboard-response","192","212127","0.0-11.0-0.34","F2u1GHJ1Ug","6400dde611c4534903252cba","6617fad957f7c6a12ea16e26","6622cf46c230f86477d59bbc","fixation cross","null","","","","","","","","","","","",""
"","1087","html-keyboard-response","193","213215","0.0-11.0-1.34","F2u1GHJ1Ug","6400dde611c4534903252cba","6617fad957f7c6a12ea16e26","6622cf46c230f86477d59bbc","image grid","q","","","","","Phylogenetic_Distractor_Threat_target","ongrid","2500","q","7","Phylogenetic","true","experimental"
"","null","html-keyboard-response","194","213367","0.0-11.0-2.34","F2u1GHJ1Ug","6400dde611c4534903252cba","6617fad957f7c6a12ea16e26","6622cf46c230f86477d59bbc","
    <div id=""grid-container"">
        <!-- Grid items will be dynamically added here -->
    </div>    ","null","","","","","","","","","","","",""
"","null","html-keyboard-response","195","214071","0.0-11.0-0.35","F2u1GHJ1Ug","6400dde611c4534903252cba","6617fad957f7c6a12ea16e26","6622cf46c230f86477d59bbc","fixation cross","null","","","","","","","","","","","",""
"","894","html-keyboard-response","196","214965","0.0-11.0-1.35","F2u1GHJ1Ug","6400dde611c4534903252cba","6617fad957f7c6a12ea16e26","6622cf46c230f86477d59bbc","image grid","q","","","","","Phylogenetic_Distractor_Threat_target","ongrid","2500","q","6","Phylogenetic","true","experimental"
"","null","html-keyboard-response","197","215118","0.0-11.0-2.35","F2u1GHJ1Ug","6400dde611c4534903252cba","6617fad957f7c6a12ea16e26","6622cf46c230f86477d59bbc","
    <div id=""grid-container"">
        <!-- Grid items will be dynamically added here -->
    </div>    ","null","","","","","","","","","","","",""
"","null","html-keyboard-response","198","215821","0.0-11.0-0.36","F2u1GHJ1Ug","6400dde611c4534903252cba","6617fad957f7c6a12ea16e26","6622cf46c230f86477d59bbc","fixation cross","null","","","","","","","","","","","",""
"","1296","html-keyboard-response","199","217118","0.0-11.0-1.36","F2u1GHJ1Ug","6400dde611c4534903252cba","6617fad957f7c6a12ea16e26","6622cf46c230f86477d59bbc","image grid","p","","","","","Phylogenetic_Distractor_Nonthreat_target","ongrid","2500","p","7","Phylogenetic","true","experimental"
"","null","html-keyboard-response","200","217270","0.0-11.0-2.36","F2u1GHJ1Ug","6400dde611c4534903252cba","6617fad957f7c6a12ea16e26","6622cf46c230f86477d59bbc","
    <div id=""grid-container"">
        <!-- Grid items will be dynamically added here -->
    </div>    ","null","","","","","","","","","","","",""
"","null","html-keyboard-response","201","217973","0.0-11.0-0.37","F2u1GHJ1Ug","6400dde611c4534903252cba","6617fad957f7c6a12ea16e26","6622cf46c230f86477d59bbc","fixation cross","null","","","","","","","","","","","",""
"","809","html-keyboard-response","202","218783","0.0-11.0-1.37","F2u1GHJ1Ug","6400dde611c4534903252cba","6617fad957f7c6a12ea16e26","6622cf46c230f86477d59bbc","image grid","p","","","","","Phylogenetic_Distractor_Nonthreat_target","ongrid","2500","p","4","Phylogenetic","true","experimental"
"","null","html-keyboard-response","203","218936","0.0-11.0-2.37","F2u1GHJ1Ug","6400dde611c4534903252cba","6617fad957f7c6a12ea16e26","6622cf46c230f86477d59bbc","
    <div id=""grid-container"">
        <!-- Grid items will be dynamically added here -->
    </div>    ","null","","","","","","","","","","","",""
"","null","html-keyboard-response","204","219639","0.0-11.0-0.38","F2u1GHJ1Ug","6400dde611c4534903252cba","6617fad957f7c6a12ea16e26","6622cf46c230f86477d59bbc","fixation cross","null","","","","","","","","","","","",""
"","2413","html-keyboard-response","205","222053","0.0-11.0-1.38","F2u1GHJ1Ug","6400dde611c4534903252cba","6617fad957f7c6a12ea16e26","6622cf46c230f86477d59bbc","image grid","p","","","","","Phylogenetic_Distractor_Nonthreat_target","ongrid","2500","p","8","Phylogenetic","true","experimental"
"","null","html-keyboard-response","206","222206","0.0-11.0-2.38","F2u1GHJ1Ug","6400dde611c4534903252cba","6617fad957f7c6a12ea16e26","6622cf46c230f86477d59bbc","
    <div id=""grid-container"">
        <!-- Grid items will be dynamically added here -->
    </div>    ","null","","","","","","","","","","","",""
"","null","html-keyboard-response","207","222909","0.0-11.0-0.39","F2u1GHJ1Ug","6400dde611c4534903252cba","6617fad957f7c6a12ea16e26","6622cf46c230f86477d59bbc","fixation cross","null","","","","","","","","","","","",""
"","696","html-keyboard-response","208","223606","0.0-11.0-1.39","F2u1GHJ1Ug","6400dde611c4534903252cba","6617fad957f7c6a12ea16e26","6622cf46c230f86477d59bbc","image grid","p","","","","","Phylogenetic_Distractor_Nonthreat_target","ongrid","2500","p","6","Phylogenetic","true","experimental"
"","null","html-keyboard-response","209","223758","0.0-11.0-2.39","F2u1GHJ1Ug","6400dde611c4534903252cba","6617fad957f7c6a12ea16e26","6622cf46c230f86477d59bbc","
    <div id=""grid-container"">
        <!-- Grid items will be dynamically added here -->
    </div>    ","null","","","","","","","","","","","",""
"","4483","html-keyboard-response","210","228482","0.0-12.0","F2u1GHJ1Ug","6400dde611c4534903252cba","6617fad957f7c6a12ea16e26","6622cf46c230f86477d59bbc","break screen"," ","","","","","","","","","","","",""
"","null","html-keyboard-response","211","231018","0.0-13.0-0.0","F2u1GHJ1Ug","6400dde611c4534903252cba","6617fad957f7c6a12ea16e26","6622cf46c230f86477d59bbc","fixation cross","null","","","","","","","","","","","",""
"","2071","html-keyboard-response","212","233089","0.0-13.0-1.0","F2u1GHJ1Ug","6400dde611c4534903252cba","6617fad957f7c6a12ea16e26","6622cf46c230f86477d59bbc","image grid","p","","","","","Ontogenetic_Distractor_Threat_target","ongrid","2500","q","1","Ontogenetic","false","experimental"
"","null","html-keyboard-response","213","233242","0.0-13.0-2.0","F2u1GHJ1Ug","6400dde611c4534903252cba","6617fad957f7c6a12ea16e26","6622cf46c230f86477d59bbc","
    <div id=""grid-container"">
        <!-- Grid items will be dynamically added here -->
    </div>    ","null","","","","","","","","","","","",""
"","311","html-keyboard-response","214","233944","0.0-13.0-0.1","F2u1GHJ1Ug","6400dde611c4534903252cba","6617fad957f7c6a12ea16e26","6622cf46c230f86477d59bbc","fixation cross","q","","","","","","","","","","","",""
"","null","html-keyboard-response","215","236447","0.0-13.0-1.1","F2u1GHJ1Ug","6400dde611c4534903252cba","6617fad957f7c6a12ea16e26","6622cf46c230f86477d59bbc","
        <div id=""grid-container"">
        <!-- Grid items will be dynamically added here -->
    </div>    ","null","","","","","","","","","","","",""
"","3408","html-keyboard-response","216","237356","0.0-13.0-2.1","F2u1GHJ1Ug","6400dde611c4534903252cba","6617fad957f7c6a12ea16e26","6622cf46c230f86477d59bbc","mask grid","p","","","","","Ontogenetic_Distractor_notarget","onmask","2500"," ","6","Ontogenetic","false","experimental"
"","null","html-keyboard-response","217","238060","0.0-13.0-0.2","F2u1GHJ1Ug","6400dde611c4534903252cba","6617fad957f7c6a12ea16e26","6622cf46c230f86477d59bbc","fixation cross","null","","","","","","","","","","","",""
"","940","html-keyboard-response","218","239001","0.0-13.0-1.2","F2u1GHJ1Ug","6400dde611c4534903252cba","6617fad957f7c6a12ea16e26","6622cf46c230f86477d59bbc","image grid","q","","","","","Ontogenetic_Distractor_Threat_target","ongrid","2500","q","3","Ontogenetic","true","experimental"
"","null","html-keyboard-response","219","239153","0.0-13.0-2.2","F2u1GHJ1Ug","6400dde611c4534903252cba","6617fad957f7c6a12ea16e26","6622cf46c230f86477d59bbc","
    <div id=""grid-container"">
        <!-- Grid items will be dynamically added here -->
    </div>    ","null","","","","","","","","","","","",""
"","null","html-keyboard-response","220","239858","0.0-13.0-0.3","F2u1GHJ1Ug","6400dde611c4534903252cba","6617fad957f7c6a12ea16e26","6622cf46c230f86477d59bbc","fixation cross","null","","","","","","","","","","","",""
"","2187","html-keyboard-response","221","242045","0.0-13.0-1.3","F2u1GHJ1Ug","6400dde611c4534903252cba","6617fad957f7c6a12ea16e26","6622cf46c230f86477d59bbc","image grid","p","","","","","Ontogenetic_Distractor_notarget","ongrid","2500"," ","9","Ontogenetic","false","experimental"
"","null","html-keyboard-response","222","242198","0.0-13.0-2.3","F2u1GHJ1Ug","6400dde611c4534903252cba","6617fad957f7c6a12ea16e26","6622cf46c230f86477d59bbc","
    <div id=""grid-container"">
        <!-- Grid items will be dynamically added here -->
    </div>    ","null","","","","","","","","","","","",""
"","null","html-keyboard-response","223","242902","0.0-13.0-0.4","F2u1GHJ1Ug","6400dde611c4534903252cba","6617fad957f7c6a12ea16e26","6622cf46c230f86477d59bbc","fixation cross","null","","","","","","","","","","","",""
"","982","html-keyboard-response","224","243884","0.0-13.0-1.4","F2u1GHJ1Ug","6400dde611c4534903252cba","6617fad957f7c6a12ea16e26","6622cf46c230f86477d59bbc","image grid","q","","","","","Ontogenetic_Distractor_Threat_target","ongrid","2500","q","1","Ontogenetic","true","experimental"
"","null","html-keyboard-response","225","244037","0.0-13.0-2.4","F2u1GHJ1Ug","6400dde611c4534903252cba","6617fad957f7c6a12ea16e26","6622cf46c230f86477d59bbc","
    <div id=""grid-container"">
        <!-- Grid items will be dynamically added here -->
    </div>    ","null","","","","","","","","","","","",""
"","null","html-keyboard-response","226","244741","0.0-13.0-0.5","F2u1GHJ1Ug","6400dde611c4534903252cba","6617fad957f7c6a12ea16e26","6622cf46c230f86477d59bbc","fixation cross","null","","","","","","","","","","","",""
"","951","html-keyboard-response","227","245693","0.0-13.0-1.5","F2u1GHJ1Ug","6400dde611c4534903252cba","6617fad957f7c6a12ea16e26","6622cf46c230f86477d59bbc","image grid","q","","","","","Ontogenetic_Distractor_Threat_target","ongrid","2500","q","4","Ontogenetic","true","experimental"
"","null","html-keyboard-response","228","245845","0.0-13.0-2.5","F2u1GHJ1Ug","6400dde611c4534903252cba","6617fad957f7c6a12ea16e26","6622cf46c230f86477d59bbc","
    <div id=""grid-container"">
        <!-- Grid items will be dynamically added here -->
    </div>    ","null","","","","","","","","","","","",""
"","null","html-keyboard-response","229","246547","0.0-13.0-0.6","F2u1GHJ1Ug","6400dde611c4534903252cba","6617fad957f7c6a12ea16e26","6622cf46c230f86477d59bbc","fixation cross","null","","","","","","","","","","","",""
"","1700","html-keyboard-response","230","248248","0.0-13.0-1.6","F2u1GHJ1Ug","6400dde611c4534903252cba","6617fad957f7c6a12ea16e26","6622cf46c230f86477d59bbc","image grid","p","","","","","Ontogenetic_Distractor_Nonthreat_target","ongrid","2500","p","6","Ontogenetic","true","experimental"
"","null","html-keyboard-response","231","248400","0.0-13.0-2.6","F2u1GHJ1Ug","6400dde611c4534903252cba","6617fad957f7c6a12ea16e26","6622cf46c230f86477d59bbc","
    <div id=""grid-container"">
        <!-- Grid items will be dynamically added here -->
    </div>    ","null","","","","","","","","","","","",""
"","null","html-keyboard-response","232","249104","0.0-13.0-0.7","F2u1GHJ1Ug","6400dde611c4534903252cba","6617fad957f7c6a12ea16e26","6622cf46c230f86477d59bbc","fixation cross","null","","","","","","","","","","","",""
"","1087","html-keyboard-response","233","250192","0.0-13.0-1.7","F2u1GHJ1Ug","6400dde611c4534903252cba","6617fad957f7c6a12ea16e26","6622cf46c230f86477d59bbc","image grid","p","","","","","Ontogenetic_Distractor_Nonthreat_target","ongrid","2500","p","8","Ontogenetic","true","experimental"
"","null","html-keyboard-response","234","250344","0.0-13.0-2.7","F2u1GHJ1Ug","6400dde611c4534903252cba","6617fad957f7c6a12ea16e26","6622cf46c230f86477d59bbc","
    <div id=""grid-container"">
        <!-- Grid items will be dynamically added here -->
    </div>    ","null","","","","","","","","","","","",""
"","null","html-keyboard-response","235","251048","0.0-13.0-0.8","F2u1GHJ1Ug","6400dde611c4534903252cba","6617fad957f7c6a12ea16e26","6622cf46c230f86477d59bbc","fixation cross","null","","","","","","","","","","","",""
"","1026","html-keyboard-response","236","252075","0.0-13.0-1.8","F2u1GHJ1Ug","6400dde611c4534903252cba","6617fad957f7c6a12ea16e26","6622cf46c230f86477d59bbc","image grid","q","","","","","Ontogenetic_Distractor_Threat_target","ongrid","2500","q","2","Ontogenetic","true","experimental"
"","null","html-keyboard-response","237","252227","0.0-13.0-2.8","F2u1GHJ1Ug","6400dde611c4534903252cba","6617fad957f7c6a12ea16e26","6622cf46c230f86477d59bbc","
    <div id=""grid-container"">
        <!-- Grid items will be dynamically added here -->
    </div>    ","null","","","","","","","","","","","",""
"","null","html-keyboard-response","238","252930","0.0-13.0-0.9","F2u1GHJ1Ug","6400dde611c4534903252cba","6617fad957f7c6a12ea16e26","6622cf46c230f86477d59bbc","fixation cross","null","","","","","","","","","","","",""
"","1022","html-keyboard-response","239","253953","0.0-13.0-1.9","F2u1GHJ1Ug","6400dde611c4534903252cba","6617fad957f7c6a12ea16e26","6622cf46c230f86477d59bbc","image grid","p","","","","","Ontogenetic_Distractor_Nonthreat_target","ongrid","2500","p","9","Ontogenetic","true","experimental"
"","null","html-keyboard-response","240","254107","0.0-13.0-2.9","F2u1GHJ1Ug","6400dde611c4534903252cba","6617fad957f7c6a12ea16e26","6622cf46c230f86477d59bbc","
    <div id=""grid-container"">
        <!-- Grid items will be dynamically added here -->
    </div>    ","null","","","","","","","","","","","",""
"","null","html-keyboard-response","241","254809","0.0-13.0-0.10","F2u1GHJ1Ug","6400dde611c4534903252cba","6617fad957f7c6a12ea16e26","6622cf46c230f86477d59bbc","fixation cross","null","","","","","","","","","","","",""
"","796","html-keyboard-response","242","255606","0.0-13.0-1.10","F2u1GHJ1Ug","6400dde611c4534903252cba","6617fad957f7c6a12ea16e26","6622cf46c230f86477d59bbc","image grid","p","","","","","Ontogenetic_Distractor_Nonthreat_target","ongrid","2500","p","6","Ontogenetic","true","experimental"
"","null","html-keyboard-response","243","255758","0.0-13.0-2.10","F2u1GHJ1Ug","6400dde611c4534903252cba","6617fad957f7c6a12ea16e26","6622cf46c230f86477d59bbc","
    <div id=""grid-container"">
        <!-- Grid items will be dynamically added here -->
    </div>    ","null","","","","","","","","","","","",""
"","null","html-keyboard-response","244","256462","0.0-13.0-0.11","F2u1GHJ1Ug","6400dde611c4534903252cba","6617fad957f7c6a12ea16e26","6622cf46c230f86477d59bbc","fixation cross","null","","","","","","","","","","","",""
"","726","html-keyboard-response","245","257188","0.0-13.0-1.11","F2u1GHJ1Ug","6400dde611c4534903252cba","6617fad957f7c6a12ea16e26","6622cf46c230f86477d59bbc","image grid","p","","","","","Ontogenetic_Distractor_Nonthreat_target","ongrid","2500","p","5","Ontogenetic","true","experimental"
"","null","html-keyboard-response","246","257342","0.0-13.0-2.11","F2u1GHJ1Ug","6400dde611c4534903252cba","6617fad957f7c6a12ea16e26","6622cf46c230f86477d59bbc","
    <div id=""grid-container"">
        <!-- Grid items will be dynamically added here -->
    </div>    ","null","","","","","","","","","","","",""
"","null","html-keyboard-response","247","258046","0.0-13.0-0.12","F2u1GHJ1Ug","6400dde611c4534903252cba","6617fad957f7c6a12ea16e26","6622cf46c230f86477d59bbc","fixation cross","null","","","","","","","","","","","",""
"","758","html-keyboard-response","248","258805","0.0-13.0-1.12","F2u1GHJ1Ug","6400dde611c4534903252cba","6617fad957f7c6a12ea16e26","6622cf46c230f86477d59bbc","image grid","p","","","","","Ontogenetic_Distractor_Nonthreat_target","ongrid","2500","p","3","Ontogenetic","true","experimental"
"","null","html-keyboard-response","249","258958","0.0-13.0-2.12","F2u1GHJ1Ug","6400dde611c4534903252cba","6617fad957f7c6a12ea16e26","6622cf46c230f86477d59bbc","
    <div id=""grid-container"">
        <!-- Grid items will be dynamically added here -->
    </div>    ","null","","","","","","","","","","","",""
"","null","html-keyboard-response","250","259662","0.0-13.0-0.13","F2u1GHJ1Ug","6400dde611c4534903252cba","6617fad957f7c6a12ea16e26","6622cf46c230f86477d59bbc","fixation cross","null","","","","","","","","","","","",""
"","840","html-keyboard-response","251","260503","0.0-13.0-1.13","F2u1GHJ1Ug","6400dde611c4534903252cba","6617fad957f7c6a12ea16e26","6622cf46c230f86477d59bbc","image grid","q","","","","","Ontogenetic_Distractor_Threat_target","ongrid","2500","q","6","Ontogenetic","true","experimental"
"","null","html-keyboard-response","252","260655","0.0-13.0-2.13","F2u1GHJ1Ug","6400dde611c4534903252cba","6617fad957f7c6a12ea16e26","6622cf46c230f86477d59bbc","
    <div id=""grid-container"">
        <!-- Grid items will be dynamically added here -->
    </div>    ","null","","","","","","","","","","","",""
"","null","html-keyboard-response","253","261359","0.0-13.0-0.14","F2u1GHJ1Ug","6400dde611c4534903252cba","6617fad957f7c6a12ea16e26","6622cf46c230f86477d59bbc","fixation cross","null","","","","","","","","","","","",""
"","712","html-keyboard-response","254","262072","0.0-13.0-1.14","F2u1GHJ1Ug","6400dde611c4534903252cba","6617fad957f7c6a12ea16e26","6622cf46c230f86477d59bbc","image grid","q","","","","","Ontogenetic_Distractor_Threat_target","ongrid","2500","q","6","Ontogenetic","true","experimental"
"","null","html-keyboard-response","255","262225","0.0-13.0-2.14","F2u1GHJ1Ug","6400dde611c4534903252cba","6617fad957f7c6a12ea16e26","6622cf46c230f86477d59bbc","
    <div id=""grid-container"">
        <!-- Grid items will be dynamically added here -->
    </div>    ","null","","","","","","","","","","","",""
"","179","html-keyboard-response","256","262927","0.0-13.0-0.15","F2u1GHJ1Ug","6400dde611c4534903252cba","6617fad957f7c6a12ea16e26","6622cf46c230f86477d59bbc","fixation cross","q","","","","","","","","","","","",""
"","1082","html-keyboard-response","257","264010","0.0-13.0-1.15","F2u1GHJ1Ug","6400dde611c4534903252cba","6617fad957f7c6a12ea16e26","6622cf46c230f86477d59bbc","image grid","p","","","","","Ontogenetic_Distractor_Nonthreat_target","ongrid","2500","p","2","Ontogenetic","true","experimental"
"","null","html-keyboard-response","258","264163","0.0-13.0-2.15","F2u1GHJ1Ug","6400dde611c4534903252cba","6617fad957f7c6a12ea16e26","6622cf46c230f86477d59bbc","
    <div id=""grid-container"">
        <!-- Grid items will be dynamically added here -->
    </div>    ","null","","","","","","","","","","","",""
"","null","html-keyboard-response","259","264867","0.0-13.0-0.16","F2u1GHJ1Ug","6400dde611c4534903252cba","6617fad957f7c6a12ea16e26","6622cf46c230f86477d59bbc","fixation cross","null","","","","","","","","","","","",""
"","1109","html-keyboard-response","260","265977","0.0-13.0-1.16","F2u1GHJ1Ug","6400dde611c4534903252cba","6617fad957f7c6a12ea16e26","6622cf46c230f86477d59bbc","image grid","p","","","","","Ontogenetic_Distractor_Nonthreat_target","ongrid","2500","p","9","Ontogenetic","true","experimental"
"","null","html-keyboard-response","261","266130","0.0-13.0-2.16","F2u1GHJ1Ug","6400dde611c4534903252cba","6617fad957f7c6a12ea16e26","6622cf46c230f86477d59bbc","
    <div id=""grid-container"">
        <!-- Grid items will be dynamically added here -->
    </div>    ","null","","","","","","","","","","","",""
"","null","html-keyboard-response","262","266835","0.0-13.0-0.17","F2u1GHJ1Ug","6400dde611c4534903252cba","6617fad957f7c6a12ea16e26","6622cf46c230f86477d59bbc","fixation cross","null","","","","","","","","","","","",""
"","656","html-keyboard-response","263","267491","0.0-13.0-1.17","F2u1GHJ1Ug","6400dde611c4534903252cba","6617fad957f7c6a12ea16e26","6622cf46c230f86477d59bbc","image grid","p","","","","","Ontogenetic_Distractor_Nonthreat_target","ongrid","2500","p","6","Ontogenetic","true","experimental"
"","null","html-keyboard-response","264","267644","0.0-13.0-2.17","F2u1GHJ1Ug","6400dde611c4534903252cba","6617fad957f7c6a12ea16e26","6622cf46c230f86477d59bbc","
    <div id=""grid-container"">
        <!-- Grid items will be dynamically added here -->
    </div>    ","null","","","","","","","","","","","",""
"","null","html-keyboard-response","265","268347","0.0-13.0-0.18","F2u1GHJ1Ug","6400dde611c4534903252cba","6617fad957f7c6a12ea16e26","6622cf46c230f86477d59bbc","fixation cross","null","","","","","","","","","","","",""
"","750","html-keyboard-response","266","269098","0.0-13.0-1.18","F2u1GHJ1Ug","6400dde611c4534903252cba","6617fad957f7c6a12ea16e26","6622cf46c230f86477d59bbc","image grid","p","","","","","Ontogenetic_Distractor_Nonthreat_target","ongrid","2500","p","3","Ontogenetic","true","experimental"
"","null","html-keyboard-response","267","269251","0.0-13.0-2.18","F2u1GHJ1Ug","6400dde611c4534903252cba","6617fad957f7c6a12ea16e26","6622cf46c230f86477d59bbc","
    <div id=""grid-container"">
        <!-- Grid items will be dynamically added here -->
    </div>    ","null","","","","","","","","","","","",""
"","null","html-keyboard-response","268","269954","0.0-13.0-0.19","F2u1GHJ1Ug","6400dde611c4534903252cba","6617fad957f7c6a12ea16e26","6622cf46c230f86477d59bbc","fixation cross","null","","","","","","","","","","","",""
"","733","html-keyboard-response","269","270688","0.0-13.0-1.19","F2u1GHJ1Ug","6400dde611c4534903252cba","6617fad957f7c6a12ea16e26","6622cf46c230f86477d59bbc","image grid","p","","","","","Ontogenetic_Distractor_Nonthreat_target","ongrid","2500","p","5","Ontogenetic","true","experimental"
"","null","html-keyboard-response","270","270841","0.0-13.0-2.19","F2u1GHJ1Ug","6400dde611c4534903252cba","6617fad957f7c6a12ea16e26","6622cf46c230f86477d59bbc","
    <div id=""grid-container"">
        <!-- Grid items will be dynamically added here -->
    </div>    ","null","","","","","","","","","","","",""
"","null","html-keyboard-response","271","271545","0.0-13.0-0.20","F2u1GHJ1Ug","6400dde611c4534903252cba","6617fad957f7c6a12ea16e26","6622cf46c230f86477d59bbc","fixation cross","null","","","","","","","","","","","",""
"","970","html-keyboard-response","272","272516","0.0-13.0-1.20","F2u1GHJ1Ug","6400dde611c4534903252cba","6617fad957f7c6a12ea16e26","6622cf46c230f86477d59bbc","image grid","q","","","","","Ontogenetic_Distractor_Threat_target","ongrid","2500","q","8","Ontogenetic","true","experimental"
"","null","html-keyboard-response","273","272669","0.0-13.0-2.20","F2u1GHJ1Ug","6400dde611c4534903252cba","6617fad957f7c6a12ea16e26","6622cf46c230f86477d59bbc","
    <div id=""grid-container"">
        <!-- Grid items will be dynamically added here -->
    </div>    ","null","","","","","","","","","","","",""
"","null","html-keyboard-response","274","273373","0.0-13.0-0.21","F2u1GHJ1Ug","6400dde611c4534903252cba","6617fad957f7c6a12ea16e26","6622cf46c230f86477d59bbc","fixation cross","null","","","","","","","","","","","",""
"","1256","html-keyboard-response","275","274629","0.0-13.0-1.21","F2u1GHJ1Ug","6400dde611c4534903252cba","6617fad957f7c6a12ea16e26","6622cf46c230f86477d59bbc","image grid","q","","","","","Ontogenetic_Distractor_Threat_target","ongrid","2500","q","2","Ontogenetic","true","experimental"
"","null","html-keyboard-response","276","274781","0.0-13.0-2.21","F2u1GHJ1Ug","6400dde611c4534903252cba","6617fad957f7c6a12ea16e26","6622cf46c230f86477d59bbc","
    <div id=""grid-container"">
        <!-- Grid items will be dynamically added here -->
    </div>    ","null","","","","","","","","","","","",""
"","null","html-keyboard-response","277","275486","0.0-13.0-0.22","F2u1GHJ1Ug","6400dde611c4534903252cba","6617fad957f7c6a12ea16e26","6622cf46c230f86477d59bbc","fixation cross","null","","","","","","","","","","","",""
"","796","html-keyboard-response","278","276282","0.0-13.0-1.22","F2u1GHJ1Ug","6400dde611c4534903252cba","6617fad957f7c6a12ea16e26","6622cf46c230f86477d59bbc","image grid","q","","","","","Ontogenetic_Distractor_Threat_target","ongrid","2500","q","7","Ontogenetic","true","experimental"
"","null","html-keyboard-response","279","276436","0.0-13.0-2.22","F2u1GHJ1Ug","6400dde611c4534903252cba","6617fad957f7c6a12ea16e26","6622cf46c230f86477d59bbc","
    <div id=""grid-container"">
        <!-- Grid items will be dynamically added here -->
    </div>    ","null","","","","","","","","","","","",""
"","null","html-keyboard-response","280","277138","0.0-13.0-0.23","F2u1GHJ1Ug","6400dde611c4534903252cba","6617fad957f7c6a12ea16e26","6622cf46c230f86477d59bbc","fixation cross","null","","","","","","","","","","","",""
"","1061","html-keyboard-response","281","278199","0.0-13.0-1.23","F2u1GHJ1Ug","6400dde611c4534903252cba","6617fad957f7c6a12ea16e26","6622cf46c230f86477d59bbc","image grid","q","","","","","Ontogenetic_Distractor_Threat_target","ongrid","2500","q","5","Ontogenetic","true","experimental"
"","null","html-keyboard-response","282","278353","0.0-13.0-2.23","F2u1GHJ1Ug","6400dde611c4534903252cba","6617fad957f7c6a12ea16e26","6622cf46c230f86477d59bbc","
    <div id=""grid-container"">
        <!-- Grid items will be dynamically added here -->
    </div>    ","null","","","","","","","","","","","",""
"","null","html-keyboard-response","283","279056","0.0-13.0-0.24","F2u1GHJ1Ug","6400dde611c4534903252cba","6617fad957f7c6a12ea16e26","6622cf46c230f86477d59bbc","fixation cross","null","","","","","","","","","","","",""
"","null","html-keyboard-response","284","281559","0.0-13.0-1.24","F2u1GHJ1Ug","6400dde611c4534903252cba","6617fad957f7c6a12ea16e26","6622cf46c230f86477d59bbc","
        <div id=""grid-container"">
        <!-- Grid items will be dynamically added here -->
    </div>    ","null","","","","","","","","","","","",""
"","3008","html-keyboard-response","285","282068","0.0-13.0-2.24","F2u1GHJ1Ug","6400dde611c4534903252cba","6617fad957f7c6a12ea16e26","6622cf46c230f86477d59bbc","mask grid","p","","","","","Ontogenetic_Distractor_notarget","onmask","2500"," ","6","Ontogenetic","false","experimental"
"","null","html-keyboard-response","286","282771","0.0-13.0-0.25","F2u1GHJ1Ug","6400dde611c4534903252cba","6617fad957f7c6a12ea16e26","6622cf46c230f86477d59bbc","fixation cross","null","","","","","","","","","","","",""
"","698","html-keyboard-response","287","283470","0.0-13.0-1.25","F2u1GHJ1Ug","6400dde611c4534903252cba","6617fad957f7c6a12ea16e26","6622cf46c230f86477d59bbc","image grid","p","","","","","Ontogenetic_Distractor_Nonthreat_target","ongrid","2500","p","3","Ontogenetic","true","experimental"
"","null","html-keyboard-response","288","283623","0.0-13.0-2.25","F2u1GHJ1Ug","6400dde611c4534903252cba","6617fad957f7c6a12ea16e26","6622cf46c230f86477d59bbc","
    <div id=""grid-container"">
        <!-- Grid items will be dynamically added here -->
    </div>    ","null","","","","","","","","","","","",""
"","null","html-keyboard-response","289","284326","0.0-13.0-0.26","F2u1GHJ1Ug","6400dde611c4534903252cba","6617fad957f7c6a12ea16e26","6622cf46c230f86477d59bbc","fixation cross","null","","","","","","","","","","","",""
"","654","html-keyboard-response","290","284981","0.0-13.0-1.26","F2u1GHJ1Ug","6400dde611c4534903252cba","6617fad957f7c6a12ea16e26","6622cf46c230f86477d59bbc","image grid","p","","","","","Ontogenetic_Distractor_Nonthreat_target","ongrid","2500","p","6","Ontogenetic","true","experimental"
"","null","html-keyboard-response","291","285134","0.0-13.0-2.26","F2u1GHJ1Ug","6400dde611c4534903252cba","6617fad957f7c6a12ea16e26","6622cf46c230f86477d59bbc","
    <div id=""grid-container"">
        <!-- Grid items will be dynamically added here -->
    </div>    ","null","","","","","","","","","","","",""
"","null","html-keyboard-response","292","285836","0.0-13.0-0.27","F2u1GHJ1Ug","6400dde611c4534903252cba","6617fad957f7c6a12ea16e26","6622cf46c230f86477d59bbc","fixation cross","null","","","","","","","","","","","",""
"","936","html-keyboard-response","293","286773","0.0-13.0-1.27","F2u1GHJ1Ug","6400dde611c4534903252cba","6617fad957f7c6a12ea16e26","6622cf46c230f86477d59bbc","image grid","q","","","","","Ontogenetic_Distractor_Threat_target","ongrid","2500","q","7","Ontogenetic","true","experimental"
"","null","html-keyboard-response","294","286926","0.0-13.0-2.27","F2u1GHJ1Ug","6400dde611c4534903252cba","6617fad957f7c6a12ea16e26","6622cf46c230f86477d59bbc","
    <div id=""grid-container"">
        <!-- Grid items will be dynamically added here -->
    </div>    ","null","","","","","","","","","","","",""
"","null","html-keyboard-response","295","287629","0.0-13.0-0.28","F2u1GHJ1Ug","6400dde611c4534903252cba","6617fad957f7c6a12ea16e26","6622cf46c230f86477d59bbc","fixation cross","null","","","","","","","","","","","",""
"","1129","html-keyboard-response","296","288759","0.0-13.0-1.28","F2u1GHJ1Ug","6400dde611c4534903252cba","6617fad957f7c6a12ea16e26","6622cf46c230f86477d59bbc","image grid","q","","","","","Ontogenetic_Distractor_Threat_target","ongrid","2500","q","1","Ontogenetic","true","experimental"
"","null","html-keyboard-response","297","288911","0.0-13.0-2.28","F2u1GHJ1Ug","6400dde611c4534903252cba","6617fad957f7c6a12ea16e26","6622cf46c230f86477d59bbc","
    <div id=""grid-container"">
        <!-- Grid items will be dynamically added here -->
    </div>    ","null","","","","","","","","","","","",""
"","null","html-keyboard-response","298","289614","0.0-13.0-0.29","F2u1GHJ1Ug","6400dde611c4534903252cba","6617fad957f7c6a12ea16e26","6622cf46c230f86477d59bbc","fixation cross","null","","","","","","","","","","","",""
"","null","html-keyboard-response","299","292116","0.0-13.0-1.29","F2u1GHJ1Ug","6400dde611c4534903252cba","6617fad957f7c6a12ea16e26","6622cf46c230f86477d59bbc","
        <div id=""grid-container"">
        <!-- Grid items will be dynamically added here -->
    </div>    ","null","","","","","","","","","","","",""
"","2677","html-keyboard-response","300","292293","0.0-13.0-2.29","F2u1GHJ1Ug","6400dde611c4534903252cba","6617fad957f7c6a12ea16e26","6622cf46c230f86477d59bbc","mask grid","p","","","","","Ontogenetic_Distractor_notarget","onmask","2500"," ","9","Ontogenetic","false","experimental"
"","null","html-keyboard-response","301","292997","0.0-13.0-0.30","F2u1GHJ1Ug","6400dde611c4534903252cba","6617fad957f7c6a12ea16e26","6622cf46c230f86477d59bbc","fixation cross","null","","","","","","","","","","","",""
"","681","html-keyboard-response","302","293679","0.0-13.0-1.30","F2u1GHJ1Ug","6400dde611c4534903252cba","6617fad957f7c6a12ea16e26","6622cf46c230f86477d59bbc","image grid","p","","","","","Ontogenetic_Distractor_Nonthreat_target","ongrid","2500","p","2","Ontogenetic","true","experimental"
"","null","html-keyboard-response","303","293831","0.0-13.0-2.30","F2u1GHJ1Ug","6400dde611c4534903252cba","6617fad957f7c6a12ea16e26","6622cf46c230f86477d59bbc","
    <div id=""grid-container"">
        <!-- Grid items will be dynamically added here -->
    </div>    ","null","","","","","","","","","","","",""
"","null","html-keyboard-response","304","294535","0.0-13.0-0.31","F2u1GHJ1Ug","6400dde611c4534903252cba","6617fad957f7c6a12ea16e26","6622cf46c230f86477d59bbc","fixation cross","null","","","","","","","","","","","",""
"","794","html-keyboard-response","305","295329","0.0-13.0-1.31","F2u1GHJ1Ug","6400dde611c4534903252cba","6617fad957f7c6a12ea16e26","6622cf46c230f86477d59bbc","image grid","q","","","","","Ontogenetic_Distractor_Threat_target","ongrid","2500","q","5","Ontogenetic","true","experimental"
"","null","html-keyboard-response","306","295482","0.0-13.0-2.31","F2u1GHJ1Ug","6400dde611c4534903252cba","6617fad957f7c6a12ea16e26","6622cf46c230f86477d59bbc","
    <div id=""grid-container"">
        <!-- Grid items will be dynamically added here -->
    </div>    ","null","","","","","","","","","","","",""
"","null","html-keyboard-response","307","296186","0.0-13.0-0.32","F2u1GHJ1Ug","6400dde611c4534903252cba","6617fad957f7c6a12ea16e26","6622cf46c230f86477d59bbc","fixation cross","null","","","","","","","","","","","",""
"","824","html-keyboard-response","308","297010","0.0-13.0-1.32","F2u1GHJ1Ug","6400dde611c4534903252cba","6617fad957f7c6a12ea16e26","6622cf46c230f86477d59bbc","image grid","q","","","","","Ontogenetic_Distractor_Threat_target","ongrid","2500","q","7","Ontogenetic","true","experimental"
"","null","html-keyboard-response","309","297163","0.0-13.0-2.32","F2u1GHJ1Ug","6400dde611c4534903252cba","6617fad957f7c6a12ea16e26","6622cf46c230f86477d59bbc","
    <div id=""grid-container"">
        <!-- Grid items will be dynamically added here -->
    </div>    ","null","","","","","","","","","","","",""
"","null","html-keyboard-response","310","297867","0.0-13.0-0.33","F2u1GHJ1Ug","6400dde611c4534903252cba","6617fad957f7c6a12ea16e26","6622cf46c230f86477d59bbc","fixation cross","null","","","","","","","","","","","",""
"","677","html-keyboard-response","311","298544","0.0-13.0-1.33","F2u1GHJ1Ug","6400dde611c4534903252cba","6617fad957f7c6a12ea16e26","6622cf46c230f86477d59bbc","image grid","q","","","","","Ontogenetic_Distractor_Threat_target","ongrid","2500","q","7","Ontogenetic","true","experimental"
"","null","html-keyboard-response","312","298697","0.0-13.0-2.33","F2u1GHJ1Ug","6400dde611c4534903252cba","6617fad957f7c6a12ea16e26","6622cf46c230f86477d59bbc","
    <div id=""grid-container"">
        <!-- Grid items will be dynamically added here -->
    </div>    ","null","","","","","","","","","","","",""
"","null","html-keyboard-response","313","299400","0.0-13.0-0.34","F2u1GHJ1Ug","6400dde611c4534903252cba","6617fad957f7c6a12ea16e26","6622cf46c230f86477d59bbc","fixation cross","null","","","","","","","","","","","",""
"","635","html-keyboard-response","314","300035","0.0-13.0-1.34","F2u1GHJ1Ug","6400dde611c4534903252cba","6617fad957f7c6a12ea16e26","6622cf46c230f86477d59bbc","image grid","q","","","","","Ontogenetic_Distractor_Threat_target","ongrid","2500","q","5","Ontogenetic","true","experimental"
"","null","html-keyboard-response","315","300189","0.0-13.0-2.34","F2u1GHJ1Ug","6400dde611c4534903252cba","6617fad957f7c6a12ea16e26","6622cf46c230f86477d59bbc","
    <div id=""grid-container"">
        <!-- Grid items will be dynamically added here -->
    </div>    ","null","","","","","","","","","","","",""
"","null","html-keyboard-response","316","300892","0.0-13.0-0.35","F2u1GHJ1Ug","6400dde611c4534903252cba","6617fad957f7c6a12ea16e26","6622cf46c230f86477d59bbc","fixation cross","null","","","","","","","","","","","",""
"","698","html-keyboard-response","317","301590","0.0-13.0-1.35","F2u1GHJ1Ug","6400dde611c4534903252cba","6617fad957f7c6a12ea16e26","6622cf46c230f86477d59bbc","image grid","p","","","","","Ontogenetic_Distractor_Nonthreat_target","ongrid","2500","p","6","Ontogenetic","true","experimental"
"","null","html-keyboard-response","318","301744","0.0-13.0-2.35","F2u1GHJ1Ug","6400dde611c4534903252cba","6617fad957f7c6a12ea16e26","6622cf46c230f86477d59bbc","
    <div id=""grid-container"">
        <!-- Grid items will be dynamically added here -->
    </div>    ","null","","","","","","","","","","","",""
"","null","html-keyboard-response","319","302447","0.0-13.0-0.36","F2u1GHJ1Ug","6400dde611c4534903252cba","6617fad957f7c6a12ea16e26","6622cf46c230f86477d59bbc","fixation cross","null","","","","","","","","","","","",""
"","639","html-keyboard-response","320","303086","0.0-13.0-1.36","F2u1GHJ1Ug","6400dde611c4534903252cba","6617fad957f7c6a12ea16e26","6622cf46c230f86477d59bbc","image grid","p","","","","","Ontogenetic_Distractor_Nonthreat_target","ongrid","2500","p","3","Ontogenetic","true","experimental"
"","null","html-keyboard-response","321","303240","0.0-13.0-2.36","F2u1GHJ1Ug","6400dde611c4534903252cba","6617fad957f7c6a12ea16e26","6622cf46c230f86477d59bbc","
    <div id=""grid-container"">
        <!-- Grid items will be dynamically added here -->
    </div>    ","null","","","","","","","","","","","",""
"","null","html-keyboard-response","322","303944","0.0-13.0-0.37","F2u1GHJ1Ug","6400dde611c4534903252cba","6617fad957f7c6a12ea16e26","6622cf46c230f86477d59bbc","fixation cross","null","","","","","","","","","","","",""
"","790","html-keyboard-response","323","304735","0.0-13.0-1.37","F2u1GHJ1Ug","6400dde611c4534903252cba","6617fad957f7c6a12ea16e26","6622cf46c230f86477d59bbc","image grid","p","","","","","Ontogenetic_Distractor_Nonthreat_target","ongrid","2500","p","1","Ontogenetic","true","experimental"
"","null","html-keyboard-response","324","304888","0.0-13.0-2.37","F2u1GHJ1Ug","6400dde611c4534903252cba","6617fad957f7c6a12ea16e26","6622cf46c230f86477d59bbc","
    <div id=""grid-container"">
        <!-- Grid items will be dynamically added here -->
    </div>    ","null","","","","","","","","","","","",""
"","null","html-keyboard-response","325","305592","0.0-13.0-0.38","F2u1GHJ1Ug","6400dde611c4534903252cba","6617fad957f7c6a12ea16e26","6622cf46c230f86477d59bbc","fixation cross","null","","","","","","","","","","","",""
"","694","html-keyboard-response","326","306287","0.0-13.0-1.38","F2u1GHJ1Ug","6400dde611c4534903252cba","6617fad957f7c6a12ea16e26","6622cf46c230f86477d59bbc","image grid","q","","","","","Ontogenetic_Distractor_Threat_target","ongrid","2500","q","1","Ontogenetic","true","experimental"
"","null","html-keyboard-response","327","306441","0.0-13.0-2.38","F2u1GHJ1Ug","6400dde611c4534903252cba","6617fad957f7c6a12ea16e26","6622cf46c230f86477d59bbc","
    <div id=""grid-container"">
        <!-- Grid items will be dynamically added here -->
    </div>    ","null","","","","","","","","","","","",""
"","null","html-keyboard-response","328","307145","0.0-13.0-0.39","F2u1GHJ1Ug","6400dde611c4534903252cba","6617fad957f7c6a12ea16e26","6622cf46c230f86477d59bbc","fixation cross","null","","","","","","","","","","","",""
"","850","html-keyboard-response","329","307995","0.0-13.0-1.39","F2u1GHJ1Ug","6400dde611c4534903252cba","6617fad957f7c6a12ea16e26","6622cf46c230f86477d59bbc","image grid","p","","","","","Ontogenetic_Distractor_Nonthreat_target","ongrid","2500","p","6","Ontogenetic","true","experimental"
"","null","html-keyboard-response","330","308149","0.0-13.0-2.39","F2u1GHJ1Ug","6400dde611c4534903252cba","6617fad957f7c6a12ea16e26","6622cf46c230f86477d59bbc","
    <div id=""grid-container"">
        <!-- Grid items will be dynamically added here -->
    </div>    ","null","","","","","","","","","","","",""
"","2706","html-keyboard-response","331","311057","0.0-14.0","F2u1GHJ1Ug","6400dde611c4534903252cba","6617fad957f7c6a12ea16e26","6622cf46c230f86477d59bbc","break screen"," ","","","","","","","","","","","",""
"","null","html-keyboard-response","332","313562","0.0-15.0-0.0","F2u1GHJ1Ug","6400dde611c4534903252cba","6617fad957f7c6a12ea16e26","6622cf46c230f86477d59bbc","fixation cross","null","","","","","","","","","","","",""
"","null","html-keyboard-response","333","314364","0.0-15.0-1.0","F2u1GHJ1Ug","6400dde611c4534903252cba","6617fad957f7c6a12ea16e26","6622cf46c230f86477d59bbc","
        <div id=""grid-container"">
        <!-- Grid items will be dynamically added here -->
    </div>    ","null","","","","","","","","","","","",""
"","1010","html-keyboard-response","334","314574","0.0-15.0-2.0","F2u1GHJ1Ug","6400dde611c4534903252cba","6617fad957f7c6a12ea16e26","6622cf46c230f86477d59bbc","mask grid","p","","","","","Ontogenetic_Distractor_Nonthreat_target","onmask","800","p","2","Ontogenetic","true","experimental"
"","null","html-keyboard-response","335","315278","0.0-15.0-0.1","F2u1GHJ1Ug","6400dde611c4534903252cba","6617fad957f7c6a12ea16e26","6622cf46c230f86477d59bbc","fixation cross","null","","","","","","","","","","","",""
"","null","html-keyboard-response","336","316080","0.0-15.0-1.1","F2u1GHJ1Ug","6400dde611c4534903252cba","6617fad957f7c6a12ea16e26","6622cf46c230f86477d59bbc","
        <div id=""grid-container"">
        <!-- Grid items will be dynamically added here -->
    </div>    ","null","","","","","","","","","","","",""
"","1424","html-keyboard-response","337","316705","0.0-15.0-2.1","F2u1GHJ1Ug","6400dde611c4534903252cba","6617fad957f7c6a12ea16e26","6622cf46c230f86477d59bbc","mask grid","p","","","","","Ontogenetic_Distractor_notarget","onmask","800"," ","3","Ontogenetic","false","experimental"
"","null","html-keyboard-response","338","317409","0.0-15.0-0.2","F2u1GHJ1Ug","6400dde611c4534903252cba","6617fad957f7c6a12ea16e26","6622cf46c230f86477d59bbc","fixation cross","null","","","","","","","","","","","",""
"","null","html-keyboard-response","339","318212","0.0-15.0-1.2","F2u1GHJ1Ug","6400dde611c4534903252cba","6617fad957f7c6a12ea16e26","6622cf46c230f86477d59bbc","
        <div id=""grid-container"">
        <!-- Grid items will be dynamically added here -->
    </div>    ","null","","","","","","","","","","","",""
"","813","html-keyboard-response","340","318226","0.0-15.0-2.2","F2u1GHJ1Ug","6400dde611c4534903252cba","6617fad957f7c6a12ea16e26","6622cf46c230f86477d59bbc","mask grid","p","","","","","Ontogenetic_Distractor_Threat_target","onmask","800","q","8","Ontogenetic","false","experimental"
"","null","html-keyboard-response","341","318929","0.0-15.0-0.3","F2u1GHJ1Ug","6400dde611c4534903252cba","6617fad957f7c6a12ea16e26","6622cf46c230f86477d59bbc","fixation cross","null","","","","","","","","","","","",""
"","681","html-keyboard-response","342","319610","0.0-15.0-1.3","F2u1GHJ1Ug","6400dde611c4534903252cba","6617fad957f7c6a12ea16e26","6622cf46c230f86477d59bbc","image grid","p","","","","","Ontogenetic_Distractor_Nonthreat_target","ongrid","800","p","6","Ontogenetic","true","experimental"
"","null","html-keyboard-response","343","319763","0.0-15.0-2.3","F2u1GHJ1Ug","6400dde611c4534903252cba","6617fad957f7c6a12ea16e26","6622cf46c230f86477d59bbc","
    <div id=""grid-container"">
        <!-- Grid items will be dynamically added here -->
    </div>    ","null","","","","","","","","","","","",""
"","null","html-keyboard-response","344","320467","0.0-15.0-0.4","F2u1GHJ1Ug","6400dde611c4534903252cba","6617fad957f7c6a12ea16e26","6622cf46c230f86477d59bbc","fixation cross","null","","","","","","","","","","","",""
"","null","html-keyboard-response","345","321268","0.0-15.0-1.4","F2u1GHJ1Ug","6400dde611c4534903252cba","6617fad957f7c6a12ea16e26","6622cf46c230f86477d59bbc","
        <div id=""grid-container"">
        <!-- Grid items will be dynamically added here -->
    </div>    ","null","","","","","","","","","","","",""
"","1032","html-keyboard-response","346","321501","0.0-15.0-2.4","F2u1GHJ1Ug","6400dde611c4534903252cba","6617fad957f7c6a12ea16e26","6622cf46c230f86477d59bbc","mask grid","p","","","","","Ontogenetic_Distractor_notarget","onmask","800"," ","4","Ontogenetic","false","experimental"
"","null","html-keyboard-response","347","322205","0.0-15.0-0.5","F2u1GHJ1Ug","6400dde611c4534903252cba","6617fad957f7c6a12ea16e26","6622cf46c230f86477d59bbc","fixation cross","null","","","","","","","","","","","",""
"","763","html-keyboard-response","348","322969","0.0-15.0-1.5","F2u1GHJ1Ug","6400dde611c4534903252cba","6617fad957f7c6a12ea16e26","6622cf46c230f86477d59bbc","image grid","p","","","","","Ontogenetic_Distractor_Threat_target","ongrid","800","q","4","Ontogenetic","false","experimental"
"","null","html-keyboard-response","349","323121","0.0-15.0-2.5","F2u1GHJ1Ug","6400dde611c4534903252cba","6617fad957f7c6a12ea16e26","6622cf46c230f86477d59bbc","
    <div id=""grid-container"">
        <!-- Grid items will be dynamically added here -->
    </div>    ","null","","","","","","","","","","","",""
"","18","html-keyboard-response","350","323825","0.0-15.0-0.6","F2u1GHJ1Ug","6400dde611c4534903252cba","6617fad957f7c6a12ea16e26","6622cf46c230f86477d59bbc","fixation cross","q","","","","","","","","","","","",""
"","null","html-keyboard-response","351","324628","0.0-15.0-1.6","F2u1GHJ1Ug","6400dde611c4534903252cba","6617fad957f7c6a12ea16e26","6622cf46c230f86477d59bbc","
        <div id=""grid-container"">
        <!-- Grid items will be dynamically added here -->
    </div>    ","null","","","","","","","","","","","",""
"","959","html-keyboard-response","352","324787","0.0-15.0-2.6","F2u1GHJ1Ug","6400dde611c4534903252cba","6617fad957f7c6a12ea16e26","6622cf46c230f86477d59bbc","mask grid","p","","","","","Ontogenetic_Distractor_notarget","onmask","800"," ","8","Ontogenetic","false","experimental"
"","null","html-keyboard-response","353","325491","0.0-15.0-0.7","F2u1GHJ1Ug","6400dde611c4534903252cba","6617fad957f7c6a12ea16e26","6622cf46c230f86477d59bbc","fixation cross","null","","","","","","","","","","","",""
"","null","html-keyboard-response","354","326293","0.0-15.0-1.7","F2u1GHJ1Ug","6400dde611c4534903252cba","6617fad957f7c6a12ea16e26","6622cf46c230f86477d59bbc","
        <div id=""grid-container"">
        <!-- Grid items will be dynamically added here -->
    </div>    ","null","","","","","","","","","","","",""
"","1264","html-keyboard-response","355","326758","0.0-15.0-2.7","F2u1GHJ1Ug","6400dde611c4534903252cba","6617fad957f7c6a12ea16e26","6622cf46c230f86477d59bbc","mask grid","p","","","","","Ontogenetic_Distractor_notarget","onmask","800"," ","9","Ontogenetic","false","experimental"
"","null","html-keyboard-response","356","327462","0.0-15.0-0.8","F2u1GHJ1Ug","6400dde611c4534903252cba","6617fad957f7c6a12ea16e26","6622cf46c230f86477d59bbc","fixation cross","null","","","","","","","","","","","",""
"","773","html-keyboard-response","357","328236","0.0-15.0-1.8","F2u1GHJ1Ug","6400dde611c4534903252cba","6617fad957f7c6a12ea16e26","6622cf46c230f86477d59bbc","image grid","q","","","","","Ontogenetic_Distractor_Threat_target","ongrid","800","q","4","Ontogenetic","true","experimental"
"","null","html-keyboard-response","358","328388","0.0-15.0-2.8","F2u1GHJ1Ug","6400dde611c4534903252cba","6617fad957f7c6a12ea16e26","6622cf46c230f86477d59bbc","
    <div id=""grid-container"">
        <!-- Grid items will be dynamically added here -->
    </div>    ","null","","","","","","","","","","","",""
"","null","html-keyboard-response","359","329092","0.0-15.0-0.9","F2u1GHJ1Ug","6400dde611c4534903252cba","6617fad957f7c6a12ea16e26","6622cf46c230f86477d59bbc","fixation cross","null","","","","","","","","","","","",""
"","592","html-keyboard-response","360","329685","0.0-15.0-1.9","F2u1GHJ1Ug","6400dde611c4534903252cba","6617fad957f7c6a12ea16e26","6622cf46c230f86477d59bbc","image grid","q","","","","","Ontogenetic_Distractor_Nonthreat_target","ongrid","800","p","4","Ontogenetic","false","experimental"
"","null","html-keyboard-response","361","329838","0.0-15.0-2.9","F2u1GHJ1Ug","6400dde611c4534903252cba","6617fad957f7c6a12ea16e26","6622cf46c230f86477d59bbc","
    <div id=""grid-container"">
        <!-- Grid items will be dynamically added here -->
    </div>    ","null","","","","","","","","","","","",""
"","106","html-keyboard-response","362","330542","0.0-15.0-0.10","F2u1GHJ1Ug","6400dde611c4534903252cba","6617fad957f7c6a12ea16e26","6622cf46c230f86477d59bbc","fixation cross","p","","","","","","","","","","","",""
"","null","html-keyboard-response","363","331344","0.0-15.0-1.10","F2u1GHJ1Ug","6400dde611c4534903252cba","6617fad957f7c6a12ea16e26","6622cf46c230f86477d59bbc","
        <div id=""grid-container"">
        <!-- Grid items will be dynamically added here -->
    </div>    ","null","","","","","","","","","","","",""
"","857","html-keyboard-response","364","331403","0.0-15.0-2.10","F2u1GHJ1Ug","6400dde611c4534903252cba","6617fad957f7c6a12ea16e26","6622cf46c230f86477d59bbc","mask grid","p","","","","","Ontogenetic_Distractor_Nonthreat_target","onmask","800","p","1","Ontogenetic","true","experimental"
"","null","html-keyboard-response","365","332107","0.0-15.0-0.11","F2u1GHJ1Ug","6400dde611c4534903252cba","6617fad957f7c6a12ea16e26","6622cf46c230f86477d59bbc","fixation cross","null","","","","","","","","","","","",""
"","null","html-keyboard-response","366","332909","0.0-15.0-1.11","F2u1GHJ1Ug","6400dde611c4534903252cba","6617fad957f7c6a12ea16e26","6622cf46c230f86477d59bbc","
        <div id=""grid-container"">
        <!-- Grid items will be dynamically added here -->
    </div>    ","null","","","","","","","","","","","",""
"","841","html-keyboard-response","367","332951","0.0-15.0-2.11","F2u1GHJ1Ug","6400dde611c4534903252cba","6617fad957f7c6a12ea16e26","6622cf46c230f86477d59bbc","mask grid","p","","","","","Ontogenetic_Distractor_Nonthreat_target","onmask","800","p","1","Ontogenetic","true","experimental"
"","null","html-keyboard-response","368","333654","0.0-15.0-0.12","F2u1GHJ1Ug","6400dde611c4534903252cba","6617fad957f7c6a12ea16e26","6622cf46c230f86477d59bbc","fixation cross","null","","","","","","","","","","","",""
"","678","html-keyboard-response","369","334333","0.0-15.0-1.12","F2u1GHJ1Ug","6400dde611c4534903252cba","6617fad957f7c6a12ea16e26","6622cf46c230f86477d59bbc","image grid","q","","","","","Ontogenetic_Distractor_Threat_target","ongrid","800","q","9","Ontogenetic","true","experimental"
"","null","html-keyboard-response","370","334487","0.0-15.0-2.12","F2u1GHJ1Ug","6400dde611c4534903252cba","6617fad957f7c6a12ea16e26","6622cf46c230f86477d59bbc","
    <div id=""grid-container"">
        <!-- Grid items will be dynamically added here -->
