"success","rt","trial_type","trial_index","time_elapsed","internal_node_id","unique_identifier","subject_id","study_id","session_id","stimulus","response","timeout","failed_images","failed_audio","failed_video","task","time_manipulation","respondedwhen","correctresponse","targetimagelocation","blocktype","correct","roundtype"
"true","4131","fullscreen","0","5142","0.0-0.0","auUl5RlOLV","6613642d329d60171ba608d0","6617fad957f7c6a12ea16e26","6622cff81174f5650254c297","","","","","","","","","","","","","",""
"","18121","html-keyboard-response","1","23264","0.0-1.0","auUl5RlOLV","6613642d329d60171ba608d0","6617fad957f7c6a12ea16e26","6622cff81174f5650254c297","instruction screen 0"," ","","","","","","","","","","","",""
"true","","preload","2","26361","0.0-2.0","auUl5RlOLV","6613642d329d60171ba608d0","6617fad957f7c6a12ea16e26","6622cff81174f5650254c297","","","false","[]","[]","[]","","","","","","","",""
"","15635","html-keyboard-response","3","41997","0.0-3.0","auUl5RlOLV","6613642d329d60171ba608d0","6617fad957f7c6a12ea16e26","6622cff81174f5650254c297","instruction screen 1"," ","","","","","","","","","","","",""
"","10042","html-keyboard-response","4","52041","0.0-4.0","auUl5RlOLV","6613642d329d60171ba608d0","6617fad957f7c6a12ea16e26","6622cff81174f5650254c297","instruction screen 2","q","","","","","","","","","","","",""
"","6285","html-keyboard-response","5","58328","0.0-5.0","auUl5RlOLV","6613642d329d60171ba608d0","6617fad957f7c6a12ea16e26","6622cff81174f5650254c297","instruction screen 3","p","","","","","","","","","","","",""
"","13017","html-keyboard-response","6","71347","0.0-6.0","auUl5RlOLV","6613642d329d60171ba608d0","6617fad957f7c6a12ea16e26","6622cff81174f5650254c297","instruction screen 4"," ","","","","","","","","","","","",""
"","12702","html-keyboard-response","7","84068","0.0-7.0","auUl5RlOLV","6613642d329d60171ba608d0","6617fad957f7c6a12ea16e26","6622cff81174f5650254c297","instruction screen 5"," ","","","","","","","","","","","",""
"","null","html-keyboard-response","8","84591","0.0-8.0","auUl5RlOLV","6613642d329d60171ba608d0","6617fad957f7c6a12ea16e26","6622cff81174f5650254c297","fixation cross","null","","","","","","","","","","","",""
"","null","html-keyboard-response","9","85106","0.0-9.0-0.0","auUl5RlOLV","6613642d329d60171ba608d0","6617fad957f7c6a12ea16e26","6622cff81174f5650254c297","fixation cross","null","","","","","","","","","","","",""
"","1618","html-keyboard-response","10","86724","0.0-9.0-1.0","auUl5RlOLV","6613642d329d60171ba608d0","6617fad957f7c6a12ea16e26","6622cff81174f5650254c297","image grid"," ","","","","","Ontogenetic_Distractor_Nonthreat_target","3000","ongrid","p","7","Ontogenetic","false","practice"
"","null","html-keyboard-response","11","86885","0.0-9.0-2.0","auUl5RlOLV","6613642d329d60171ba608d0","6617fad957f7c6a12ea16e26","6622cff81174f5650254c297","
    <div id=""grid-container"">
        <!-- Grid items will be dynamically added here -->
    </div>    ","null","","","","","","","","","","","",""
"","null","html-keyboard-response","12","88111","0.0-9.0-3.0","auUl5RlOLV","6613642d329d60171ba608d0","6617fad957f7c6a12ea16e26","6622cff81174f5650254c297","feedback screen","null","","","","","","","","","","","",""
"","null","html-keyboard-response","13","88613","0.0-9.0-0.1","auUl5RlOLV","6613642d329d60171ba608d0","6617fad957f7c6a12ea16e26","6622cff81174f5650254c297","fixation cross","null","","","","","","","","","","","",""
"","1761","html-keyboard-response","14","90374","0.0-9.0-1.1","auUl5RlOLV","6613642d329d60171ba608d0","6617fad957f7c6a12ea16e26","6622cff81174f5650254c297","image grid","p","","","","","Ontogenetic_Distractor_Nonthreat_target","2900","ongrid","p","1","Ontogenetic","true","practice"
"","null","html-keyboard-response","15","90538","0.0-9.0-2.1","auUl5RlOLV","6613642d329d60171ba608d0","6617fad957f7c6a12ea16e26","6622cff81174f5650254c297","
    <div id=""grid-container"">
        <!-- Grid items will be dynamically added here -->
    </div>    ","null","","","","","","","","","","","",""
"","null","html-keyboard-response","16","91764","0.0-9.0-3.1","auUl5RlOLV","6613642d329d60171ba608d0","6617fad957f7c6a12ea16e26","6622cff81174f5650254c297","feedback screen","null","","","","","","","","","","","",""
"","null","html-keyboard-response","17","92282","0.0-9.0-0.2","auUl5RlOLV","6613642d329d60171ba608d0","6617fad957f7c6a12ea16e26","6622cff81174f5650254c297","fixation cross","null","","","","","","","","","","","",""
"","2184","html-keyboard-response","18","94465","0.0-9.0-1.2","auUl5RlOLV","6613642d329d60171ba608d0","6617fad957f7c6a12ea16e26","6622cff81174f5650254c297","image grid"," ","","","","","Phylogenetic_Distractor_notarget","2800","ongrid"," ","2","Ontogenetic","true","practice"
"","null","html-keyboard-response","19","94626","0.0-9.0-2.2","auUl5RlOLV","6613642d329d60171ba608d0","6617fad957f7c6a12ea16e26","6622cff81174f5650254c297","
    <div id=""grid-container"">
        <!-- Grid items will be dynamically added here -->
    </div>    ","null","","","","","","","","","","","",""
"","null","html-keyboard-response","20","95852","0.0-9.0-3.2","auUl5RlOLV","6613642d329d60171ba608d0","6617fad957f7c6a12ea16e26","6622cff81174f5650254c297","feedback screen","null","","","","","","","","","","","",""
"","null","html-keyboard-response","21","96370","0.0-9.0-0.3","auUl5RlOLV","6613642d329d60171ba608d0","6617fad957f7c6a12ea16e26","6622cff81174f5650254c297","fixation cross","null","","","","","","","","","","","",""
"","1677","html-keyboard-response","22","98048","0.0-9.0-1.3","auUl5RlOLV","6613642d329d60171ba608d0","6617fad957f7c6a12ea16e26","6622cff81174f5650254c297","image grid","p","","","","","Ontogenetic_Distractor_Threat_target","2700","ongrid","q","2","Ontogenetic","false","practice"
"","null","html-keyboard-response","23","98212","0.0-9.0-2.3","auUl5RlOLV","6613642d329d60171ba608d0","6617fad957f7c6a12ea16e26","6622cff81174f5650254c297","
    <div id=""grid-container"">
        <!-- Grid items will be dynamically added here -->
    </div>    ","null","","","","","","","","","","","",""
"","null","html-keyboard-response","24","99439","0.0-9.0-3.3","auUl5RlOLV","6613642d329d60171ba608d0","6617fad957f7c6a12ea16e26","6622cff81174f5650254c297","feedback screen","null","","","","","","","","","","","",""
"","null","html-keyboard-response","25","99954","0.0-9.0-0.4","auUl5RlOLV","6613642d329d60171ba608d0","6617fad957f7c6a12ea16e26","6622cff81174f5650254c297","fixation cross","null","","","","","","","","","","","",""
"","1578","html-keyboard-response","26","101532","0.0-9.0-1.4","auUl5RlOLV","6613642d329d60171ba608d0","6617fad957f7c6a12ea16e26","6622cff81174f5650254c297","image grid","q","","","","","Ontogenetic_Distractor_Threat_target","2600","ongrid","q","1","Ontogenetic","true","practice"
"","null","html-keyboard-response","27","101684","0.0-9.0-2.4","auUl5RlOLV","6613642d329d60171ba608d0","6617fad957f7c6a12ea16e26","6622cff81174f5650254c297","
    <div id=""grid-container"">
        <!-- Grid items will be dynamically added here -->
    </div>    ","null","","","","","","","","","","","",""
"","null","html-keyboard-response","28","102909","0.0-9.0-3.4","auUl5RlOLV","6613642d329d60171ba608d0","6617fad957f7c6a12ea16e26","6622cff81174f5650254c297","feedback screen","null","","","","","","","","","","","",""
"","null","html-keyboard-response","29","103426","0.0-9.0-0.5","auUl5RlOLV","6613642d329d60171ba608d0","6617fad957f7c6a12ea16e26","6622cff81174f5650254c297","fixation cross","null","","","","","","","","","","","",""
"","2471","html-keyboard-response","30","105898","0.0-9.0-1.5","auUl5RlOLV","6613642d329d60171ba608d0","6617fad957f7c6a12ea16e26","6622cff81174f5650254c297","image grid"," ","","","","","Ontogenetic_Distractor_notarget","2500","ongrid"," ","6","Ontogenetic","true","practice"
"","null","html-keyboard-response","31","106055","0.0-9.0-2.5","auUl5RlOLV","6613642d329d60171ba608d0","6617fad957f7c6a12ea16e26","6622cff81174f5650254c297","
    <div id=""grid-container"">
        <!-- Grid items will be dynamically added here -->
    </div>    ","null","","","","","","","","","","","",""
"","null","html-keyboard-response","32","107280","0.0-9.0-3.5","auUl5RlOLV","6613642d329d60171ba608d0","6617fad957f7c6a12ea16e26","6622cff81174f5650254c297","feedback screen","null","","","","","","","","","","","",""
"","null","html-keyboard-response","33","107798","0.0-9.0-0.6","auUl5RlOLV","6613642d329d60171ba608d0","6617fad957f7c6a12ea16e26","6622cff81174f5650254c297","fixation cross","null","","","","","","","","","","","",""
"","null","html-keyboard-response","34","110206","0.0-9.0-1.6","auUl5RlOLV","6613642d329d60171ba608d0","6617fad957f7c6a12ea16e26","6622cff81174f5650254c297","
        <div id=""grid-container"">
        <!-- Grid items will be dynamically added here -->
    </div>    ","null","","","","","","","","","","","",""
"","2400","html-keyboard-response","35","115212","0.0-9.0-2.6","auUl5RlOLV","6613642d329d60171ba608d0","6617fad957f7c6a12ea16e26","6622cff81174f5650254c297","mask grid","null","","","","","Phylogenetic_Distractor_Nonthreat_target","2400","onmask","p","5","Ontogenetic","false","practice"
"","null","html-keyboard-response","36","116438","0.0-9.0-3.6","auUl5RlOLV","6613642d329d60171ba608d0","6617fad957f7c6a12ea16e26","6622cff81174f5650254c297","feedback screen","null","","","","","","","","","","","",""
"","null","html-keyboard-response","37","116941","0.0-9.0-0.7","auUl5RlOLV","6613642d329d60171ba608d0","6617fad957f7c6a12ea16e26","6622cff81174f5650254c297","fixation cross","null","","","","","","","","","","","",""
"","1306","html-keyboard-response","38","118247","0.0-9.0-1.7","auUl5RlOLV","6613642d329d60171ba608d0","6617fad957f7c6a12ea16e26","6622cff81174f5650254c297","image grid","p","","","","","Ontogenetic_Distractor_Threat_target","2300","ongrid","q","8","Ontogenetic","false","practice"
"","null","html-keyboard-response","39","118401","0.0-9.0-2.7","auUl5RlOLV","6613642d329d60171ba608d0","6617fad957f7c6a12ea16e26","6622cff81174f5650254c297","
    <div id=""grid-container"">
        <!-- Grid items will be dynamically added here -->
    </div>    ","null","","","","","","","","","","","",""
"","null","html-keyboard-response","40","119625","0.0-9.0-3.7","auUl5RlOLV","6613642d329d60171ba608d0","6617fad957f7c6a12ea16e26","6622cff81174f5650254c297","feedback screen","null","","","","","","","","","","","",""
"","null","html-keyboard-response","41","120143","0.0-9.0-0.8","auUl5RlOLV","6613642d329d60171ba608d0","6617fad957f7c6a12ea16e26","6622cff81174f5650254c297","fixation cross","null","","","","","","","","","","","",""
"","1659","html-keyboard-response","42","121801","0.0-9.0-1.8","auUl5RlOLV","6613642d329d60171ba608d0","6617fad957f7c6a12ea16e26","6622cff81174f5650254c297","image grid"," ","","","","","Ontogenetic_Distractor_notarget","2200","ongrid"," ","2","Ontogenetic","true","practice"
"","null","html-keyboard-response","43","121953","0.0-9.0-2.8","auUl5RlOLV","6613642d329d60171ba608d0","6617fad957f7c6a12ea16e26","6622cff81174f5650254c297","
    <div id=""grid-container"">
        <!-- Grid items will be dynamically added here -->
    </div>    ","null","","","","","","","","","","","",""
"","null","html-keyboard-response","44","123178","0.0-9.0-3.8","auUl5RlOLV","6613642d329d60171ba608d0","6617fad957f7c6a12ea16e26","6622cff81174f5650254c297","feedback screen","null","","","","","","","","","","","",""
"","null","html-keyboard-response","45","123694","0.0-9.0-0.9","auUl5RlOLV","6613642d329d60171ba608d0","6617fad957f7c6a12ea16e26","6622cff81174f5650254c297","fixation cross","null","","","","","","","","","","","",""
"","864","html-keyboard-response","46","124559","0.0-9.0-1.9","auUl5RlOLV","6613642d329d60171ba608d0","6617fad957f7c6a12ea16e26","6622cff81174f5650254c297","image grid","q","","","","","Ontogenetic_Distractor_Threat_target","2100","ongrid","q","1","Ontogenetic","true","practice"
"","null","html-keyboard-response","47","124721","0.0-9.0-2.9","auUl5RlOLV","6613642d329d60171ba608d0","6617fad957f7c6a12ea16e26","6622cff81174f5650254c297","
    <div id=""grid-container"">
        <!-- Grid items will be dynamically added here -->
    </div>    ","null","","","","","","","","","","","",""
"","null","html-keyboard-response","48","125947","0.0-9.0-3.9","auUl5RlOLV","6613642d329d60171ba608d0","6617fad957f7c6a12ea16e26","6622cff81174f5650254c297","feedback screen","null","","","","","","","","","","","",""
"","null","html-keyboard-response","49","126464","0.0-9.0-0.10","auUl5RlOLV","6613642d329d60171ba608d0","6617fad957f7c6a12ea16e26","6622cff81174f5650254c297","fixation cross","null","","","","","","","","","","","",""
"","null","html-keyboard-response","50","128473","0.0-9.0-1.10","auUl5RlOLV","6613642d329d60171ba608d0","6617fad957f7c6a12ea16e26","6622cff81174f5650254c297","
        <div id=""grid-container"">
        <!-- Grid items will be dynamically added here -->
    </div>    ","null","","","","","","","","","","","",""
"","2629","html-keyboard-response","51","129103","0.0-9.0-2.10","auUl5RlOLV","6613642d329d60171ba608d0","6617fad957f7c6a12ea16e26","6622cff81174f5650254c297","mask grid","p","","","","","Phylogenetic_Distractor_Nonthreat_target","2000","onmask","p","6","Ontogenetic","true","practice"
"","null","html-keyboard-response","52","130318","0.0-9.0-3.10","auUl5RlOLV","6613642d329d60171ba608d0","6617fad957f7c6a12ea16e26","6622cff81174f5650254c297","feedback screen","null","","","","","","","","","","","",""
"","null","html-keyboard-response","53","130835","0.0-9.0-0.11","auUl5RlOLV","6613642d329d60171ba608d0","6617fad957f7c6a12ea16e26","6622cff81174f5650254c297","fixation cross","null","","","","","","","","","","","",""
"","null","html-keyboard-response","54","132744","0.0-9.0-1.11","auUl5RlOLV","6613642d329d60171ba608d0","6617fad957f7c6a12ea16e26","6622cff81174f5650254c297","
        <div id=""grid-container"">
        <!-- Grid items will be dynamically added here -->
    </div>    ","null","","","","","","","","","","","",""
"","3073","html-keyboard-response","55","133917","0.0-9.0-2.11","auUl5RlOLV","6613642d329d60171ba608d0","6617fad957f7c6a12ea16e26","6622cff81174f5650254c297","mask grid"," ","","","","","Phylogenetic_Distractor_notarget","1900","onmask"," ","7","Ontogenetic","true","practice"
"","null","html-keyboard-response","56","135140","0.0-9.0-3.11","auUl5RlOLV","6613642d329d60171ba608d0","6617fad957f7c6a12ea16e26","6622cff81174f5650254c297","feedback screen","null","","","","","","","","","","","",""
"","null","html-keyboard-response","57","135657","0.0-9.0-0.12","auUl5RlOLV","6613642d329d60171ba608d0","6617fad957f7c6a12ea16e26","6622cff81174f5650254c297","fixation cross","null","","","","","","","","","","","",""
"","null","html-keyboard-response","58","137472","0.0-9.0-1.12","auUl5RlOLV","6613642d329d60171ba608d0","6617fad957f7c6a12ea16e26","6622cff81174f5650254c297","
        <div id=""grid-container"">
        <!-- Grid items will be dynamically added here -->
    </div>    ","null","","","","","","","","","","","",""
"","2578","html-keyboard-response","59","138250","0.0-9.0-2.12","auUl5RlOLV","6613642d329d60171ba608d0","6617fad957f7c6a12ea16e26","6622cff81174f5650254c297","mask grid","p","","","","","Phylogenetic_Distractor_Nonthreat_target","1800","onmask","p","4","Ontogenetic","true","practice"
"","null","html-keyboard-response","60","139474","0.0-9.0-3.12","auUl5RlOLV","6613642d329d60171ba608d0","6617fad957f7c6a12ea16e26","6622cff81174f5650254c297","feedback screen","null","","","","","","","","","","","",""
"","null","html-keyboard-response","61","139979","0.0-9.0-0.13","auUl5RlOLV","6613642d329d60171ba608d0","6617fad957f7c6a12ea16e26","6622cff81174f5650254c297","fixation cross","null","","","","","","","","","","","",""
"","1580","html-keyboard-response","62","141560","0.0-9.0-1.13","auUl5RlOLV","6613642d329d60171ba608d0","6617fad957f7c6a12ea16e26","6622cff81174f5650254c297","image grid","q","","","","","Phylogenetic_Distractor_Threat_target","1700","ongrid","q","2","Ontogenetic","true","practice"
"","null","html-keyboard-response","63","141721","0.0-9.0-2.13","auUl5RlOLV","6613642d329d60171ba608d0","6617fad957f7c6a12ea16e26","6622cff81174f5650254c297","
    <div id=""grid-container"">
        <!-- Grid items will be dynamically added here -->
    </div>    ","null","","","","","","","","","","","",""
"","null","html-keyboard-response","64","142947","0.0-9.0-3.13","auUl5RlOLV","6613642d329d60171ba608d0","6617fad957f7c6a12ea16e26","6622cff81174f5650254c297","feedback screen","null","","","","","","","","","","","",""
"","null","html-keyboard-response","65","143464","0.0-9.0-0.14","auUl5RlOLV","6613642d329d60171ba608d0","6617fad957f7c6a12ea16e26","6622cff81174f5650254c297","fixation cross","null","","","","","","","","","","","",""
"","1337","html-keyboard-response","66","144801","0.0-9.0-1.14","auUl5RlOLV","6613642d329d60171ba608d0","6617fad957f7c6a12ea16e26","6622cff81174f5650254c297","image grid","q","","","","","Phylogenetic_Distractor_Threat_target","1600","ongrid","q","8","Ontogenetic","true","practice"
"","null","html-keyboard-response","67","144959","0.0-9.0-2.14","auUl5RlOLV","6613642d329d60171ba608d0","6617fad957f7c6a12ea16e26","6622cff81174f5650254c297","
    <div id=""grid-container"">
        <!-- Grid items will be dynamically added here -->
    </div>    ","null","","","","","","","","","","","",""
"","null","html-keyboard-response","68","146184","0.0-9.0-3.14","auUl5RlOLV","6613642d329d60171ba608d0","6617fad957f7c6a12ea16e26","6622cff81174f5650254c297","feedback screen","null","","","","","","","","","","","",""
"","null","html-keyboard-response","69","146702","0.0-9.0-0.15","auUl5RlOLV","6613642d329d60171ba608d0","6617fad957f7c6a12ea16e26","6622cff81174f5650254c297","fixation cross","null","","","","","","","","","","","",""
"","null","html-keyboard-response","70","148205","0.0-9.0-1.15","auUl5RlOLV","6613642d329d60171ba608d0","6617fad957f7c6a12ea16e26","6622cff81174f5650254c297","
        <div id=""grid-container"">
        <!-- Grid items will be dynamically added here -->
    </div>    ","null","","","","","","","","","","","",""
"","1730","html-keyboard-response","71","148435","0.0-9.0-2.15","auUl5RlOLV","6613642d329d60171ba608d0","6617fad957f7c6a12ea16e26","6622cff81174f5650254c297","mask grid","q","","","","","Phylogenetic_Distractor_Nonthreat_target","1500","onmask","p","4","Ontogenetic","false","practice"
"","null","html-keyboard-response","72","149654","0.0-9.0-3.15","auUl5RlOLV","6613642d329d60171ba608d0","6617fad957f7c6a12ea16e26","6622cff81174f5650254c297","feedback screen","null","","","","","","","","","","","",""
"","null","html-keyboard-response","73","150157","0.0-9.0-0.16","auUl5RlOLV","6613642d329d60171ba608d0","6617fad957f7c6a12ea16e26","6622cff81174f5650254c297","fixation cross","null","","","","","","","","","","","",""
"","1138","html-keyboard-response","74","151296","0.0-9.0-1.16","auUl5RlOLV","6613642d329d60171ba608d0","6617fad957f7c6a12ea16e26","6622cff81174f5650254c297","image grid","q","","","","","Phylogenetic_Distractor_Threat_target","1400","ongrid","q","2","Ontogenetic","true","practice"
"","null","html-keyboard-response","75","151450","0.0-9.0-2.16","auUl5RlOLV","6613642d329d60171ba608d0","6617fad957f7c6a12ea16e26","6622cff81174f5650254c297","
    <div id=""grid-container"">
        <!-- Grid items will be dynamically added here -->
    </div>    ","null","","","","","","","","","","","",""
"","null","html-keyboard-response","76","152674","0.0-9.0-3.16","auUl5RlOLV","6613642d329d60171ba608d0","6617fad957f7c6a12ea16e26","6622cff81174f5650254c297","feedback screen","null","","","","","","","","","","","",""
"","null","html-keyboard-response","77","153192","0.0-9.0-0.17","auUl5RlOLV","6613642d329d60171ba608d0","6617fad957f7c6a12ea16e26","6622cff81174f5650254c297","fixation cross","null","","","","","","","","","","","",""
"","null","html-keyboard-response","78","154507","0.0-9.0-1.17","auUl5RlOLV","6613642d329d60171ba608d0","6617fad957f7c6a12ea16e26","6622cff81174f5650254c297","
        <div id=""grid-container"">
        <!-- Grid items will be dynamically added here -->
    </div>    ","null","","","","","","","","","","","",""
"","1450","html-keyboard-response","79","154657","0.0-9.0-2.17","auUl5RlOLV","6613642d329d60171ba608d0","6617fad957f7c6a12ea16e26","6622cff81174f5650254c297","mask grid","q","","","","","Phylogenetic_Distractor_Threat_target","1300","onmask","q","9","Ontogenetic","true","practice"
"","null","html-keyboard-response","80","155876","0.0-9.0-3.17","auUl5RlOLV","6613642d329d60171ba608d0","6617fad957f7c6a12ea16e26","6622cff81174f5650254c297","feedback screen","null","","","","","","","","","","","",""
"","null","html-keyboard-response","81","156395","0.0-9.0-0.18","auUl5RlOLV","6613642d329d60171ba608d0","6617fad957f7c6a12ea16e26","6622cff81174f5650254c297","fixation cross","null","","","","","","","","","","","",""
"","null","html-keyboard-response","82","157598","0.0-9.0-1.18","auUl5RlOLV","6613642d329d60171ba608d0","6617fad957f7c6a12ea16e26","6622cff81174f5650254c297","
        <div id=""grid-container"">
        <!-- Grid items will be dynamically added here -->
    </div>    ","null","","","","","","","","","","","",""
"","1220","html-keyboard-response","83","157619","0.0-9.0-2.18","auUl5RlOLV","6613642d329d60171ba608d0","6617fad957f7c6a12ea16e26","6622cff81174f5650254c297","mask grid","p","","","","","Ontogenetic_Distractor_Nonthreat_target","1200","onmask","p","3","Ontogenetic","true","practice"
"","null","html-keyboard-response","84","158848","0.0-9.0-3.18","auUl5RlOLV","6613642d329d60171ba608d0","6617fad957f7c6a12ea16e26","6622cff81174f5650254c297","feedback screen","null","","","","","","","","","","","",""
"","null","html-keyboard-response","85","159364","0.0-9.0-0.19","auUl5RlOLV","6613642d329d60171ba608d0","6617fad957f7c6a12ea16e26","6622cff81174f5650254c297","fixation cross","null","","","","","","","","","","","",""
"","857","html-keyboard-response","86","160221","0.0-9.0-1.19","auUl5RlOLV","6613642d329d60171ba608d0","6617fad957f7c6a12ea16e26","6622cff81174f5650254c297","image grid","p","","","","","Ontogenetic_Distractor_Nonthreat_target","1100","ongrid","p","4","Ontogenetic","true","practice"
"","null","html-keyboard-response","87","160373","0.0-9.0-2.19","auUl5RlOLV","6613642d329d60171ba608d0","6617fad957f7c6a12ea16e26","6622cff81174f5650254c297","
    <div id=""grid-container"">
        <!-- Grid items will be dynamically added here -->
    </div>    ","null","","","","","","","","","","","",""
"","null","html-keyboard-response","88","161599","0.0-9.0-3.19","auUl5RlOLV","6613642d329d60171ba608d0","6617fad957f7c6a12ea16e26","6622cff81174f5650254c297","feedback screen","null","","","","","","","","","","","",""
"","15536","html-keyboard-response","89","177160","0.0-10.0","auUl5RlOLV","6613642d329d60171ba608d0","6617fad957f7c6a12ea16e26","6622cff81174f5650254c297","pre-experimental_briefing"," ","","","","","","","","","","","",""
"","null","html-keyboard-response","90","179686","0.0-11.0-0.0","auUl5RlOLV","6613642d329d60171ba608d0","6617fad957f7c6a12ea16e26","6622cff81174f5650254c297","fixation cross","null","","","","","","","","","","","",""
"","null","html-keyboard-response","91","182192","0.0-11.0-1.0","auUl5RlOLV","6613642d329d60171ba608d0","6617fad957f7c6a12ea16e26","6622cff81174f5650254c297","
        <div id=""grid-container"">
        <!-- Grid items will be dynamically added here -->
    </div>    ","null","","","","","","","","","","","",""
"","2577","html-keyboard-response","92","182270","0.0-11.0-2.0","auUl5RlOLV","6613642d329d60171ba608d0","6617fad957f7c6a12ea16e26","6622cff81174f5650254c297","mask grid","p","","","","","Ontogenetic_Distractor_Nonthreat_target","2500","onmask","p","2","Ontogenetic","true","experimental"
"","null","html-keyboard-response","93","182990","0.0-11.0-0.1","auUl5RlOLV","6613642d329d60171ba608d0","6617fad957f7c6a12ea16e26","6622cff81174f5650254c297","fixation cross","null","","","","","","","","","","","",""
"","2026","html-keyboard-response","94","185016","0.0-11.0-1.1","auUl5RlOLV","6613642d329d60171ba608d0","6617fad957f7c6a12ea16e26","6622cff81174f5650254c297","image grid","q","","","","","Ontogenetic_Distractor_Threat_target","2500","ongrid","q","3","Ontogenetic","true","experimental"
"","null","html-keyboard-response","95","185182","0.0-11.0-2.1","auUl5RlOLV","6613642d329d60171ba608d0","6617fad957f7c6a12ea16e26","6622cff81174f5650254c297","
    <div id=""grid-container"">
        <!-- Grid items will be dynamically added here -->
    </div>    ","null","","","","","","","","","","","",""
"","null","html-keyboard-response","96","185910","0.0-11.0-0.2","auUl5RlOLV","6613642d329d60171ba608d0","6617fad957f7c6a12ea16e26","6622cff81174f5650254c297","fixation cross","null","","","","","","","","","","","",""
"","2024","html-keyboard-response","97","187935","0.0-11.0-1.2","auUl5RlOLV","6613642d329d60171ba608d0","6617fad957f7c6a12ea16e26","6622cff81174f5650254c297","image grid","p","","","","","Ontogenetic_Distractor_Nonthreat_target","2500","ongrid","p","9","Ontogenetic","true","experimental"
"","null","html-keyboard-response","98","188087","0.0-11.0-2.2","auUl5RlOLV","6613642d329d60171ba608d0","6617fad957f7c6a12ea16e26","6622cff81174f5650254c297","
    <div id=""grid-container"">
        <!-- Grid items will be dynamically added here -->
    </div>    ","null","","","","","","","","","","","",""
"","null","html-keyboard-response","99","188813","0.0-11.0-0.3","auUl5RlOLV","6613642d329d60171ba608d0","6617fad957f7c6a12ea16e26","6622cff81174f5650254c297","fixation cross","null","","","","","","","","","","","",""
"","null","html-keyboard-response","100","191317","0.0-11.0-1.3","auUl5RlOLV","6613642d329d60171ba608d0","6617fad957f7c6a12ea16e26","6622cff81174f5650254c297","
        <div id=""grid-container"">
        <!-- Grid items will be dynamically added here -->
    </div>    ","null","","","","","","","","","","","",""
"","2820","html-keyboard-response","101","191637","0.0-11.0-2.3","auUl5RlOLV","6613642d329d60171ba608d0","6617fad957f7c6a12ea16e26","6622cff81174f5650254c297","mask grid","p","","","","","Ontogenetic_Distractor_Nonthreat_target","2500","onmask","p","4","Ontogenetic","true","experimental"
"","null","html-keyboard-response","102","192352","0.0-11.0-0.4","auUl5RlOLV","6613642d329d60171ba608d0","6617fad957f7c6a12ea16e26","6622cff81174f5650254c297","fixation cross","null","","","","","","","","","","","",""
"","1214","html-keyboard-response","103","193567","0.0-11.0-1.4","auUl5RlOLV","6613642d329d60171ba608d0","6617fad957f7c6a12ea16e26","6622cff81174f5650254c297","image grid","p","","","","","Ontogenetic_Distractor_Nonthreat_target","2500","ongrid","p","3","Ontogenetic","true","experimental"
"","null","html-keyboard-response","104","193727","0.0-11.0-2.4","auUl5RlOLV","6613642d329d60171ba608d0","6617fad957f7c6a12ea16e26","6622cff81174f5650254c297","
    <div id=""grid-container"">
        <!-- Grid items will be dynamically added here -->
    </div>    ","null","","","","","","","","","","","",""
"","null","html-keyboard-response","105","194452","0.0-11.0-0.5","auUl5RlOLV","6613642d329d60171ba608d0","6617fad957f7c6a12ea16e26","6622cff81174f5650254c297","fixation cross","null","","","","","","","","","","","",""
"","902","html-keyboard-response","106","195354","0.0-11.0-1.5","auUl5RlOLV","6613642d329d60171ba608d0","6617fad957f7c6a12ea16e26","6622cff81174f5650254c297","image grid","q","","","","","Ontogenetic_Distractor_Threat_target","2500","ongrid","q","5","Ontogenetic","true","experimental"
"","null","html-keyboard-response","107","195513","0.0-11.0-2.5","auUl5RlOLV","6613642d329d60171ba608d0","6617fad957f7c6a12ea16e26","6622cff81174f5650254c297","
    <div id=""grid-container"">
        <!-- Grid items will be dynamically added here -->
    </div>    ","null","","","","","","","","","","","",""
"","null","html-keyboard-response","108","196237","0.0-11.0-0.6","auUl5RlOLV","6613642d329d60171ba608d0","6617fad957f7c6a12ea16e26","6622cff81174f5650254c297","fixation cross","null","","","","","","","","","","","",""
"","null","html-keyboard-response","109","198743","0.0-11.0-1.6","auUl5RlOLV","6613642d329d60171ba608d0","6617fad957f7c6a12ea16e26","6622cff81174f5650254c297","
        <div id=""grid-container"">
        <!-- Grid items will be dynamically added here -->
    </div>    ","null","","","","","","","","","","","",""
"","2763","html-keyboard-response","110","199007","0.0-11.0-2.6","auUl5RlOLV","6613642d329d60171ba608d0","6617fad957f7c6a12ea16e26","6622cff81174f5650254c297","mask grid"," ","","","","","Ontogenetic_Distractor_notarget","2500","onmask"," ","6","Ontogenetic","true","experimental"
"","null","html-keyboard-response","111","199723","0.0-11.0-0.7","auUl5RlOLV","6613642d329d60171ba608d0","6617fad957f7c6a12ea16e26","6622cff81174f5650254c297","fixation cross","null","","","","","","","","","","","",""
"","1341","html-keyboard-response","112","201065","0.0-11.0-1.7","auUl5RlOLV","6613642d329d60171ba608d0","6617fad957f7c6a12ea16e26","6622cff81174f5650254c297","image grid","p","","","","","Ontogenetic_Distractor_Threat_target","2500","ongrid","q","3","Ontogenetic","false","experimental"
"","null","html-keyboard-response","113","201218","0.0-11.0-2.7","auUl5RlOLV","6613642d329d60171ba608d0","6617fad957f7c6a12ea16e26","6622cff81174f5650254c297","
    <div id=""grid-container"">
        <!-- Grid items will be dynamically added here -->
    </div>    ","null","","","","","","","","","","","",""
"","null","html-keyboard-response","114","201931","0.0-11.0-0.8","auUl5RlOLV","6613642d329d60171ba608d0","6617fad957f7c6a12ea16e26","6622cff81174f5650254c297","fixation cross","null","","","","","","","","","","","",""
"","null","html-keyboard-response","115","204448","0.0-11.0-1.8","auUl5RlOLV","6613642d329d60171ba608d0","6617fad957f7c6a12ea16e26","6622cff81174f5650254c297","
        <div id=""grid-container"">
        <!-- Grid items will be dynamically added here -->
    </div>    ","null","","","","","","","","","","","",""
"","2817","html-keyboard-response","116","204765","0.0-11.0-2.8","auUl5RlOLV","6613642d329d60171ba608d0","6617fad957f7c6a12ea16e26","6622cff81174f5650254c297","mask grid","q","","","","","Ontogenetic_Distractor_Threat_target","2500","onmask","q","3","Ontogenetic","true","experimental"
"","null","html-keyboard-response","117","205480","0.0-11.0-0.9","auUl5RlOLV","6613642d329d60171ba608d0","6617fad957f7c6a12ea16e26","6622cff81174f5650254c297","fixation cross","null","","","","","","","","","","","",""
"","1040","html-keyboard-response","118","206520","0.0-11.0-1.9","auUl5RlOLV","6613642d329d60171ba608d0","6617fad957f7c6a12ea16e26","6622cff81174f5650254c297","image grid","q","","","","","Ontogenetic_Distractor_Threat_target","2500","ongrid","q","2","Ontogenetic","true","experimental"
"","null","html-keyboard-response","119","206672","0.0-11.0-2.9","auUl5RlOLV","6613642d329d60171ba608d0","6617fad957f7c6a12ea16e26","6622cff81174f5650254c297","
    <div id=""grid-container"">
        <!-- Grid items will be dynamically added here -->
    </div>    ","null","","","","","","","","","","","",""
"","null","html-keyboard-response","120","207399","0.0-11.0-0.10","auUl5RlOLV","6613642d329d60171ba608d0","6617fad957f7c6a12ea16e26","6622cff81174f5650254c297","fixation cross","null","","","","","","","","","","","",""
"","1777","html-keyboard-response","121","209177","0.0-11.0-1.10","auUl5RlOLV","6613642d329d60171ba608d0","6617fad957f7c6a12ea16e26","6622cff81174f5650254c297","image grid"," ","","","","","Ontogenetic_Distractor_Threat_target","2500","ongrid","q","4","Ontogenetic","false","experimental"
"","null","html-keyboard-response","122","209343","0.0-11.0-2.10","auUl5RlOLV","6613642d329d60171ba608d0","6617fad957f7c6a12ea16e26","6622cff81174f5650254c297","
    <div id=""grid-container"">
        <!-- Grid items will be dynamically added here -->
    </div>    ","null","","","","","","","","","","","",""
"","null","html-keyboard-response","123","210055","0.0-11.0-0.11","auUl5RlOLV","6613642d329d60171ba608d0","6617fad957f7c6a12ea16e26","6622cff81174f5650254c297","fixation cross","null","","","","","","","","","","","",""
"","1556","html-keyboard-response","124","211611","0.0-11.0-1.11","auUl5RlOLV","6613642d329d60171ba608d0","6617fad957f7c6a12ea16e26","6622cff81174f5650254c297","image grid","q","","","","","Ontogenetic_Distractor_Threat_target","2500","ongrid","q","4","Ontogenetic","true","experimental"
"","null","html-keyboard-response","125","211763","0.0-11.0-2.11","auUl5RlOLV","6613642d329d60171ba608d0","6617fad957f7c6a12ea16e26","6622cff81174f5650254c297","
    <div id=""grid-container"">
        <!-- Grid items will be dynamically added here -->
    </div>    ","null","","","","","","","","","","","",""
"","null","html-keyboard-response","126","212487","0.0-11.0-0.12","auUl5RlOLV","6613642d329d60171ba608d0","6617fad957f7c6a12ea16e26","6622cff81174f5650254c297","fixation cross","null","","","","","","","","","","","",""
"","1727","html-keyboard-response","127","214215","0.0-11.0-1.12","auUl5RlOLV","6613642d329d60171ba608d0","6617fad957f7c6a12ea16e26","6622cff81174f5650254c297","image grid","q","","","","","Ontogenetic_Distractor_Threat_target","2500","ongrid","q","9","Ontogenetic","true","experimental"
"","null","html-keyboard-response","128","214367","0.0-11.0-2.12","auUl5RlOLV","6613642d329d60171ba608d0","6617fad957f7c6a12ea16e26","6622cff81174f5650254c297","
    <div id=""grid-container"">
        <!-- Grid items will be dynamically added here -->
    </div>    ","null","","","","","","","","","","","",""
"","null","html-keyboard-response","129","215090","0.0-11.0-0.13","auUl5RlOLV","6613642d329d60171ba608d0","6617fad957f7c6a12ea16e26","6622cff81174f5650254c297","fixation cross","null","","","","","","","","","","","",""
"","1933","html-keyboard-response","130","217023","0.0-11.0-1.13","auUl5RlOLV","6613642d329d60171ba608d0","6617fad957f7c6a12ea16e26","6622cff81174f5650254c297","image grid","q","","","","","Ontogenetic_Distractor_Threat_target","2500","ongrid","q","3","Ontogenetic","true","experimental"
"","null","html-keyboard-response","131","217176","0.0-11.0-2.13","auUl5RlOLV","6613642d329d60171ba608d0","6617fad957f7c6a12ea16e26","6622cff81174f5650254c297","
    <div id=""grid-container"">
        <!-- Grid items will be dynamically added here -->
    </div>    ","null","","","","","","","","","","","",""
"","null","html-keyboard-response","132","217894","0.0-11.0-0.14","auUl5RlOLV","6613642d329d60171ba608d0","6617fad957f7c6a12ea16e26","6622cff81174f5650254c297","fixation cross","null","","","","","","","","","","","",""
"","1343","html-keyboard-response","133","219237","0.0-11.0-1.14","auUl5RlOLV","6613642d329d60171ba608d0","6617fad957f7c6a12ea16e26","6622cff81174f5650254c297","image grid","q","","","","","Ontogenetic_Distractor_Threat_target","2500","ongrid","q","7","Ontogenetic","true","experimental"
"","null","html-keyboard-response","134","219403","0.0-11.0-2.14","auUl5RlOLV","6613642d329d60171ba608d0","6617fad957f7c6a12ea16e26","6622cff81174f5650254c297","
    <div id=""grid-container"">
        <!-- Grid items will be dynamically added here -->
    </div>    ","null","","","","","","","","","","","",""
"","null","html-keyboard-response","135","220128","0.0-11.0-0.15","auUl5RlOLV","6613642d329d60171ba608d0","6617fad957f7c6a12ea16e26","6622cff81174f5650254c297","fixation cross","null","","","","","","","","","","","",""
"","null","html-keyboard-response","136","222632","0.0-11.0-1.15","auUl5RlOLV","6613642d329d60171ba608d0","6617fad957f7c6a12ea16e26","6622cff81174f5650254c297","
        <div id=""grid-container"">
        <!-- Grid items will be dynamically added here -->
    </div>    ","null","","","","","","","","","","","",""
"","3416","html-keyboard-response","137","223549","0.0-11.0-2.15","auUl5RlOLV","6613642d329d60171ba608d0","6617fad957f7c6a12ea16e26","6622cff81174f5650254c297","mask grid","p","","","","","Ontogenetic_Distractor_Nonthreat_target","2500","onmask","p","5","Ontogenetic","true","experimental"
"","null","html-keyboard-response","138","224266","0.0-11.0-0.16","auUl5RlOLV","6613642d329d60171ba608d0","6617fad957f7c6a12ea16e26","6622cff81174f5650254c297","fixation cross","null","","","","","","","","","","","",""
"","1040","html-keyboard-response","139","225307","0.0-11.0-1.16","auUl5RlOLV","6613642d329d60171ba608d0","6617fad957f7c6a12ea16e26","6622cff81174f5650254c297","image grid","q","","","","","Ontogenetic_Distractor_Threat_target","2500","ongrid","q","1","Ontogenetic","true","experimental"
"","null","html-keyboard-response","140","225460","0.0-11.0-2.16","auUl5RlOLV","6613642d329d60171ba608d0","6617fad957f7c6a12ea16e26","6622cff81174f5650254c297","
    <div id=""grid-container"">
        <!-- Grid items will be dynamically added here -->
    </div>    ","null","","","","","","","","","","","",""
"","null","html-keyboard-response","141","226183","0.0-11.0-0.17","auUl5RlOLV","6613642d329d60171ba608d0","6617fad957f7c6a12ea16e26","6622cff81174f5650254c297","fixation cross","null","","","","","","","","","","","",""
"","2250","html-keyboard-response","142","228434","0.0-11.0-1.17","auUl5RlOLV","6613642d329d60171ba608d0","6617fad957f7c6a12ea16e26","6622cff81174f5650254c297","image grid","p","","","","","Ontogenetic_Distractor_Nonthreat_target","2500","ongrid","p","4","Ontogenetic","true","experimental"
"","null","html-keyboard-response","143","228596","0.0-11.0-2.17","auUl5RlOLV","6613642d329d60171ba608d0","6617fad957f7c6a12ea16e26","6622cff81174f5650254c297","
    <div id=""grid-container"">
        <!-- Grid items will be dynamically added here -->
    </div>    ","null","","","","","","","","","","","",""
"","null","html-keyboard-response","144","229306","0.0-11.0-0.18","auUl5RlOLV","6613642d329d60171ba608d0","6617fad957f7c6a12ea16e26","6622cff81174f5650254c297","fixation cross","null","","","","","","","","","","","",""
"","1091","html-keyboard-response","145","230398","0.0-11.0-1.18","auUl5RlOLV","6613642d329d60171ba608d0","6617fad957f7c6a12ea16e26","6622cff81174f5650254c297","image grid","q","","","","","Ontogenetic_Distractor_Threat_target","2500","ongrid","q","2","Ontogenetic","true","experimental"
"","null","html-keyboard-response","146","230549","0.0-11.0-2.18","auUl5RlOLV","6613642d329d60171ba608d0","6617fad957f7c6a12ea16e26","6622cff81174f5650254c297","
    <div id=""grid-container"">
        <!-- Grid items will be dynamically added here -->
    </div>    ","null","","","","","","","","","","","",""
"","null","html-keyboard-response","147","231273","0.0-11.0-0.19","auUl5RlOLV","6613642d329d60171ba608d0","6617fad957f7c6a12ea16e26","6622cff81174f5650254c297","fixation cross","null","","","","","","","","","","","",""
"","1048","html-keyboard-response","148","232322","0.0-11.0-1.19","auUl5RlOLV","6613642d329d60171ba608d0","6617fad957f7c6a12ea16e26","6622cff81174f5650254c297","image grid","q","","","","","Ontogenetic_Distractor_Threat_target","2500","ongrid","q","8","Ontogenetic","true","experimental"
"","null","html-keyboard-response","149","232484","0.0-11.0-2.19","auUl5RlOLV","6613642d329d60171ba608d0","6617fad957f7c6a12ea16e26","6622cff81174f5650254c297","
    <div id=""grid-container"">
        <!-- Grid items will be dynamically added here -->
    </div>    ","null","","","","","","","","","","","",""
"","null","html-keyboard-response","150","233209","0.0-11.0-0.20","auUl5RlOLV","6613642d329d60171ba608d0","6617fad957f7c6a12ea16e26","6622cff81174f5650254c297","fixation cross","null","","","","","","","","","","","",""
"","1016","html-keyboard-response","151","234225","0.0-11.0-1.20","auUl5RlOLV","6613642d329d60171ba608d0","6617fad957f7c6a12ea16e26","6622cff81174f5650254c297","image grid","q","","","","","Ontogenetic_Distractor_Threat_target","2500","ongrid","q","7","Ontogenetic","true","experimental"
"","null","html-keyboard-response","152","234385","0.0-11.0-2.20","auUl5RlOLV","6613642d329d60171ba608d0","6617fad957f7c6a12ea16e26","6622cff81174f5650254c297","
    <div id=""grid-container"">
        <!-- Grid items will be dynamically added here -->
    </div>    ","null","","","","","","","","","","","",""
"","null","html-keyboard-response","153","235109","0.0-11.0-0.21","auUl5RlOLV","6613642d329d60171ba608d0","6617fad957f7c6a12ea16e26","6622cff81174f5650254c297","fixation cross","null","","","","","","","","","","","",""
"","1225","html-keyboard-response","154","236334","0.0-11.0-1.21","auUl5RlOLV","6613642d329d60171ba608d0","6617fad957f7c6a12ea16e26","6622cff81174f5650254c297","image grid","p","","","","","Ontogenetic_Distractor_Nonthreat_target","2500","ongrid","p","3","Ontogenetic","true","experimental"
"","null","html-keyboard-response","155","236487","0.0-11.0-2.21","auUl5RlOLV","6613642d329d60171ba608d0","6617fad957f7c6a12ea16e26","6622cff81174f5650254c297","
    <div id=""grid-container"">
        <!-- Grid items will be dynamically added here -->
    </div>    ","null","","","","","","","","","","","",""
"","null","html-keyboard-response","156","237213","0.0-11.0-0.22","auUl5RlOLV","6613642d329d60171ba608d0","6617fad957f7c6a12ea16e26","6622cff81174f5650254c297","fixation cross","null","","","","","","","","","","","",""
"","1932","html-keyboard-response","157","239145","0.0-11.0-1.22","auUl5RlOLV","6613642d329d60171ba608d0","6617fad957f7c6a12ea16e26","6622cff81174f5650254c297","image grid","p","","","","","Ontogenetic_Distractor_Nonthreat_target","2500","ongrid","p","9","Ontogenetic","true","experimental"
"","null","html-keyboard-response","158","239308","0.0-11.0-2.22","auUl5RlOLV","6613642d329d60171ba608d0","6617fad957f7c6a12ea16e26","6622cff81174f5650254c297","
    <div id=""grid-container"">
        <!-- Grid items will be dynamically added here -->
    </div>    ","null","","","","","","","","","","","",""
"","null","html-keyboard-response","159","240033","0.0-11.0-0.23","auUl5RlOLV","6613642d329d60171ba608d0","6617fad957f7c6a12ea16e26","6622cff81174f5650254c297","fixation cross","null","","","","","","","","","","","",""
"","null","html-keyboard-response","160","242535","0.0-11.0-1.23","auUl5RlOLV","6613642d329d60171ba608d0","6617fad957f7c6a12ea16e26","6622cff81174f5650254c297","
        <div id=""grid-container"">
        <!-- Grid items will be dynamically added here -->
    </div>    ","null","","","","","","","","","","","",""
"","3303","html-keyboard-response","161","243338","0.0-11.0-2.23","auUl5RlOLV","6613642d329d60171ba608d0","6617fad957f7c6a12ea16e26","6622cff81174f5650254c297","mask grid","p","","","","","Ontogenetic_Distractor_notarget","2500","onmask"," ","4","Ontogenetic","false","experimental"
"","null","html-keyboard-response","162","244070","0.0-11.0-0.24","auUl5RlOLV","6613642d329d60171ba608d0","6617fad957f7c6a12ea16e26","6622cff81174f5650254c297","fixation cross","null","","","","","","","","","","","",""
"","2213","html-keyboard-response","163","246283","0.0-11.0-1.24","auUl5RlOLV","6613642d329d60171ba608d0","6617fad957f7c6a12ea16e26","6622cff81174f5650254c297","image grid","p","","","","","Ontogenetic_Distractor_Nonthreat_target","2500","ongrid","p","8","Ontogenetic","true","experimental"
"","null","html-keyboard-response","164","246447","0.0-11.0-2.24","auUl5RlOLV","6613642d329d60171ba608d0","6617fad957f7c6a12ea16e26","6622cff81174f5650254c297","
    <div id=""grid-container"">
        <!-- Grid items will be dynamically added here -->
    </div>    ","null","","","","","","","","","","","",""
"","null","html-keyboard-response","165","247161","0.0-11.0-0.25","auUl5RlOLV","6613642d329d60171ba608d0","6617fad957f7c6a12ea16e26","6622cff81174f5650254c297","fixation cross","null","","","","","","","","","","","",""
"","890","html-keyboard-response","166","248052","0.0-11.0-1.25","auUl5RlOLV","6613642d329d60171ba608d0","6617fad957f7c6a12ea16e26","6622cff81174f5650254c297","image grid","q","","","","","Ontogenetic_Distractor_Threat_target","2500","ongrid","q","5","Ontogenetic","true","experimental"
"","null","html-keyboard-response","167","248215","0.0-11.0-2.25","auUl5RlOLV","6613642d329d60171ba608d0","6617fad957f7c6a12ea16e26","6622cff81174f5650254c297","
    <div id=""grid-container"">
        <!-- Grid items will be dynamically added here -->
    </div>    ","null","","","","","","","","","","","",""
"","null","html-keyboard-response","168","248942","0.0-11.0-0.26","auUl5RlOLV","6613642d329d60171ba608d0","6617fad957f7c6a12ea16e26","6622cff81174f5650254c297","fixation cross","null","","","","","","","","","","","",""
"","2344","html-keyboard-response","169","251286","0.0-11.0-1.26","auUl5RlOLV","6613642d329d60171ba608d0","6617fad957f7c6a12ea16e26","6622cff81174f5650254c297","image grid"," ","","","","","Ontogenetic_Distractor_Nonthreat_target","2500","ongrid","p","5","Ontogenetic","false","experimental"
"","null","html-keyboard-response","170","251448","0.0-11.0-2.26","auUl5RlOLV","6613642d329d60171ba608d0","6617fad957f7c6a12ea16e26","6622cff81174f5650254c297","
    <div id=""grid-container"">
        <!-- Grid items will be dynamically added here -->
    </div>    ","null","","","","","","","","","","","",""
"","null","html-keyboard-response","171","252161","0.0-11.0-0.27","auUl5RlOLV","6613642d329d60171ba608d0","6617fad957f7c6a12ea16e26","6622cff81174f5650254c297","fixation cross","null","","","","","","","","","","","",""
"","null","html-keyboard-response","172","254664","0.0-11.0-1.27","auUl5RlOLV","6613642d329d60171ba608d0","6617fad957f7c6a12ea16e26","6622cff81174f5650254c297","
        <div id=""grid-container"">
        <!-- Grid items will be dynamically added here -->
    </div>    ","null","","","","","","","","","","","",""
"","2906","html-keyboard-response","173","255071","0.0-11.0-2.27","auUl5RlOLV","6613642d329d60171ba608d0","6617fad957f7c6a12ea16e26","6622cff81174f5650254c297","mask grid"," ","","","","","Ontogenetic_Distractor_notarget","2500","onmask"," ","8","Ontogenetic","true","experimental"
"","null","html-keyboard-response","174","255784","0.0-11.0-0.28","auUl5RlOLV","6613642d329d60171ba608d0","6617fad957f7c6a12ea16e26","6622cff81174f5650254c297","fixation cross","null","","","","","","","","","","","",""
"","1032","html-keyboard-response","175","256816","0.0-11.0-1.28","auUl5RlOLV","6613642d329d60171ba608d0","6617fad957f7c6a12ea16e26","6622cff81174f5650254c297","image grid","q","","","","","Ontogenetic_Distractor_Threat_target","2500","ongrid","q","8","Ontogenetic","true","experimental"
"","null","html-keyboard-response","176","256974","0.0-11.0-2.28","auUl5RlOLV","6613642d329d60171ba608d0","6617fad957f7c6a12ea16e26","6622cff81174f5650254c297","
    <div id=""grid-container"">
        <!-- Grid items will be dynamically added here -->
    </div>    ","null","","","","","","","","","","","",""
"","null","html-keyboard-response","177","257699","0.0-11.0-0.29","auUl5RlOLV","6613642d329d60171ba608d0","6617fad957f7c6a12ea16e26","6622cff81174f5650254c297","fixation cross","null","","","","","","","","","","","",""
"","1134","html-keyboard-response","178","258833","0.0-11.0-1.29","auUl5RlOLV","6613642d329d60171ba608d0","6617fad957f7c6a12ea16e26","6622cff81174f5650254c297","image grid","p","","","","","Ontogenetic_Distractor_Nonthreat_target","2500","ongrid","p","8","Ontogenetic","true","experimental"
"","null","html-keyboard-response","179","258993","0.0-11.0-2.29","auUl5RlOLV","6613642d329d60171ba608d0","6617fad957f7c6a12ea16e26","6622cff81174f5650254c297","
    <div id=""grid-container"">
        <!-- Grid items will be dynamically added here -->
    </div>    ","null","","","","","","","","","","","",""
"","null","html-keyboard-response","180","259719","0.0-11.0-0.30","auUl5RlOLV","6613642d329d60171ba608d0","6617fad957f7c6a12ea16e26","6622cff81174f5650254c297","fixation cross","null","","","","","","","","","","","",""
"","1151","html-keyboard-response","181","260870","0.0-11.0-1.30","auUl5RlOLV","6613642d329d60171ba608d0","6617fad957f7c6a12ea16e26","6622cff81174f5650254c297","image grid","p","","","","","Ontogenetic_Distractor_Nonthreat_target","2500","ongrid","p","4","Ontogenetic","true","experimental"
"","null","html-keyboard-response","182","261029","0.0-11.0-2.30","auUl5RlOLV","6613642d329d60171ba608d0","6617fad957f7c6a12ea16e26","6622cff81174f5650254c297","
    <div id=""grid-container"">
        <!-- Grid items will be dynamically added here -->
    </div>    ","null","","","","","","","","","","","",""
"","null","html-keyboard-response","183","261754","0.0-11.0-0.31","auUl5RlOLV","6613642d329d60171ba608d0","6617fad957f7c6a12ea16e26","6622cff81174f5650254c297","fixation cross","null","","","","","","","","","","","",""
"","821","html-keyboard-response","184","262575","0.0-11.0-1.31","auUl5RlOLV","6613642d329d60171ba608d0","6617fad957f7c6a12ea16e26","6622cff81174f5650254c297","image grid","p","","","","","Ontogenetic_Distractor_Nonthreat_target","2500","ongrid","p","5","Ontogenetic","true","experimental"
"","null","html-keyboard-response","185","262730","0.0-11.0-2.31","auUl5RlOLV","6613642d329d60171ba608d0","6617fad957f7c6a12ea16e26","6622cff81174f5650254c297","
    <div id=""grid-container"">
        <!-- Grid items will be dynamically added here -->
    </div>    ","null","","","","","","","","","","","",""
"","null","html-keyboard-response","186","263456","0.0-11.0-0.32","auUl5RlOLV","6613642d329d60171ba608d0","6617fad957f7c6a12ea16e26","6622cff81174f5650254c297","fixation cross","null","","","","","","","","","","","",""
"","935","html-keyboard-response","187","264391","0.0-11.0-1.32","auUl5RlOLV","6613642d329d60171ba608d0","6617fad957f7c6a12ea16e26","6622cff81174f5650254c297","image grid","p","","","","","Ontogenetic_Distractor_Nonthreat_target","2500","ongrid","p","2","Ontogenetic","true","experimental"
"","null","html-keyboard-response","188","264548","0.0-11.0-2.32","auUl5RlOLV","6613642d329d60171ba608d0","6617fad957f7c6a12ea16e26","6622cff81174f5650254c297","
    <div id=""grid-container"">
        <!-- Grid items will be dynamically added here -->
    </div>    ","null","","","","","","","","","","","",""
"","null","html-keyboard-response","189","265274","0.0-11.0-0.33","auUl5RlOLV","6613642d329d60171ba608d0","6617fad957f7c6a12ea16e26","6622cff81174f5650254c297","fixation cross","null","","","","","","","","","","","",""
"","945","html-keyboard-response","190","266220","0.0-11.0-1.33","auUl5RlOLV","6613642d329d60171ba608d0","6617fad957f7c6a12ea16e26","6622cff81174f5650254c297","image grid","p","","","","","Ontogenetic_Distractor_Nonthreat_target","2500","ongrid","p","4","Ontogenetic","true","experimental"
"","null","html-keyboard-response","191","266384","0.0-11.0-2.33","auUl5RlOLV","6613642d329d60171ba608d0","6617fad957f7c6a12ea16e26","6622cff81174f5650254c297","
    <div id=""grid-container"">
        <!-- Grid items will be dynamically added here -->
    </div>    ","null","","","","","","","","","","","",""
"","null","html-keyboard-response","192","267108","0.0-11.0-0.34","auUl5RlOLV","6613642d329d60171ba608d0","6617fad957f7c6a12ea16e26","6622cff81174f5650254c297","fixation cross","null","","","","","","","","","","","",""
"","1031","html-keyboard-response","193","268139","0.0-11.0-1.34","auUl5RlOLV","6613642d329d60171ba608d0","6617fad957f7c6a12ea16e26","6622cff81174f5650254c297","image grid","q","","","","","Ontogenetic_Distractor_Threat_target","2500","ongrid","q","2","Ontogenetic","true","experimental"
"","null","html-keyboard-response","194","268303","0.0-11.0-2.34","auUl5RlOLV","6613642d329d60171ba608d0","6617fad957f7c6a12ea16e26","6622cff81174f5650254c297","
    <div id=""grid-container"">
        <!-- Grid items will be dynamically added here -->
    </div>    ","null","","","","","","","","","","","",""
"","null","html-keyboard-response","195","269028","0.0-11.0-0.35","auUl5RlOLV","6613642d329d60171ba608d0","6617fad957f7c6a12ea16e26","6622cff81174f5650254c297","fixation cross","null","","","","","","","","","","","",""
"","1370","html-keyboard-response","196","270398","0.0-11.0-1.35","auUl5RlOLV","6613642d329d60171ba608d0","6617fad957f7c6a12ea16e26","6622cff81174f5650254c297","image grid","p","","","","","Ontogenetic_Distractor_Nonthreat_target","2500","ongrid","p","1","Ontogenetic","true","experimental"
"","null","html-keyboard-response","197","270555","0.0-11.0-2.35","auUl5RlOLV","6613642d329d60171ba608d0","6617fad957f7c6a12ea16e26","6622cff81174f5650254c297","
    <div id=""grid-container"">
        <!-- Grid items will be dynamically added here -->
    </div>    ","null","","","","","","","","","","","",""
"","null","html-keyboard-response","198","271280","0.0-11.0-0.36","auUl5RlOLV","6613642d329d60171ba608d0","6617fad957f7c6a12ea16e26","6622cff81174f5650254c297","fixation cross","null","","","","","","","","","","","",""
"","1001","html-keyboard-response","199","272282","0.0-11.0-1.36","auUl5RlOLV","6613642d329d60171ba608d0","6617fad957f7c6a12ea16e26","6622cff81174f5650254c297","image grid","p","","","","","Ontogenetic_Distractor_Nonthreat_target","2500","ongrid","p","3","Ontogenetic","true","experimental"
"","null","html-keyboard-response","200","272441","0.0-11.0-2.36","auUl5RlOLV","6613642d329d60171ba608d0","6617fad957f7c6a12ea16e26","6622cff81174f5650254c297","
    <div id=""grid-container"">
        <!-- Grid items will be dynamically added here -->
    </div>    ","null","","","","","","","","","","","",""
"","null","html-keyboard-response","201","273151","0.0-11.0-0.37","auUl5RlOLV","6613642d329d60171ba608d0","6617fad957f7c6a12ea16e26","6622cff81174f5650254c297","fixation cross","null","","","","","","","","","","","",""
"","850","html-keyboard-response","202","274001","0.0-11.0-1.37","auUl5RlOLV","6613642d329d60171ba608d0","6617fad957f7c6a12ea16e26","6622cff81174f5650254c297","image grid","q","","","","","Ontogenetic_Distractor_Threat_target","2500","ongrid","q","3","Ontogenetic","true","experimental"
"","null","html-keyboard-response","203","274158","0.0-11.0-2.37","auUl5RlOLV","6613642d329d60171ba608d0","6617fad957f7c6a12ea16e26","6622cff81174f5650254c297","
    <div id=""grid-container"">
        <!-- Grid items will be dynamically added here -->
    </div>    ","null","","","","","","","","","","","",""
"","null","html-keyboard-response","204","274884","0.0-11.0-0.38","auUl5RlOLV","6613642d329d60171ba608d0","6617fad957f7c6a12ea16e26","6622cff81174f5650254c297","fixation cross","null","","","","","","","","","","","",""
"","null","html-keyboard-response","205","277395","0.0-11.0-1.38","auUl5RlOLV","6613642d329d60171ba608d0","6617fad957f7c6a12ea16e26","6622cff81174f5650254c297","
        <div id=""grid-container"">
        <!-- Grid items will be dynamically added here -->
    </div>    ","null","","","","","","","","","","","",""
"","2642","html-keyboard-response","206","277538","0.0-11.0-2.38","auUl5RlOLV","6613642d329d60171ba608d0","6617fad957f7c6a12ea16e26","6622cff81174f5650254c297","mask grid","p","","","","","Ontogenetic_Distractor_Nonthreat_target","2500","onmask","p","5","Ontogenetic","true","experimental"
"","null","html-keyboard-response","207","278250","0.0-11.0-0.39","auUl5RlOLV","6613642d329d60171ba608d0","6617fad957f7c6a12ea16e26","6622cff81174f5650254c297","fixation cross","null","","","","","","","","","","","",""
"","1950","html-keyboard-response","208","280199","0.0-11.0-1.39","auUl5RlOLV","6613642d329d60171ba608d0","6617fad957f7c6a12ea16e26","6622cff81174f5650254c297","image grid"," ","","","","","Ontogenetic_Distractor_notarget","2500","ongrid"," ","1","Ontogenetic","true","experimental"
"","null","html-keyboard-response","209","280365","0.0-11.0-2.39","auUl5RlOLV","6613642d329d60171ba608d0","6617fad957f7c6a12ea16e26","6622cff81174f5650254c297","
    <div id=""grid-container"">
        <!-- Grid items will be dynamically added here -->
    </div>    ","null","","","","","","","","","","","",""
"","5645","html-keyboard-response","210","286249","0.0-12.0","auUl5RlOLV","6613642d329d60171ba608d0","6617fad957f7c6a12ea16e26","6622cff81174f5650254c297","break screen"," ","","","","","","","","","","","",""
"","null","html-keyboard-response","211","288780","0.0-13.0-0.0","auUl5RlOLV","6613642d329d60171ba608d0","6617fad957f7c6a12ea16e26","6622cff81174f5650254c297","fixation cross","null","","","","","","","","","","","",""
"","2259","html-keyboard-response","212","291039","0.0-13.0-1.0","auUl5RlOLV","6613642d329d60171ba608d0","6617fad957f7c6a12ea16e26","6622cff81174f5650254c297","image grid","p","","","","","Phylogenetic_Distractor_Nonthreat_target","2500","ongrid","p","9","Phylogenetic","true","experimental"
"","null","html-keyboard-response","213","291193","0.0-13.0-2.0","auUl5RlOLV","6613642d329d60171ba608d0","6617fad957f7c6a12ea16e26","6622cff81174f5650254c297","
    <div id=""grid-container"">
        <!-- Grid items will be dynamically added here -->
    </div>    ","null","","","","","","","","","","","",""
"","null","html-keyboard-response","214","291918","0.0-13.0-0.1","auUl5RlOLV","6613642d329d60171ba608d0","6617fad957f7c6a12ea16e26","6622cff81174f5650254c297","fixation cross","null","","","","","","","","","","","",""
"","2138","html-keyboard-response","215","294057","0.0-13.0-1.1","auUl5RlOLV","6613642d329d60171ba608d0","6617fad957f7c6a12ea16e26","6622cff81174f5650254c297","image grid","p","","","","","Phylogenetic_Distractor_Nonthreat_target","2500","ongrid","p","3","Phylogenetic","true","experimental"
"","null","html-keyboard-response","216","294213","0.0-13.0-2.1","auUl5RlOLV","6613642d329d60171ba608d0","6617fad957f7c6a12ea16e26","6622cff81174f5650254c297","
    <div id=""grid-container"">
        <!-- Grid items will be dynamically added here -->
    </div>    ","null","","","","","","","","","","","",""
"","null","html-keyboard-response","217","294937","0.0-13.0-0.2","auUl5RlOLV","6613642d329d60171ba608d0","6617fad957f7c6a12ea16e26","6622cff81174f5650254c297","fixation cross","null","","","","","","","","","","","",""
"","1482","html-keyboard-response","218","296419","0.0-13.0-1.2","auUl5RlOLV","6613642d329d60171ba608d0","6617fad957f7c6a12ea16e26","6622cff81174f5650254c297","image grid","p","","","","","Phylogenetic_Distractor_Nonthreat_target","2500","ongrid","p","1","Phylogenetic","true","experimental"
"","null","html-keyboard-response","219","296582","0.0-13.0-2.2","auUl5RlOLV","6613642d329d60171ba608d0","6617fad957f7c6a12ea16e26","6622cff81174f5650254c297","
    <div id=""grid-container"">
        <!-- Grid items will be dynamically added here -->
    </div>    ","null","","","","","","","","","","","",""
"","null","html-keyboard-response","220","297308","0.0-13.0-0.3","auUl5RlOLV","6613642d329d60171ba608d0","6617fad957f7c6a12ea16e26","6622cff81174f5650254c297","fixation cross","null","","","","","","","","","","","",""
"","1407","html-keyboard-response","221","298715","0.0-13.0-1.3","auUl5RlOLV","6613642d329d60171ba608d0","6617fad957f7c6a12ea16e26","6622cff81174f5650254c297","image grid"," ","","","","","Phylogenetic_Distractor_notarget","2500","ongrid"," ","6","Phylogenetic","true","experimental"
"","null","html-keyboard-response","222","298867","0.0-13.0-2.3","auUl5RlOLV","6613642d329d60171ba608d0","6617fad957f7c6a12ea16e26","6622cff81174f5650254c297","
    <div id=""grid-container"">
        <!-- Grid items will be dynamically added here -->
    </div>    ","null","","","","","","","","","","","",""
"","null","html-keyboard-response","223","299593","0.0-13.0-0.4","auUl5RlOLV","6613642d329d60171ba608d0","6617fad957f7c6a12ea16e26","6622cff81174f5650254c297","fixation cross","null","","","","","","","","","","","",""
"","1989","html-keyboard-response","224","301582","0.0-13.0-1.4","auUl5RlOLV","6613642d329d60171ba608d0","6617fad957f7c6a12ea16e26","6622cff81174f5650254c297","image grid","p","","","","","Phylogenetic_Distractor_Threat_target","2500","ongrid","q","3","Phylogenetic","false","experimental"
"","null","html-keyboard-response","225","301736","0.0-13.0-2.4","auUl5RlOLV","6613642d329d60171ba608d0","6617fad957f7c6a12ea16e26","6622cff81174f5650254c297","
    <div id=""grid-container"">
        <!-- Grid items will be dynamically added here -->
    </div>    ","null","","","","","","","","","","","",""
"","null","html-keyboard-response","226","302462","0.0-13.0-0.5","auUl5RlOLV","6613642d329d60171ba608d0","6617fad957f7c6a12ea16e26","6622cff81174f5650254c297","fixation cross","null","","","","","","","","","","","",""
"","1276","html-keyboard-response","227","303731","0.0-13.0-1.5","auUl5RlOLV","6613642d329d60171ba608d0","6617fad957f7c6a12ea16e26","6622cff81174f5650254c297","image grid","p","","","","","Phylogenetic_Distractor_Threat_target","2500","ongrid","q","9","Phylogenetic","false","experimental"
"","null","html-keyboard-response","228","303882","0.0-13.0-2.5","auUl5RlOLV","6613642d329d60171ba608d0","6617fad957f7c6a12ea16e26","6622cff81174f5650254c297","
    <div id=""grid-container"">
        <!-- Grid items will be dynamically added here -->
    </div>    ","null","","","","","","","","","","","",""
"","null","html-keyboard-response","229","304607","0.0-13.0-0.6","auUl5RlOLV","6613642d329d60171ba608d0","6617fad957f7c6a12ea16e26","6622cff81174f5650254c297","fixation cross","null","","","","","","","","","","","",""
"","1277","html-keyboard-response","230","305885","0.0-13.0-1.6","auUl5RlOLV","6613642d329d60171ba608d0","6617fad957f7c6a12ea16e26","6622cff81174f5650254c297","image grid","p","","","","","Phylogenetic_Distractor_Nonthreat_target","2500","ongrid","p","7","Phylogenetic","true","experimental"
"","null","html-keyboard-response","231","306035","0.0-13.0-2.6","auUl5RlOLV","6613642d329d60171ba608d0","6617fad957f7c6a12ea16e26","6622cff81174f5650254c297","
    <div id=""grid-container"">
        <!-- Grid items will be dynamically added here -->
    </div>    ","null","","","","","","","","","","","",""
"","null","html-keyboard-response","232","306757","0.0-13.0-0.7","auUl5RlOLV","6613642d329d60171ba608d0","6617fad957f7c6a12ea16e26","6622cff81174f5650254c297","fixation cross","null","","","","","","","","","","","",""
"","null","html-keyboard-response","233","309262","0.0-13.0-1.7","auUl5RlOLV","6613642d329d60171ba608d0","6617fad957f7c6a12ea16e26","6622cff81174f5650254c297","
        <div id=""grid-container"">
        <!-- Grid items will be dynamically added here -->
    </div>    ","null","","","","","","","","","","","",""
"","2690","html-keyboard-response","234","309453","0.0-13.0-2.7","auUl5RlOLV","6613642d329d60171ba608d0","6617fad957f7c6a12ea16e26","6622cff81174f5650254c297","mask grid"," ","","","","","Phylogenetic_Distractor_notarget","2500","onmask"," ","4","Phylogenetic","true","experimental"
"","null","html-keyboard-response","235","310177","0.0-13.0-0.8","auUl5RlOLV","6613642d329d60171ba608d0","6617fad957f7c6a12ea16e26","6622cff81174f5650254c297","fixation cross","null","","","","","","","","","","","",""
"","null","html-keyboard-response","236","312686","0.0-13.0-1.8","auUl5RlOLV","6613642d329d60171ba608d0","6617fad957f7c6a12ea16e26","6622cff81174f5650254c297","
        <div id=""grid-container"">
        <!-- Grid items will be dynamically added here -->
    </div>    ","null","","","","","","","","","","","",""
"","2985","html-keyboard-response","237","313172","0.0-13.0-2.8","auUl5RlOLV","6613642d329d60171ba608d0","6617fad957f7c6a12ea16e26","6622cff81174f5650254c297","mask grid","p","","","","","Phylogenetic_Distractor_Nonthreat_target","2500","onmask","p","4","Phylogenetic","true","experimental"
"","null","html-keyboard-response","238","313899","0.0-13.0-0.9","auUl5RlOLV","6613642d329d60171ba608d0","6617fad957f7c6a12ea16e26","6622cff81174f5650254c297","fixation cross","null","","","","","","","","","","","",""
"","1013","html-keyboard-response","239","314912","0.0-13.0-1.9","auUl5RlOLV","6613642d329d60171ba608d0","6617fad957f7c6a12ea16e26","6622cff81174f5650254c297","image grid","p","","","","","Phylogenetic_Distractor_Nonthreat_target","2500","ongrid","p","4","Phylogenetic","true","experimental"
"","null","html-keyboard-response","240","315075","0.0-13.0-2.9","auUl5RlOLV","6613642d329d60171ba608d0","6617fad957f7c6a12ea16e26","6622cff81174f5650254c297","
    <div id=""grid-container"">
        <!-- Grid items will be dynamically added here -->
    </div>    ","null","","","","","","","","","","","",""
"","null","html-keyboard-response","241","315801","0.0-13.0-0.10","auUl5RlOLV","6613642d329d60171ba608d0","6617fad957f7c6a12ea16e26","6622cff81174f5650254c297","fixation cross","null","","","","","","","","","","","",""
"","1662","html-keyboard-response","242","317464","0.0-13.0-1.10","auUl5RlOLV","6613642d329d60171ba608d0","6617fad957f7c6a12ea16e26","6622cff81174f5650254c297","image grid"," ","","","","","Phylogenetic_Distractor_notarget","2500","ongrid"," ","7","Phylogenetic","true","experimental"
"","null","html-keyboard-response","243","317629","0.0-13.0-2.10","auUl5RlOLV","6613642d329d60171ba608d0","6617fad957f7c6a12ea16e26","6622cff81174f5650254c297","
    <div id=""grid-container"">
        <!-- Grid items will be dynamically added here -->
    </div>    ","null","","","","","","","","","","","",""
"","null","html-keyboard-response","244","318354","0.0-13.0-0.11","auUl5RlOLV","6613642d329d60171ba608d0","6617fad957f7c6a12ea16e26","6622cff81174f5650254c297","fixation cross","null","","","","","","","","","","","",""
"","1350","html-keyboard-response","245","319705","0.0-13.0-1.11","auUl5RlOLV","6613642d329d60171ba608d0","6617fad957f7c6a12ea16e26","6622cff81174f5650254c297","image grid","p","","","","","Phylogenetic_Distractor_Threat_target","2500","ongrid","q","2","Phylogenetic","false","experimental"
"","null","html-keyboard-response","246","319865","0.0-13.0-2.11","auUl5RlOLV","6613642d329d60171ba608d0","6617fad957f7c6a12ea16e26","6622cff81174f5650254c297","
    <div id=""grid-container"">
        <!-- Grid items will be dynamically added here -->
    </div>    ","null","","","","","","","","","","","",""
"","null","html-keyboard-response","247","320589","0.0-13.0-0.12","auUl5RlOLV","6613642d329d60171ba608d0","6617fad957f7c6a12ea16e26","6622cff81174f5650254c297","fixation cross","null","","","","","","","","","","","",""
"","985","html-keyboard-response","248","321576","0.0-13.0-1.12","auUl5RlOLV","6613642d329d60171ba608d0","6617fad957f7c6a12ea16e26","6622cff81174f5650254c297","image grid","q","","","","","Phylogenetic_Distractor_Threat_target","2500","ongrid","q","7","Phylogenetic","true","experimental"
"","null","html-keyboard-response","249","321734","0.0-13.0-2.12","auUl5RlOLV","6613642d329d60171ba608d0","6617fad957f7c6a12ea16e26","6622cff81174f5650254c297","
    <div id=""grid-container"">
        <!-- Grid items will be dynamically added here -->
    </div>    ","null","","","","","","","","","","","",""
"","null","html-keyboard-response","250","322458","0.0-13.0-0.13","auUl5RlOLV","6613642d329d60171ba608d0","6617fad957f7c6a12ea16e26","6622cff81174f5650254c297","fixation cross","null","","","","","","","","","","","",""
"","821","html-keyboard-response","251","323280","0.0-13.0-1.13","auUl5RlOLV","6613642d329d60171ba608d0","6617fad957f7c6a12ea16e26","6622cff81174f5650254c297","image grid","q","","","","","Phylogenetic_Distractor_Threat_target","2500","ongrid","q","4","Phylogenetic","true","experimental"
"","null","html-keyboard-response","252","323435","0.0-13.0-2.13","auUl5RlOLV","6613642d329d60171ba608d0","6617fad957f7c6a12ea16e26","6622cff81174f5650254c297","
    <div id=""grid-container"">
        <!-- Grid items will be dynamically added here -->
    </div>    ","null","","","","","","","","","","","",""
"","null","html-keyboard-response","253","324160","0.0-13.0-0.14","auUl5RlOLV","6613642d329d60171ba608d0","6617fad957f7c6a12ea16e26","6622cff81174f5650254c297","fixation cross","null","","","","","","","","","","","",""
"","1898","html-keyboard-response","254","326058","0.0-13.0-1.14","auUl5RlOLV","6613642d329d60171ba608d0","6617fad957f7c6a12ea16e26","6622cff81174f5650254c297","image grid","p","","","","","Phylogenetic_Distractor_Nonthreat_target","2500","ongrid","p","5","Phylogenetic","true","experimental"
"","null","html-keyboard-response","255","326221","0.0-13.0-2.14","auUl5RlOLV","6613642d329d60171ba608d0","6617fad957f7c6a12ea16e26","6622cff81174f5650254c297","
    <div id=""grid-container"">
        <!-- Grid items will be dynamically added here -->
    </div>    ","null","","","","","","","","","","","",""
"","null","html-keyboard-response","256","326947","0.0-13.0-0.15","auUl5RlOLV","6613642d329d60171ba608d0","6617fad957f7c6a12ea16e26","6622cff81174f5650254c297","fixation cross","null","","","","","","","","","","","",""
"","877","html-keyboard-response","257","327825","0.0-13.0-1.15","auUl5RlOLV","6613642d329d60171ba608d0","6617fad957f7c6a12ea16e26","6622cff81174f5650254c297","image grid","q","","","","","Phylogenetic_Distractor_Threat_target","2500","ongrid","q","8","Phylogenetic","true","experimental"
"","null","html-keyboard-response","258","327988","0.0-13.0-2.15","auUl5RlOLV","6613642d329d60171ba608d0","6617fad957f7c6a12ea16e26","6622cff81174f5650254c297","
    <div id=""grid-container"">
        <!-- Grid items will be dynamically added here -->
    </div>    ","null","","","","","","","","","","","",""
"","null","html-keyboard-response","259","328714","0.0-13.0-0.16","auUl5RlOLV","6613642d329d60171ba608d0","6617fad957f7c6a12ea16e26","6622cff81174f5650254c297","fixation cross","null","","","","","","","","","","","",""
"","1328","html-keyboard-response","260","330043","0.0-13.0-1.16","auUl5RlOLV","6613642d329d60171ba608d0","6617fad957f7c6a12ea16e26","6622cff81174f5650254c297","image grid","q","","","","","Phylogenetic_Distractor_Threat_target","2500","ongrid","q","3","Phylogenetic","true","experimental"
"","null","html-keyboard-response","261","330209","0.0-13.0-2.16","auUl5RlOLV","6613642d329d60171ba608d0","6617fad957f7c6a12ea16e26","6622cff81174f5650254c297","
    <div id=""grid-container"">
        <!-- Grid items will be dynamically added here -->
    </div>    ","null","","","","","","","","","","","",""
"","null","html-keyboard-response","262","330933","0.0-13.0-0.17","auUl5RlOLV","6613642d329d60171ba608d0","6617fad957f7c6a12ea16e26","6622cff81174f5650254c297","fixation cross","null","","","","","","","","","","","",""
"","1036","html-keyboard-response","263","331970","0.0-13.0-1.17","auUl5RlOLV","6613642d329d60171ba608d0","6617fad957f7c6a12ea16e26","6622cff81174f5650254c297","image grid","q","","","","","Phylogenetic_Distractor_Threat_target","2500","ongrid","q","7","Phylogenetic","true","experimental"
"","null","html-keyboard-response","264","332125","0.0-13.0-2.17","auUl5RlOLV","6613642d329d60171ba608d0","6617fad957f7c6a12ea16e26","6622cff81174f5650254c297","
    <div id=""grid-container"">
        <!-- Grid items will be dynamically added here -->
    </div>    ","null","","","","","","","","","","","",""
"","null","html-keyboard-response","265","332852","0.0-13.0-0.18","auUl5RlOLV","6613642d329d60171ba608d0","6617fad957f7c6a12ea16e26","6622cff81174f5650254c297","fixation cross","null","","","","","","","","","","","",""
"","794","html-keyboard-response","266","333647","0.0-13.0-1.18","auUl5RlOLV","6613642d329d60171ba608d0","6617fad957f7c6a12ea16e26","6622cff81174f5650254c297","image grid","q","","","","","Phylogenetic_Distractor_Threat_target","2500","ongrid","q","7","Phylogenetic","true","experimental"
"","null","html-keyboard-response","267","333813","0.0-13.0-2.18","auUl5RlOLV","6613642d329d60171ba608d0","6617fad957f7c6a12ea16e26","6622cff81174f5650254c297","
    <div id=""grid-container"">
        <!-- Grid items will be dynamically added here -->
    </div>    ","null","","","","","","","","","","","",""
"","null","html-keyboard-response","268","334537","0.0-13.0-0.19","auUl5RlOLV","6613642d329d60171ba608d0","6617fad957f7c6a12ea16e26","6622cff81174f5650254c297","fixation cross","null","","","","","","","","","","","",""
"","935","html-keyboard-response","269","335472","0.0-13.0-1.19","auUl5RlOLV","6613642d329d60171ba608d0","6617fad957f7c6a12ea16e26","6622cff81174f5650254c297","image grid","q","","","","","Phylogenetic_Distractor_Threat_target","2500","ongrid","q","4","Phylogenetic","true","experimental"
"","null","html-keyboard-response","270","335628","0.0-13.0-2.19","auUl5RlOLV","6613642d329d60171ba608d0","6617fad957f7c6a12ea16e26","6622cff81174f5650254c297","
    <div id=""grid-container"">
        <!-- Grid items will be dynamically added here -->
    </div>    ","null","","","","","","","","","","","",""
"","null","html-keyboard-response","271","336341","0.0-13.0-0.20","auUl5RlOLV","6613642d329d60171ba608d0","6617fad957f7c6a12ea16e26","6622cff81174f5650254c297","fixation cross","null","","","","","","","","","","","",""
"","783","html-keyboard-response","272","337125","0.0-13.0-1.20","auUl5RlOLV","6613642d329d60171ba608d0","6617fad957f7c6a12ea16e26","6622cff81174f5650254c297","image grid","q","","","","","Phylogenetic_Distractor_Threat_target","2500","ongrid","q","1","Phylogenetic","true","experimental"
"","null","html-keyboard-response","273","337282","0.0-13.0-2.20","auUl5RlOLV","6613642d329d60171ba608d0","6617fad957f7c6a12ea16e26","6622cff81174f5650254c297","
    <div id=""grid-container"">
        <!-- Grid items will be dynamically added here -->
    </div>    ","null","","","","","","","","","","","",""
"","null","html-keyboard-response","274","338005","0.0-13.0-0.21","auUl5RlOLV","6613642d329d60171ba608d0","6617fad957f7c6a12ea16e26","6622cff81174f5650254c297","fixation cross","null","","","","","","","","","","","",""
"","2373","html-keyboard-response","275","340378","0.0-13.0-1.21","auUl5RlOLV","6613642d329d60171ba608d0","6617fad957f7c6a12ea16e26","6622cff81174f5650254c297","image grid","p","","","","","Phylogenetic_Distractor_Nonthreat_target","2500","ongrid","p","3","Phylogenetic","true","experimental"
"","null","html-keyboard-response","276","340535","0.0-13.0-2.21","auUl5RlOLV","6613642d329d60171ba608d0","6617fad957f7c6a12ea16e26","6622cff81174f5650254c297","
    <div id=""grid-container"">
        <!-- Grid items will be dynamically added here -->
    </div>    ","null","","","","","","","","","","","",""
"","null","html-keyboard-response","277","341261","0.0-13.0-0.22","auUl5RlOLV","6613642d329d60171ba608d0","6617fad957f7c6a12ea16e26","6622cff81174f5650254c297","fixation cross","null","","","","","","","","","","","",""
"","744","html-keyboard-response","278","342005","0.0-13.0-1.22","auUl5RlOLV","6613642d329d60171ba608d0","6617fad957f7c6a12ea16e26","6622cff81174f5650254c297","image grid","p","","","","","Phylogenetic_Distractor_Nonthreat_target","2500","ongrid","p","4","Phylogenetic","true","experimental"
"","null","html-keyboard-response","279","342171","0.0-13.0-2.22","auUl5RlOLV","6613642d329d60171ba608d0","6617fad957f7c6a12ea16e26","6622cff81174f5650254c297","
    <div id=""grid-container"">
        <!-- Grid items will be dynamically added here -->
    </div>    ","null","","","","","","","","","","","",""
"","null","html-keyboard-response","280","342896","0.0-13.0-0.23","auUl5RlOLV","6613642d329d60171ba608d0","6617fad957f7c6a12ea16e26","6622cff81174f5650254c297","fixation cross","null","","","","","","","","","","","",""
"","914","html-keyboard-response","281","343811","0.0-13.0-1.23","auUl5RlOLV","6613642d329d60171ba608d0","6617fad957f7c6a12ea16e26","6622cff81174f5650254c297","image grid","q","","","","","Phylogenetic_Distractor_Threat_target","2500","ongrid","q","8","Phylogenetic","true","experimental"
"","null","html-keyboard-response","282","343970","0.0-13.0-2.23","auUl5RlOLV","6613642d329d60171ba608d0","6617fad957f7c6a12ea16e26","6622cff81174f5650254c297","
    <div id=""grid-container"">
        <!-- Grid items will be dynamically added here -->
    </div>    ","null","","","","","","","","","","","",""
"","null","html-keyboard-response","283","344699","0.0-13.0-0.24","auUl5RlOLV","6613642d329d60171ba608d0","6617fad957f7c6a12ea16e26","6622cff81174f5650254c297","fixation cross","null","","","","","","","","","","","",""
"","1725","html-keyboard-response","284","346425","0.0-13.0-1.24","auUl5RlOLV","6613642d329d60171ba608d0","6617fad957f7c6a12ea16e26","6622cff81174f5650254c297","image grid","q","","","","","Phylogenetic_Distractor_Nonthreat_target","2500","ongrid","p","2","Phylogenetic","false","experimental"
"","null","html-keyboard-response","285","346591","0.0-13.0-2.24","auUl5RlOLV","6613642d329d60171ba608d0","6617fad957f7c6a12ea16e26","6622cff81174f5650254c297","
    <div id=""grid-container"">
        <!-- Grid items will be dynamically added here -->
    </div>    ","null","","","","","","","","","","","",""
"","null","html-keyboard-response","286","347315","0.0-13.0-0.25","auUl5RlOLV","6613642d329d60171ba608d0","6617fad957f7c6a12ea16e26","6622cff81174f5650254c297","fixation cross","null","","","","","","","","","","","",""
"","1641","html-keyboard-response","287","348957","0.0-13.0-1.25","auUl5RlOLV","6613642d329d60171ba608d0","6617fad957f7c6a12ea16e26","6622cff81174f5650254c297","image grid","p","","","","","Phylogenetic_Distractor_Nonthreat_target","2500","ongrid","p","9","Phylogenetic","true","experimental"
"","null","html-keyboard-response","288","349112","0.0-13.0-2.25","auUl5RlOLV","6613642d329d60171ba608d0","6617fad957f7c6a12ea16e26","6622cff81174f5650254c297","
    <div id=""grid-container"">
        <!-- Grid items will be dynamically added here -->
    </div>    ","null","","","","","","","","","","","",""
"","null","html-keyboard-response","289","349836","0.0-13.0-0.26","auUl5RlOLV","6613642d329d60171ba608d0","6617fad957f7c6a12ea16e26","6622cff81174f5650254c297","fixation cross","null","","","","","","","","","","","",""
"","1110","html-keyboard-response","290","350946","0.0-13.0-1.26","auUl5RlOLV","6613642d329d60171ba608d0","6617fad957f7c6a12ea16e26","6622cff81174f5650254c297","image grid","p","","","","","Phylogenetic_Distractor_Nonthreat_target","2500","ongrid","p","9","Phylogenetic","true","experimental"
"","null","html-keyboard-response","291","351112","0.0-13.0-2.26","auUl5RlOLV","6613642d329d60171ba608d0","6617fad957f7c6a12ea16e26","6622cff81174f5650254c297","
    <div id=""grid-container"">
        <!-- Grid items will be dynamically added here -->
    </div>    ","null","","","","","","","","","","","",""
"","null","html-keyboard-response","292","351837","0.0-13.0-0.27","auUl5RlOLV","6613642d329d60171ba608d0","6617fad957f7c6a12ea16e26","6622cff81174f5650254c297","fixation cross","null","","","","","","","","","","","",""
"","1396","html-keyboard-response","293","353233","0.0-13.0-1.27","auUl5RlOLV","6613642d329d60171ba608d0","6617fad957f7c6a12ea16e26","6622cff81174f5650254c297","image grid","p","","","","","Phylogenetic_Distractor_Nonthreat_target","2500","ongrid","p","7","Phylogenetic","true","experimental"
"","null","html-keyboard-response","294","353398","0.0-13.0-2.27","auUl5RlOLV","6613642d329d60171ba608d0","6617fad957f7c6a12ea16e26","6622cff81174f5650254c297","
    <div id=""grid-container"">
        <!-- Grid items will be dynamically added here -->
    </div>    ","null","","","","","","","","","","","",""
"","null","html-keyboard-response","295","354124","0.0-13.0-0.28","auUl5RlOLV","6613642d329d60171ba608d0","6617fad957f7c6a12ea16e26","6622cff81174f5650254c297","fixation cross","null","","","","","","","","","","","",""
"","1239","html-keyboard-response","296","355363","0.0-13.0-1.28","auUl5RlOLV","6613642d329d60171ba608d0","6617fad957f7c6a12ea16e26","6622cff81174f5650254c297","image grid","q","","","","","Phylogenetic_Distractor_Nonthreat_target","2500","ongrid","p","7","Phylogenetic","false","experimental"
"","null","html-keyboard-response","297","355518","0.0-13.0-2.28","auUl5RlOLV","6613642d329d60171ba608d0","6617fad957f7c6a12ea16e26","6622cff81174f5650254c297","
    <div id=""grid-container"">
        <!-- Grid items will be dynamically added here -->
    </div>    ","null","","","","","","","","","","","",""
"","null","html-keyboard-response","298","356243","0.0-13.0-0.29","auUl5RlOLV","6613642d329d60171ba608d0","6617fad957f7c6a12ea16e26","6622cff81174f5650254c297","fixation cross","null","","","","","","","","","","","",""
"","1873","html-keyboard-response","299","358116","0.0-13.0-1.29","auUl5RlOLV","6613642d329d60171ba608d0","6617fad957f7c6a12ea16e26","6622cff81174f5650254c297","image grid","p","","","","","Phylogenetic_Distractor_Nonthreat_target","2500","ongrid","p","6","Phylogenetic","true","experimental"
"","null","html-keyboard-response","300","358270","0.0-13.0-2.29","auUl5RlOLV","6613642d329d60171ba608d0","6617fad957f7c6a12ea16e26","6622cff81174f5650254c297","
    <div id=""grid-container"">
        <!-- Grid items will be dynamically added here -->
    </div>    ","null","","","","","","","","","","","",""
"","null","html-keyboard-response","301","358981","0.0-13.0-0.30","auUl5RlOLV","6613642d329d60171ba608d0","6617fad957f7c6a12ea16e26","6622cff81174f5650254c297","fixation cross","null","","","","","","","","","","","",""
"","1470","html-keyboard-response","302","360451","0.0-13.0-1.30","auUl5RlOLV","6613642d329d60171ba608d0","6617fad957f7c6a12ea16e26","6622cff81174f5650254c297","image grid","q","","","","","Phylogenetic_Distractor_Nonthreat_target","2500","ongrid","p","6","Phylogenetic","false","experimental"
"","null","html-keyboard-response","303","360607","0.0-13.0-2.30","auUl5RlOLV","6613642d329d60171ba608d0","6617fad957f7c6a12ea16e26","6622cff81174f5650254c297","
    <div id=""grid-container"">
        <!-- Grid items will be dynamically added here -->
    </div>    ","null","","","","","","","","","","","",""
"","null","html-keyboard-response","304","361331","0.0-13.0-0.31","auUl5RlOLV","6613642d329d60171ba608d0","6617fad957f7c6a12ea16e26","6622cff81174f5650254c297","fixation cross","null","","","","","","","","","","","",""
"","1065","html-keyboard-response","305","362397","0.0-13.0-1.31","auUl5RlOLV","6613642d329d60171ba608d0","6617fad957f7c6a12ea16e26","6622cff81174f5650254c297","image grid","q","","","","","Phylogenetic_Distractor_Threat_target","2500","ongrid","q","6","Phylogenetic","true","experimental"
"","null","html-keyboard-response","306","362550","0.0-13.0-2.31","auUl5RlOLV","6613642d329d60171ba608d0","6617fad957f7c6a12ea16e26","6622cff81174f5650254c297","
    <div id=""grid-container"">
        <!-- Grid items will be dynamically added here -->
    </div>    ","null","","","","","","","","","","","",""
"","null","html-keyboard-response","307","363265","0.0-13.0-0.32","auUl5RlOLV","6613642d329d60171ba608d0","6617fad957f7c6a12ea16e26","6622cff81174f5650254c297","fixation cross","null","","","","","","","","","","","",""
"","1897","html-keyboard-response","308","365168","0.0-13.0-1.32","auUl5RlOLV","6613642d329d60171ba608d0","6617fad957f7c6a12ea16e26","6622cff81174f5650254c297","image grid"," ","","","","","Phylogenetic_Distractor_notarget","2500","ongrid"," ","2","Phylogenetic","true","experimental"
"","null","html-keyboard-response","309","365324","0.0-13.0-2.32","auUl5RlOLV","6613642d329d60171ba608d0","6617fad957f7c6a12ea16e26","6622cff81174f5650254c297","
    <div id=""grid-container"">
        <!-- Grid items will be dynamically added here -->
    </div>    ","null","","","","","","","","","","","",""
"","null","html-keyboard-response","310","366039","0.0-13.0-0.33","auUl5RlOLV","6613642d329d60171ba608d0","6617fad957f7c6a12ea16e26","6622cff81174f5650254c297","fixation cross","null","","","","","","","","","","","",""
"","2324","html-keyboard-response","311","368364","0.0-13.0-1.33","auUl5RlOLV","6613642d329d60171ba608d0","6617fad957f7c6a12ea16e26","6622cff81174f5650254c297","image grid","q","","","","","Phylogenetic_Distractor_Threat_target","2500","ongrid","q","5","Phylogenetic","true","experimental"
"","null","html-keyboard-response","312","368520","0.0-13.0-2.33","auUl5RlOLV","6613642d329d60171ba608d0","6617fad957f7c6a12ea16e26","6622cff81174f5650254c297","
    <div id=""grid-container"">
        <!-- Grid items will be dynamically added here -->
    </div>    ","null","","","","","","","","","","","",""
"","null","html-keyboard-response","313","369246","0.0-13.0-0.34","auUl5RlOLV","6613642d329d60171ba608d0","6617fad957f7c6a12ea16e26","6622cff81174f5650254c297","fixation cross","null","","","","","","","","","","","",""
"","847","html-keyboard-response","314","370093","0.0-13.0-1.34","auUl5RlOLV","6613642d329d60171ba608d0","6617fad957f7c6a12ea16e26","6622cff81174f5650254c297","image grid","q","","","","","Phylogenetic_Distractor_Threat_target","2500","ongrid","q","8","Phylogenetic","true","experimental"
"","null","html-keyboard-response","315","370255","0.0-13.0-2.34","auUl5RlOLV","6613642d329d60171ba608d0","6617fad957f7c6a12ea16e26","6622cff81174f5650254c297","
    <div id=""grid-container"">
        <!-- Grid items will be dynamically added here -->
    </div>    ","null","","","","","","","","","","","",""
"","null","html-keyboard-response","316","370979","0.0-13.0-0.35","auUl5RlOLV","6613642d329d60171ba608d0","6617fad957f7c6a12ea16e26","6622cff81174f5650254c297","fixation cross","null","","","","","","","","","","","",""
"","1273","html-keyboard-response","317","372253","0.0-13.0-1.35","auUl5RlOLV","6613642d329d60171ba608d0","6617fad957f7c6a12ea16e26","6622cff81174f5650254c297","image grid","q","","","","","Phylogenetic_Distractor_Nonthreat_target","2500","ongrid","p","1","Phylogenetic","false","experimental"
"","null","html-keyboard-response","318","372406","0.0-13.0-2.35","auUl5RlOLV","6613642d329d60171ba608d0","6617fad957f7c6a12ea16e26","6622cff81174f5650254c297","
    <div id=""grid-container"">
        <!-- Grid items will be dynamically added here -->
    </div>    ","null","","","","","","","","","","","",""
"","null","html-keyboard-response","319","373132","0.0-13.0-0.36","auUl5RlOLV","6613642d329d60171ba608d0","6617fad957f7c6a12ea16e26","6622cff81174f5650254c297","fixation cross","null","","","","","","","","","","","",""
"","852","html-keyboard-response","320","373985","0.0-13.0-1.36","auUl5RlOLV","6613642d329d60171ba608d0","6617fad957f7c6a12ea16e26","6622cff81174f5650254c297","image grid","q","","","","","Phylogenetic_Distractor_Threat_target","2500","ongrid","q","8","Phylogenetic","true","experimental"
"","null","html-keyboard-response","321","374144","0.0-13.0-2.36","auUl5RlOLV","6613642d329d60171ba608d0","6617fad957f7c6a12ea16e26","6622cff81174f5650254c297","
    <div id=""grid-container"">
        <!-- Grid items will be dynamically added here -->
    </div>    ","null","","","","","","","","","","","",""
"","null","html-keyboard-response","322","374854","0.0-13.0-0.37","auUl5RlOLV","6613642d329d60171ba608d0","6617fad957f7c6a12ea16e26","6622cff81174f5650254c297","fixation cross","null","","","","","","","","","","","",""
"","1018","html-keyboard-response","323","375872","0.0-13.0-1.37","auUl5RlOLV","6613642d329d60171ba608d0","6617fad957f7c6a12ea16e26","6622cff81174f5650254c297","image grid","p","","","","","Phylogenetic_Distractor_Nonthreat_target","2500","ongrid","p","4","Phylogenetic","true","experimental"
"","null","html-keyboard-response","324","376028","0.0-13.0-2.37","auUl5RlOLV","6613642d329d60171ba608d0","6617fad957f7c6a12ea16e26","6622cff81174f5650254c297","
    <div id=""grid-container"">
        <!-- Grid items will be dynamically added here -->
    </div>    ","null","","","","","","","","","","","",""
"","null","html-keyboard-response","325","376753","0.0-13.0-0.38","auUl5RlOLV","6613642d329d60171ba608d0","6617fad957f7c6a12ea16e26","6622cff81174f5650254c297","fixation cross","null","","","","","","","","","","","",""
"","790","html-keyboard-response","326","377543","0.0-13.0-1.38","auUl5RlOLV","6613642d329d60171ba608d0","6617fad957f7c6a12ea16e26","6622cff81174f5650254c297","image grid","q","","","","","Phylogenetic_Distractor_Threat_target","2500","ongrid","q","5","Phylogenetic","true","experimental"
"","null","html-keyboard-response","327","377697","0.0-13.0-2.38","auUl5RlOLV","6613642d329d60171ba608d0","6617fad957f7c6a12ea16e26","6622cff81174f5650254c297","
    <div id=""grid-container"">
        <!-- Grid items will be dynamically added here -->
    </div>    ","null","","","","","","","","","","","",""
"","null","html-keyboard-response","328","378421","0.0-13.0-0.39","auUl5RlOLV","6613642d329d60171ba608d0","6617fad957f7c6a12ea16e26","6622cff81174f5650254c297","fixation cross","null","","","","","","","","","","","",""
"","1344","html-keyboard-response","329","379765","0.0-13.0-1.39","auUl5RlOLV","6613642d329d60171ba608d0","6617fad957f7c6a12ea16e26","6622cff81174f5650254c297","image grid","q","","","","","Phylogenetic_Distractor_Threat_target","2500","ongrid","q","9","Phylogenetic","true","experimental"
"","null","html-keyboard-response","330","379931","0.0-13.0-2.39","auUl5RlOLV","6613642d329d60171ba608d0","6617fad957f7c6a12ea16e26","6622cff81174f5650254c297","
    <div id=""grid-container"">
        <!-- Grid items will be dynamically added here -->
    </div>    ","null","","","","","","","","","","","",""
"","4410","html-keyboard-response","331","384554","0.0-14.0","auUl5RlOLV","6613642d329d60171ba608d0","6617fad957f7c6a12ea16e26","6622cff81174f5650254c297","break screen"," ","","","","","","","","","","","",""
"","null","html-keyboard-response","332","387064","0.0-15.0-0.0","auUl5RlOLV","6613642d329d60171ba608d0","6617fad957f7c6a12ea16e26","6622cff81174f5650254c297","fixation cross","null","","","","","","","","","","","",""
"","null","html-keyboard-response","333","387878","0.0-15.0-1.0","auUl5RlOLV","6613642d329d60171ba608d0","6617fad957f7c6a12ea16e26","6622cff81174f5650254c297","
        <div id=""grid-container"">
        <!-- Grid items will be dynamically added here -->
    </div>    ","null","","","","","","","","","","","",""
"","1875","html-keyboard-response","334","388953","0.0-15.0-2.0","auUl5RlOLV","6613642d329d60171ba608d0","6617fad957f7c6a12ea16e26","6622cff81174f5650254c297","mask grid","p","","","","","Ontogenetic_Distractor_Nonthreat_target","800","onmask","p","7","Ontogenetic","true","experimental"
"","null","html-keyboard-response","335","389668","0.0-15.0-0.1","auUl5RlOLV","6613642d329d60171ba608d0","6617fad957f7c6a12ea16e26","6622cff81174f5650254c297","fixation cross","null","","","","","","","","","","","",""
"","null","html-keyboard-response","336","390482","0.0-15.0-1.1","auUl5RlOLV","6613642d329d60171ba608d0","6617fad957f7c6a12ea16e26","6622cff81174f5650254c297","
        <div id=""grid-container"">
        <!-- Grid items will be dynamically added here -->
    </div>    ","null","","","","","","","","","","","",""
"","865","html-keyboard-response","337","390547","0.0-15.0-2.1","auUl5RlOLV","6613642d329d60171ba608d0","6617fad957f7c6a12ea16e26","6622cff81174f5650254c297","mask grid","p","","","","","Ontogenetic_Distractor_Nonthreat_target","800","onmask","p","5","Ontogenetic","true","experimental"
"","null","html-keyboard-response","338","391267","0.0-15.0-0.2","auUl5RlOLV","6613642d329d60171ba608d0","6617fad957f7c6a12ea16e26","6622cff81174f5650254c297","fixation cross","null","","","","","","","","","","","",""
"","null","html-keyboard-response","339","392083","0.0-15.0-1.2","auUl5RlOLV","6613642d329d60171ba608d0","6617fad957f7c6a12ea16e26","6622cff81174f5650254c297","
        <div id=""grid-container"">
        <!-- Grid items will be dynamically added here -->
    </div>    ","null","","","","","","","","","","","",""
"","822","html-keyboard-response","340","392105","0.0-15.0-2.2","auUl5RlOLV","6613642d329d60171ba608d0","6617fad957f7c6a12ea16e26","6622cff81174f5650254c297","mask grid","p","","","","","Ontogenetic_Distractor_Nonthreat_target","800","onmask","p","1","Ontogenetic","true","experimental"
"","null","html-keyboard-response","341","392836","0.0-15.0-0.3","auUl5RlOLV","6613642d329d60171ba608d0","6617fad957f7c6a12ea16e26","6622cff81174f5650254c297","fixation cross","null","","","","","","","","","","","",""
"","null","html-keyboard-response","342","393650","0.0-15.0-1.3","auUl5RlOLV","6613642d329d60171ba608d0","6617fad957f7c6a12ea16e26","6622cff81174f5650254c297","
        <div id=""grid-container"">
        <!-- Grid items will be dynamically added here -->
    </div>    ","null","","","","","","","","","","","",""
"","809","html-keyboard-response","343","393660","0.0-15.0-2.3","auUl5RlOLV","6613642d329d60171ba608d0","6617fad957f7c6a12ea16e26","6622cff81174f5650254c297","mask grid","p","","","","","Ontogenetic_Distractor_Nonthreat_target","800","onmask","p","3","Ontogenetic","true","experimental"
"","null","html-keyboard-response","344","394385","0.0-15.0-0.4","auUl5RlOLV","6613642d329d60171ba608d0","6617fad957f7c6a12ea16e26","6622cff81174f5650254c297","fixation cross","null","","","","","","","","","","","",""
"","null","html-keyboard-response","345","395187","0.0-15.0-1.4","auUl5RlOLV","6613642d329d60171ba608d0","6617fad957f7c6a12ea16e26","6622cff81174f5650254c297","
        <div id=""grid-container"">
        <!-- Grid items will be dynamically added here -->
    </div>    ","null","","","","","","","","","","","",""
"","1235","html-keyboard-response","346","395623","0.0-15.0-2.4","auUl5RlOLV","6613642d329d60171ba608d0","6617fad957f7c6a12ea16e26","6622cff81174f5650254c297","mask grid","p","","","","","Ontogenetic_Distractor_Nonthreat_target","800","onmask","p","3","Ontogenetic","true","experimental"
"","null","html-keyboard-response","347","396325","0.0-15.0-0.5","auUl5RlOLV","6613642d329d60171ba608d0","6617fad957f7c6a12ea16e26","6622cff81174f5650254c297","fixation cross","null","","","","","","","","","","","",""
"","null","html-keyboard-response","348","397137","0.0-15.0-1.5","auUl5RlOLV","6613642d329d60171ba608d0","6617fad957f7c6a12ea16e26","6622cff81174f5650254c297","
        <div id=""grid-container"">
        <!-- Grid items will be dynamically added here -->
    </div>    ","null","","","","","","","","","","","",""
"","843","html-keyboard-response","349","397181","0.0-15.0-2.5","auUl5RlOLV","6613642d329d60171ba608d0","6617fad957f7c6a12ea16e26","6622cff81174f5650254c297","mask grid","q","","","","","Ontogenetic_Distractor_Threat_target","800","onmask","q","6","Ontogenetic","true","experimental"
"","null","html-keyboard-response","350","397906","0.0-15.0-0.6","auUl5RlOLV","6613642d329d60171ba608d0","6617fad957f7c6a12ea16e26","6622cff81174f5650254c297","fixation cross","null","","","","","","","","","","","",""
"","null","html-keyboard-response","351","398711","0.0-15.0-1.6","auUl5RlOLV","6613642d329d60171ba608d0","6617fad957f7c6a12ea16e26","6622cff81174f5650254c297","
        <div id=""grid-container"">
        <!-- Grid items will be dynamically added here -->
    </div>    ","null","","","","","","","","","","","",""
"","1557","html-keyboard-response","352","399469","0.0-15.0-2.6","auUl5RlOLV","6613642d329d60171ba608d0","6617fad957f7c6a12ea16e26","6622cff81174f5650254c297","mask grid","p","","","","","Ontogenetic_Distractor_Threat_target","800","onmask","q","4","Ontogenetic","false","experimental"
"","null","html-keyboard-response","353","400194","0.0-15.0-0.7","auUl5RlOLV","6613642d329d60171ba608d0","6617fad957f7c6a12ea16e26","6622cff81174f5650254c297","fixation cross","null","","","","","","","","","","","",""
"","null","html-keyboard-response","354","400996","0.0-15.0-1.7","auUl5RlOLV","6613642d329d60171ba608d0","6617fad957f7c6a12ea16e26","6622cff81174f5650254c297","
        <div id=""grid-container"">
        <!-- Grid items will be dynamically added here -->
    </div>    ","null","","","","","","","","","","","",""
"","958","html-keyboard-response","355","401155","0.0-15.0-2.7","auUl5RlOLV","6613642d329d60171ba608d0","6617fad957f7c6a12ea16e26","6622cff81174f5650254c297","mask grid","q","","","","","Ontogenetic_Distractor_Threat_target","800","onmask","q","6","Ontogenetic","true","experimental"
"","null","html-keyboard-response","356","401878","0.0-15.0-0.8","auUl5RlOLV","6613642d329d60171ba608d0","6617fad957f7c6a12ea16e26","6622cff81174f5650254c297","fixation cross","null","","","","","","","","","","","",""
"","758","html-keyboard-response","357","402637","0.0-15.0-1.8","auUl5RlOLV","6613642d329d60171ba608d0","6617fad957f7c6a12ea16e26","6622cff81174f5650254c297","image grid","q","","","","","Ontogenetic_Distractor_Threat_target","800","ongrid","q","8","Ontogenetic","true","experimental"
"","null","html-keyboard-response","358","402803","0.0-15.0-2.8","auUl5RlOLV","6613642d329d60171ba608d0","6617fad957f7c6a12ea16e26","6622cff81174f5650254c297","
    <div id=""grid-container"">
        <!-- Grid items will be dynamically added here -->
    </div>    ","null","","","","","","","","","","","",""
"","null","html-keyboard-response","359","403528","0.0-15.0-0.9","auUl5RlOLV","6613642d329d60171ba608d0","6617fad957f7c6a12ea16e26","6622cff81174f5650254c297","fixation cross","null","","","","","","","","","","","",""
"","810","html-keyboard-response","360","404339","0.0-15.0-1.9","auUl5RlOLV","6613642d329d60171ba608d0","6617fad957f7c6a12ea16e26","6622cff81174f5650254c297","image grid","p","","","","","Ontogenetic_Distractor_Nonthreat_target","800","ongrid","p","4","Ontogenetic","true","experimental"
"","null","html-keyboard-response","361","404505","0.0-15.0-2.9","auUl5RlOLV","6613642d329d60171ba608d0","6617fad957f7c6a12ea16e26","6622cff81174f5650254c297","
    <div id=""grid-container"">
        <!-- Grid items will be dynamically added here -->
    </div>    ","null","","","","","","","","","","","",""
"","null","html-keyboard-response","362","405216","0.0-15.0-0.10","auUl5RlOLV","6613642d329d60171ba608d0","6617fad957f7c6a12ea16e26","6622cff81174f5650254c297","fixation cross","null","","","","","","","","","","","",""
"","null","html-keyboard-response","363","406020","0.0-15.0-1.10","auUl5RlOLV","6613642d329d60171ba608d0","6617fad957f7c6a12ea16e26","6622cff81174f5650254c297","
        <div id=""grid-container"">
        <!-- Grid items will be dynamically added here -->
    </div>    ","null","","","","","","","","","","","",""
"","1351","html-keyboard-response","364","406571","0.0-15.0-2.10","auUl5RlOLV","6613642d329d60171ba608d0","6617fad957f7c6a12ea16e26","6622cff81174f5650254c297","mask grid","p","","","","","Ontogenetic_Distractor_Nonthreat_target","800","onmask","p","3","Ontogenetic","true","experimental"
"","null","html-keyboard-response","365","407299","0.0-15.0-0.11","auUl5RlOLV","6613642d329d60171ba608d0","6617fad957f7c6a12ea16e26","6622cff81174f5650254c297","fixation cross","null","","","","","","","","","","","",""
"","null","html-keyboard-response","366","408104","0.0-15.0-1.11","auUl5RlOLV","6613642d329d60171ba608d0","6617fad957f7c6a12ea16e26","6622cff81174f5650254c297","
        <div id=""grid-container"">
        <!-- Grid items will be dynamically added here -->
    </div>    ","null","","","","","","","","","","","",""
"","946","html-keyboard-response","367","408250","0.0-15.0-2.11","auUl5RlOLV","6613642d329d60171ba608d0","6617fad957f7c6a12ea16e26","6622cff81174f5650254c297","mask grid","p","","","","","Ontogenetic_Distractor_Threat_target","800","onmask","q","9","Ontogenetic","false","experimental"
"","null","html-keyboard-response","368","408968","0.0-15.0-0.12","auUl5RlOLV","6613642d329d60171ba608d0","6617fad957f7c6a12ea16e26","6622cff81174f5650254c297","fixation cross","null","","","","","","","","","","","",""
"","null","html-keyboard-response","369","409771","0.0-15.0-1.12","auUl5RlOLV","6613642d329d60171ba608d0","6617fad957f7c6a12ea16e26","6622cff81174f5650254c297","
        <div id=""grid-container"">
        <!-- Grid items will be dynamically added here -->
    </div>    ","null","","","","","","","","","","","",""
