"success","rt","trial_type","trial_index","time_elapsed","internal_node_id","unique_identifier","subject_id","study_id","session_id","stimulus","response","timeout","failed_images","failed_audio","failed_video","task","time_manipulation","respondedwhen","correctresponse","targetimagelocation","blocktype","correct","roundtype"
"true","2286","fullscreen","0","3296","0.0-0.0","nWAJPKxfo5","6440ff579347d8f75783b52d","6617fad957f7c6a12ea16e26","6622c96509a8e4ba50166617","","","","","","","","","","","","","",""
"","7192","html-keyboard-response","1","10491","0.0-1.0","nWAJPKxfo5","6440ff579347d8f75783b52d","6617fad957f7c6a12ea16e26","6622c96509a8e4ba50166617","instruction screen 0","4","","","","","","","","","","","",""
"true","","preload","2","12972","0.0-2.0","nWAJPKxfo5","6440ff579347d8f75783b52d","6617fad957f7c6a12ea16e26","6622c96509a8e4ba50166617","","","false","[]","[]","[]","","","","","","","",""
"","7191","html-keyboard-response","3","20164","0.0-3.0","nWAJPKxfo5","6440ff579347d8f75783b52d","6617fad957f7c6a12ea16e26","6622c96509a8e4ba50166617","instruction screen 1","4","","","","","","","","","","","",""
"","5683","html-keyboard-response","4","25850","0.0-4.0","nWAJPKxfo5","6440ff579347d8f75783b52d","6617fad957f7c6a12ea16e26","6622c96509a8e4ba50166617","instruction screen 2","q","","","","","","","","","","","",""
"","6046","html-keyboard-response","5","31900","0.0-5.0","nWAJPKxfo5","6440ff579347d8f75783b52d","6617fad957f7c6a12ea16e26","6622c96509a8e4ba50166617","instruction screen 3","p","","","","","","","","","","","",""
"","6803","html-keyboard-response","6","38706","0.0-6.0","nWAJPKxfo5","6440ff579347d8f75783b52d","6617fad957f7c6a12ea16e26","6622c96509a8e4ba50166617","instruction screen 4"," ","","","","","","","","","","","",""
"","13363","html-keyboard-response","7","52072","0.0-7.0","nWAJPKxfo5","6440ff579347d8f75783b52d","6617fad957f7c6a12ea16e26","6622c96509a8e4ba50166617","instruction screen 5"," ","","","","","","","","","","","",""
"","null","html-keyboard-response","8","52589","0.0-8.0","nWAJPKxfo5","6440ff579347d8f75783b52d","6617fad957f7c6a12ea16e26","6622c96509a8e4ba50166617","fixation cross","null","","","","","","","","","","","",""
"","null","html-keyboard-response","9","53104","0.0-9.0-0.0","nWAJPKxfo5","6440ff579347d8f75783b52d","6617fad957f7c6a12ea16e26","6622c96509a8e4ba50166617","fixation cross","null","","","","","","","","","","","",""
"","2264","html-keyboard-response","10","55369","0.0-9.0-1.0","nWAJPKxfo5","6440ff579347d8f75783b52d","6617fad957f7c6a12ea16e26","6622c96509a8e4ba50166617","image grid"," ","","","","","Phylogenetic_Distractor_Nonthreat_target","3000","ongrid","p","2","Ontogenetic","false","practice"
"","null","html-keyboard-response","11","55532","0.0-9.0-2.0","nWAJPKxfo5","6440ff579347d8f75783b52d","6617fad957f7c6a12ea16e26","6622c96509a8e4ba50166617","
    <div id=""grid-container"">
        <!-- Grid items will be dynamically added here -->
    </div>    ","null","","","","","","","","","","","",""
"","null","html-keyboard-response","12","56745","0.0-9.0-3.0","nWAJPKxfo5","6440ff579347d8f75783b52d","6617fad957f7c6a12ea16e26","6622c96509a8e4ba50166617","feedback screen","null","","","","","","","","","","","",""
"","null","html-keyboard-response","13","57251","0.0-9.0-0.1","nWAJPKxfo5","6440ff579347d8f75783b52d","6617fad957f7c6a12ea16e26","6622c96509a8e4ba50166617","fixation cross","null","","","","","","","","","","","",""
"","1293","html-keyboard-response","14","58545","0.0-9.0-1.1","nWAJPKxfo5","6440ff579347d8f75783b52d","6617fad957f7c6a12ea16e26","6622c96509a8e4ba50166617","image grid","q","","","","","Phylogenetic_Distractor_Threat_target","2900","ongrid","q","5","Ontogenetic","true","practice"
"","null","html-keyboard-response","15","58711","0.0-9.0-2.1","nWAJPKxfo5","6440ff579347d8f75783b52d","6617fad957f7c6a12ea16e26","6622c96509a8e4ba50166617","
    <div id=""grid-container"">
        <!-- Grid items will be dynamically added here -->
    </div>    ","null","","","","","","","","","","","",""
"","null","html-keyboard-response","16","59930","0.0-9.0-3.1","nWAJPKxfo5","6440ff579347d8f75783b52d","6617fad957f7c6a12ea16e26","6622c96509a8e4ba50166617","feedback screen","null","","","","","","","","","","","",""
"","null","html-keyboard-response","17","60448","0.0-9.0-0.2","nWAJPKxfo5","6440ff579347d8f75783b52d","6617fad957f7c6a12ea16e26","6622c96509a8e4ba50166617","fixation cross","null","","","","","","","","","","","",""
"","1493","html-keyboard-response","18","61941","0.0-9.0-1.2","nWAJPKxfo5","6440ff579347d8f75783b52d","6617fad957f7c6a12ea16e26","6622c96509a8e4ba50166617","image grid","q","","","","","Phylogenetic_Distractor_Threat_target","2800","ongrid","q","5","Ontogenetic","true","practice"
"","null","html-keyboard-response","19","62094","0.0-9.0-2.2","nWAJPKxfo5","6440ff579347d8f75783b52d","6617fad957f7c6a12ea16e26","6622c96509a8e4ba50166617","
    <div id=""grid-container"">
        <!-- Grid items will be dynamically added here -->
    </div>    ","null","","","","","","","","","","","",""
"","null","html-keyboard-response","20","63313","0.0-9.0-3.2","nWAJPKxfo5","6440ff579347d8f75783b52d","6617fad957f7c6a12ea16e26","6622c96509a8e4ba50166617","feedback screen","null","","","","","","","","","","","",""
"","null","html-keyboard-response","21","63827","0.0-9.0-0.3","nWAJPKxfo5","6440ff579347d8f75783b52d","6617fad957f7c6a12ea16e26","6622c96509a8e4ba50166617","fixation cross","null","","","","","","","","","","","",""
"","1223","html-keyboard-response","22","65050","0.0-9.0-1.3","nWAJPKxfo5","6440ff579347d8f75783b52d","6617fad957f7c6a12ea16e26","6622c96509a8e4ba50166617","image grid","q","","","","","Phylogenetic_Distractor_Threat_target","2700","ongrid","q","6","Ontogenetic","true","practice"
"","null","html-keyboard-response","23","65202","0.0-9.0-2.3","nWAJPKxfo5","6440ff579347d8f75783b52d","6617fad957f7c6a12ea16e26","6622c96509a8e4ba50166617","
    <div id=""grid-container"">
        <!-- Grid items will be dynamically added here -->
    </div>    ","null","","","","","","","","","","","",""
"","null","html-keyboard-response","24","66411","0.0-9.0-3.3","nWAJPKxfo5","6440ff579347d8f75783b52d","6617fad957f7c6a12ea16e26","6622c96509a8e4ba50166617","feedback screen","null","","","","","","","","","","","",""
"","null","html-keyboard-response","25","66919","0.0-9.0-0.4","nWAJPKxfo5","6440ff579347d8f75783b52d","6617fad957f7c6a12ea16e26","6622c96509a8e4ba50166617","fixation cross","null","","","","","","","","","","","",""
"","1982","html-keyboard-response","26","68901","0.0-9.0-1.4","nWAJPKxfo5","6440ff579347d8f75783b52d","6617fad957f7c6a12ea16e26","6622c96509a8e4ba50166617","image grid","q","","","","","Ontogenetic_Distractor_Threat_target","2600","ongrid","q","4","Ontogenetic","true","practice"
"","null","html-keyboard-response","27","69057","0.0-9.0-2.4","nWAJPKxfo5","6440ff579347d8f75783b52d","6617fad957f7c6a12ea16e26","6622c96509a8e4ba50166617","
    <div id=""grid-container"">
        <!-- Grid items will be dynamically added here -->
    </div>    ","null","","","","","","","","","","","",""
"","null","html-keyboard-response","28","70267","0.0-9.0-3.4","nWAJPKxfo5","6440ff579347d8f75783b52d","6617fad957f7c6a12ea16e26","6622c96509a8e4ba50166617","feedback screen","null","","","","","","","","","","","",""
"","null","html-keyboard-response","29","70771","0.0-9.0-0.5","nWAJPKxfo5","6440ff579347d8f75783b52d","6617fad957f7c6a12ea16e26","6622c96509a8e4ba50166617","fixation cross","null","","","","","","","","","","","",""
"","2353","html-keyboard-response","30","73125","0.0-9.0-1.5","nWAJPKxfo5","6440ff579347d8f75783b52d","6617fad957f7c6a12ea16e26","6622c96509a8e4ba50166617","image grid","p","","","","","Phylogenetic_Distractor_Nonthreat_target","2500","ongrid","p","7","Ontogenetic","true","practice"
"","null","html-keyboard-response","31","73286","0.0-9.0-2.5","nWAJPKxfo5","6440ff579347d8f75783b52d","6617fad957f7c6a12ea16e26","6622c96509a8e4ba50166617","
    <div id=""grid-container"">
        <!-- Grid items will be dynamically added here -->
    </div>    ","null","","","","","","","","","","","",""
"","null","html-keyboard-response","32","74491","0.0-9.0-3.5","nWAJPKxfo5","6440ff579347d8f75783b52d","6617fad957f7c6a12ea16e26","6622c96509a8e4ba50166617","feedback screen","null","","","","","","","","","","","",""
"","null","html-keyboard-response","33","75008","0.0-9.0-0.6","nWAJPKxfo5","6440ff579347d8f75783b52d","6617fad957f7c6a12ea16e26","6622c96509a8e4ba50166617","fixation cross","null","","","","","","","","","","","",""
"","null","html-keyboard-response","34","77413","0.0-9.0-1.6","nWAJPKxfo5","6440ff579347d8f75783b52d","6617fad957f7c6a12ea16e26","6622c96509a8e4ba50166617","
        <div id=""grid-container"">
        <!-- Grid items will be dynamically added here -->
    </div>    ","null","","","","","","","","","","","",""
"","2491","html-keyboard-response","35","77504","0.0-9.0-2.6","nWAJPKxfo5","6440ff579347d8f75783b52d","6617fad957f7c6a12ea16e26","6622c96509a8e4ba50166617","mask grid"," ","","","","","Phylogenetic_Distractor_Nonthreat_target","2400","onmask","p","7","Ontogenetic","false","practice"
"","null","html-keyboard-response","36","78715","0.0-9.0-3.6","nWAJPKxfo5","6440ff579347d8f75783b52d","6617fad957f7c6a12ea16e26","6622c96509a8e4ba50166617","feedback screen","null","","","","","","","","","","","",""
"","null","html-keyboard-response","37","79225","0.0-9.0-0.7","nWAJPKxfo5","6440ff579347d8f75783b52d","6617fad957f7c6a12ea16e26","6622c96509a8e4ba50166617","fixation cross","null","","","","","","","","","","","",""
"","1759","html-keyboard-response","38","80984","0.0-9.0-1.7","nWAJPKxfo5","6440ff579347d8f75783b52d","6617fad957f7c6a12ea16e26","6622c96509a8e4ba50166617","image grid","p","","","","","Ontogenetic_Distractor_Nonthreat_target","2300","ongrid","p","6","Ontogenetic","true","practice"
"","null","html-keyboard-response","39","81137","0.0-9.0-2.7","nWAJPKxfo5","6440ff579347d8f75783b52d","6617fad957f7c6a12ea16e26","6622c96509a8e4ba50166617","
    <div id=""grid-container"">
        <!-- Grid items will be dynamically added here -->
    </div>    ","null","","","","","","","","","","","",""
"","null","html-keyboard-response","40","82361","0.0-9.0-3.7","nWAJPKxfo5","6440ff579347d8f75783b52d","6617fad957f7c6a12ea16e26","6622c96509a8e4ba50166617","feedback screen","null","","","","","","","","","","","",""
"","null","html-keyboard-response","41","82869","0.0-9.0-0.8","nWAJPKxfo5","6440ff579347d8f75783b52d","6617fad957f7c6a12ea16e26","6622c96509a8e4ba50166617","fixation cross","null","","","","","","","","","","","",""
"","1940","html-keyboard-response","42","84809","0.0-9.0-1.8","nWAJPKxfo5","6440ff579347d8f75783b52d","6617fad957f7c6a12ea16e26","6622c96509a8e4ba50166617","image grid","q","","","","","Phylogenetic_Distractor_Threat_target","2200","ongrid","q","4","Ontogenetic","true","practice"
"","null","html-keyboard-response","43","84969","0.0-9.0-2.8","nWAJPKxfo5","6440ff579347d8f75783b52d","6617fad957f7c6a12ea16e26","6622c96509a8e4ba50166617","
    <div id=""grid-container"">
        <!-- Grid items will be dynamically added here -->
    </div>    ","null","","","","","","","","","","","",""
"","null","html-keyboard-response","44","86189","0.0-9.0-3.8","nWAJPKxfo5","6440ff579347d8f75783b52d","6617fad957f7c6a12ea16e26","6622c96509a8e4ba50166617","feedback screen","null","","","","","","","","","","","",""
"","null","html-keyboard-response","45","86692","0.0-9.0-0.9","nWAJPKxfo5","6440ff579347d8f75783b52d","6617fad957f7c6a12ea16e26","6622c96509a8e4ba50166617","fixation cross","null","","","","","","","","","","","",""
"","1319","html-keyboard-response","46","88012","0.0-9.0-1.9","nWAJPKxfo5","6440ff579347d8f75783b52d","6617fad957f7c6a12ea16e26","6622c96509a8e4ba50166617","image grid","q","","","","","Ontogenetic_Distractor_Threat_target","2100","ongrid","q","9","Ontogenetic","true","practice"
"","null","html-keyboard-response","47","88172","0.0-9.0-2.9","nWAJPKxfo5","6440ff579347d8f75783b52d","6617fad957f7c6a12ea16e26","6622c96509a8e4ba50166617","
    <div id=""grid-container"">
        <!-- Grid items will be dynamically added here -->
    </div>    ","null","","","","","","","","","","","",""
"","null","html-keyboard-response","48","89382","0.0-9.0-3.9","nWAJPKxfo5","6440ff579347d8f75783b52d","6617fad957f7c6a12ea16e26","6622c96509a8e4ba50166617","feedback screen","null","","","","","","","","","","","",""
"","null","html-keyboard-response","49","89891","0.0-9.0-0.10","nWAJPKxfo5","6440ff579347d8f75783b52d","6617fad957f7c6a12ea16e26","6622c96509a8e4ba50166617","fixation cross","null","","","","","","","","","","","",""
"","null","html-keyboard-response","50","91899","0.0-9.0-1.10","nWAJPKxfo5","6440ff579347d8f75783b52d","6617fad957f7c6a12ea16e26","6622c96509a8e4ba50166617","
        <div id=""grid-container"">
        <!-- Grid items will be dynamically added here -->
    </div>    ","null","","","","","","","","","","","",""
"","2000","html-keyboard-response","51","96902","0.0-9.0-2.10","nWAJPKxfo5","6440ff579347d8f75783b52d","6617fad957f7c6a12ea16e26","6622c96509a8e4ba50166617","mask grid","null","","","","","Ontogenetic_Distractor_Threat_target","2000","onmask","q","2","Ontogenetic","false","practice"
"","null","html-keyboard-response","52","98112","0.0-9.0-3.10","nWAJPKxfo5","6440ff579347d8f75783b52d","6617fad957f7c6a12ea16e26","6622c96509a8e4ba50166617","feedback screen","null","","","","","","","","","","","",""
"","null","html-keyboard-response","53","98616","0.0-9.0-0.11","nWAJPKxfo5","6440ff579347d8f75783b52d","6617fad957f7c6a12ea16e26","6622c96509a8e4ba50166617","fixation cross","null","","","","","","","","","","","",""
"","1060","html-keyboard-response","54","99677","0.0-9.0-1.11","nWAJPKxfo5","6440ff579347d8f75783b52d","6617fad957f7c6a12ea16e26","6622c96509a8e4ba50166617","image grid","q","","","","","Ontogenetic_Distractor_notarget","1900","ongrid"," ","1","Ontogenetic","false","practice"
"","null","html-keyboard-response","55","99835","0.0-9.0-2.11","nWAJPKxfo5","6440ff579347d8f75783b52d","6617fad957f7c6a12ea16e26","6622c96509a8e4ba50166617","
    <div id=""grid-container"">
        <!-- Grid items will be dynamically added here -->
    </div>    ","null","","","","","","","","","","","",""
"","null","html-keyboard-response","56","101047","0.0-9.0-3.11","nWAJPKxfo5","6440ff579347d8f75783b52d","6617fad957f7c6a12ea16e26","6622c96509a8e4ba50166617","feedback screen","null","","","","","","","","","","","",""
"","null","html-keyboard-response","57","101563","0.0-9.0-0.12","nWAJPKxfo5","6440ff579347d8f75783b52d","6617fad957f7c6a12ea16e26","6622c96509a8e4ba50166617","fixation cross","null","","","","","","","","","","","",""
"","null","html-keyboard-response","58","103367","0.0-9.0-1.12","nWAJPKxfo5","6440ff579347d8f75783b52d","6617fad957f7c6a12ea16e26","6622c96509a8e4ba50166617","
        <div id=""grid-container"">
        <!-- Grid items will be dynamically added here -->
    </div>    ","null","","","","","","","","","","","",""
"","1927","html-keyboard-response","59","103494","0.0-9.0-2.12","nWAJPKxfo5","6440ff579347d8f75783b52d","6617fad957f7c6a12ea16e26","6622c96509a8e4ba50166617","mask grid","q","","","","","Phylogenetic_Distractor_notarget","1800","onmask"," ","5","Ontogenetic","false","practice"
"","null","html-keyboard-response","60","104713","0.0-9.0-3.12","nWAJPKxfo5","6440ff579347d8f75783b52d","6617fad957f7c6a12ea16e26","6622c96509a8e4ba50166617","feedback screen","null","","","","","","","","","","","",""
"","null","html-keyboard-response","61","105229","0.0-9.0-0.13","nWAJPKxfo5","6440ff579347d8f75783b52d","6617fad957f7c6a12ea16e26","6622c96509a8e4ba50166617","fixation cross","null","","","","","","","","","","","",""
"","963","html-keyboard-response","62","106192","0.0-9.0-1.13","nWAJPKxfo5","6440ff579347d8f75783b52d","6617fad957f7c6a12ea16e26","6622c96509a8e4ba50166617","image grid","q","","","","","Ontogenetic_Distractor_Nonthreat_target","1700","ongrid","p","9","Ontogenetic","false","practice"
"","null","html-keyboard-response","63","106354","0.0-9.0-2.13","nWAJPKxfo5","6440ff579347d8f75783b52d","6617fad957f7c6a12ea16e26","6622c96509a8e4ba50166617","
    <div id=""grid-container"">
        <!-- Grid items will be dynamically added here -->
    </div>    ","null","","","","","","","","","","","",""
"","null","html-keyboard-response","64","107569","0.0-9.0-3.13","nWAJPKxfo5","6440ff579347d8f75783b52d","6617fad957f7c6a12ea16e26","6622c96509a8e4ba50166617","feedback screen","null","","","","","","","","","","","",""
"","null","html-keyboard-response","65","108074","0.0-9.0-0.14","nWAJPKxfo5","6440ff579347d8f75783b52d","6617fad957f7c6a12ea16e26","6622c96509a8e4ba50166617","fixation cross","null","","","","","","","","","","","",""
"","1086","html-keyboard-response","66","109161","0.0-9.0-1.14","nWAJPKxfo5","6440ff579347d8f75783b52d","6617fad957f7c6a12ea16e26","6622c96509a8e4ba50166617","image grid","p","","","","","Phylogenetic_Distractor_Nonthreat_target","1600","ongrid","p","6","Ontogenetic","true","practice"
"","null","html-keyboard-response","67","109324","0.0-9.0-2.14","nWAJPKxfo5","6440ff579347d8f75783b52d","6617fad957f7c6a12ea16e26","6622c96509a8e4ba50166617","
    <div id=""grid-container"">
        <!-- Grid items will be dynamically added here -->
    </div>    ","null","","","","","","","","","","","",""
"","null","html-keyboard-response","68","110534","0.0-9.0-3.14","nWAJPKxfo5","6440ff579347d8f75783b52d","6617fad957f7c6a12ea16e26","6622c96509a8e4ba50166617","feedback screen","null","","","","","","","","","","","",""
"","null","html-keyboard-response","69","111040","0.0-9.0-0.15","nWAJPKxfo5","6440ff579347d8f75783b52d","6617fad957f7c6a12ea16e26","6622c96509a8e4ba50166617","fixation cross","null","","","","","","","","","","","",""
"","998","html-keyboard-response","70","112039","0.0-9.0-1.15","nWAJPKxfo5","6440ff579347d8f75783b52d","6617fad957f7c6a12ea16e26","6622c96509a8e4ba50166617","image grid","p","","","","","Ontogenetic_Distractor_Nonthreat_target","1500","ongrid","p","3","Ontogenetic","true","practice"
"","null","html-keyboard-response","71","112203","0.0-9.0-2.15","nWAJPKxfo5","6440ff579347d8f75783b52d","6617fad957f7c6a12ea16e26","6622c96509a8e4ba50166617","
    <div id=""grid-container"">
        <!-- Grid items will be dynamically added here -->
    </div>    ","null","","","","","","","","","","","",""
"","null","html-keyboard-response","72","113414","0.0-9.0-3.15","nWAJPKxfo5","6440ff579347d8f75783b52d","6617fad957f7c6a12ea16e26","6622c96509a8e4ba50166617","feedback screen","null","","","","","","","","","","","",""
"","null","html-keyboard-response","73","113919","0.0-9.0-0.16","nWAJPKxfo5","6440ff579347d8f75783b52d","6617fad957f7c6a12ea16e26","6622c96509a8e4ba50166617","fixation cross","null","","","","","","","","","","","",""
"","null","html-keyboard-response","74","115332","0.0-9.0-1.16","nWAJPKxfo5","6440ff579347d8f75783b52d","6617fad957f7c6a12ea16e26","6622c96509a8e4ba50166617","
        <div id=""grid-container"">
        <!-- Grid items will be dynamically added here -->
    </div>    ","null","","","","","","","","","","","",""
"","1466","html-keyboard-response","75","115398","0.0-9.0-2.16","nWAJPKxfo5","6440ff579347d8f75783b52d","6617fad957f7c6a12ea16e26","6622c96509a8e4ba50166617","mask grid","q","","","","","Phylogenetic_Distractor_notarget","1400","onmask"," ","9","Ontogenetic","false","practice"
"","null","html-keyboard-response","76","116619","0.0-9.0-3.16","nWAJPKxfo5","6440ff579347d8f75783b52d","6617fad957f7c6a12ea16e26","6622c96509a8e4ba50166617","feedback screen","null","","","","","","","","","","","",""
"","null","html-keyboard-response","77","117137","0.0-9.0-0.17","nWAJPKxfo5","6440ff579347d8f75783b52d","6617fad957f7c6a12ea16e26","6622c96509a8e4ba50166617","fixation cross","null","","","","","","","","","","","",""
"","1184","html-keyboard-response","78","118322","0.0-9.0-1.17","nWAJPKxfo5","6440ff579347d8f75783b52d","6617fad957f7c6a12ea16e26","6622c96509a8e4ba50166617","image grid","p","","","","","Ontogenetic_Distractor_Threat_target","1300","ongrid","q","6","Ontogenetic","false","practice"
"","null","html-keyboard-response","79","118475","0.0-9.0-2.17","nWAJPKxfo5","6440ff579347d8f75783b52d","6617fad957f7c6a12ea16e26","6622c96509a8e4ba50166617","
    <div id=""grid-container"">
        <!-- Grid items will be dynamically added here -->
    </div>    ","null","","","","","","","","","","","",""
"","102","html-keyboard-response","80","118791","0.0-9.0-3.17","nWAJPKxfo5","6440ff579347d8f75783b52d","6617fad957f7c6a12ea16e26","6622c96509a8e4ba50166617","feedback screen"," ","","","","","","","","","","","",""
"","null","html-keyboard-response","81","119308","0.0-9.0-0.18","nWAJPKxfo5","6440ff579347d8f75783b52d","6617fad957f7c6a12ea16e26","6622c96509a8e4ba50166617","fixation cross","null","","","","","","","","","","","",""
"","1038","html-keyboard-response","82","120346","0.0-9.0-1.18","nWAJPKxfo5","6440ff579347d8f75783b52d","6617fad957f7c6a12ea16e26","6622c96509a8e4ba50166617","image grid","q","","","","","Ontogenetic_Distractor_notarget","1200","ongrid"," ","3","Ontogenetic","false","practice"
"","null","html-keyboard-response","83","120512","0.0-9.0-2.18","nWAJPKxfo5","6440ff579347d8f75783b52d","6617fad957f7c6a12ea16e26","6622c96509a8e4ba50166617","
    <div id=""grid-container"">
        <!-- Grid items will be dynamically added here -->
    </div>    ","null","","","","","","","","","","","",""
"","null","html-keyboard-response","84","121718","0.0-9.0-3.18","nWAJPKxfo5","6440ff579347d8f75783b52d","6617fad957f7c6a12ea16e26","6622c96509a8e4ba50166617","feedback screen","null","","","","","","","","","","","",""
"","null","html-keyboard-response","85","122228","0.0-9.0-0.19","nWAJPKxfo5","6440ff579347d8f75783b52d","6617fad957f7c6a12ea16e26","6622c96509a8e4ba50166617","fixation cross","null","","","","","","","","","","","",""
"","789","html-keyboard-response","86","123018","0.0-9.0-1.19","nWAJPKxfo5","6440ff579347d8f75783b52d","6617fad957f7c6a12ea16e26","6622c96509a8e4ba50166617","image grid","p","","","","","Ontogenetic_Distractor_Nonthreat_target","1100","ongrid","p","6","Ontogenetic","true","practice"
"","null","html-keyboard-response","87","123170","0.0-9.0-2.19","nWAJPKxfo5","6440ff579347d8f75783b52d","6617fad957f7c6a12ea16e26","6622c96509a8e4ba50166617","
    <div id=""grid-container"">
        <!-- Grid items will be dynamically added here -->
    </div>    ","null","","","","","","","","","","","",""
"","null","html-keyboard-response","88","124385","0.0-9.0-3.19","nWAJPKxfo5","6440ff579347d8f75783b52d","6617fad957f7c6a12ea16e26","6622c96509a8e4ba50166617","feedback screen","null","","","","","","","","","","","",""
"","22354","html-keyboard-response","89","146760","0.0-10.0","nWAJPKxfo5","6440ff579347d8f75783b52d","6617fad957f7c6a12ea16e26","6622c96509a8e4ba50166617","pre-experimental_briefing"," ","","","","","","","","","","","",""
"","null","html-keyboard-response","90","149297","0.0-11.0-0.0","nWAJPKxfo5","6440ff579347d8f75783b52d","6617fad957f7c6a12ea16e26","6622c96509a8e4ba50166617","fixation cross","null","","","","","","","","","","","",""
"","1773","html-keyboard-response","91","151070","0.0-11.0-1.0","nWAJPKxfo5","6440ff579347d8f75783b52d","6617fad957f7c6a12ea16e26","6622c96509a8e4ba50166617","image grid","q","","","","","Ontogenetic_Distractor_Threat_target","2500","ongrid","q","1","Ontogenetic","true","experimental"
"","null","html-keyboard-response","92","151226","0.0-11.0-2.0","nWAJPKxfo5","6440ff579347d8f75783b52d","6617fad957f7c6a12ea16e26","6622c96509a8e4ba50166617","
    <div id=""grid-container"">
        <!-- Grid items will be dynamically added here -->
    </div>    ","null","","","","","","","","","","","",""
"","null","html-keyboard-response","93","151935","0.0-11.0-0.1","nWAJPKxfo5","6440ff579347d8f75783b52d","6617fad957f7c6a12ea16e26","6622c96509a8e4ba50166617","fixation cross","null","","","","","","","","","","","",""
"","1527","html-keyboard-response","94","153463","0.0-11.0-1.1","nWAJPKxfo5","6440ff579347d8f75783b52d","6617fad957f7c6a12ea16e26","6622c96509a8e4ba50166617","image grid","q","","","","","Ontogenetic_Distractor_Threat_target","2500","ongrid","q","9","Ontogenetic","true","experimental"
"","null","html-keyboard-response","95","153621","0.0-11.0-2.1","nWAJPKxfo5","6440ff579347d8f75783b52d","6617fad957f7c6a12ea16e26","6622c96509a8e4ba50166617","
    <div id=""grid-container"">
        <!-- Grid items will be dynamically added here -->
    </div>    ","null","","","","","","","","","","","",""
"","null","html-keyboard-response","96","154332","0.0-11.0-0.2","nWAJPKxfo5","6440ff579347d8f75783b52d","6617fad957f7c6a12ea16e26","6622c96509a8e4ba50166617","fixation cross","null","","","","","","","","","","","",""
"","1190","html-keyboard-response","97","155522","0.0-11.0-1.2","nWAJPKxfo5","6440ff579347d8f75783b52d","6617fad957f7c6a12ea16e26","6622c96509a8e4ba50166617","image grid","p","","","","","Ontogenetic_Distractor_Nonthreat_target","2500","ongrid","p","1","Ontogenetic","true","experimental"
"","null","html-keyboard-response","98","155677","0.0-11.0-2.2","nWAJPKxfo5","6440ff579347d8f75783b52d","6617fad957f7c6a12ea16e26","6622c96509a8e4ba50166617","
    <div id=""grid-container"">
        <!-- Grid items will be dynamically added here -->
    </div>    ","null","","","","","","","","","","","",""
"","null","html-keyboard-response","99","156394","0.0-11.0-0.3","nWAJPKxfo5","6440ff579347d8f75783b52d","6617fad957f7c6a12ea16e26","6622c96509a8e4ba50166617","fixation cross","null","","","","","","","","","","","",""
"","1659","html-keyboard-response","100","158053","0.0-11.0-1.3","nWAJPKxfo5","6440ff579347d8f75783b52d","6617fad957f7c6a12ea16e26","6622c96509a8e4ba50166617","image grid","q","","","","","Ontogenetic_Distractor_Threat_target","2500","ongrid","q","8","Ontogenetic","true","experimental"
"","null","html-keyboard-response","101","158215","0.0-11.0-2.3","nWAJPKxfo5","6440ff579347d8f75783b52d","6617fad957f7c6a12ea16e26","6622c96509a8e4ba50166617","
    <div id=""grid-container"">
        <!-- Grid items will be dynamically added here -->
    </div>    ","null","","","","","","","","","","","",""
"","null","html-keyboard-response","102","158931","0.0-11.0-0.4","nWAJPKxfo5","6440ff579347d8f75783b52d","6617fad957f7c6a12ea16e26","6622c96509a8e4ba50166617","fixation cross","null","","","","","","","","","","","",""
"","1224","html-keyboard-response","103","160156","0.0-11.0-1.4","nWAJPKxfo5","6440ff579347d8f75783b52d","6617fad957f7c6a12ea16e26","6622c96509a8e4ba50166617","image grid","q","","","","","Ontogenetic_Distractor_Threat_target","2500","ongrid","q","3","Ontogenetic","true","experimental"
"","null","html-keyboard-response","104","160317","0.0-11.0-2.4","nWAJPKxfo5","6440ff579347d8f75783b52d","6617fad957f7c6a12ea16e26","6622c96509a8e4ba50166617","
    <div id=""grid-container"">
        <!-- Grid items will be dynamically added here -->
    </div>    ","null","","","","","","","","","","","",""
"","null","html-keyboard-response","105","161031","0.0-11.0-0.5","nWAJPKxfo5","6440ff579347d8f75783b52d","6617fad957f7c6a12ea16e26","6622c96509a8e4ba50166617","fixation cross","null","","","","","","","","","","","",""
"","1311","html-keyboard-response","106","162342","0.0-11.0-1.5","nWAJPKxfo5","6440ff579347d8f75783b52d","6617fad957f7c6a12ea16e26","6622c96509a8e4ba50166617","image grid","p","","","","","Ontogenetic_Distractor_Nonthreat_target","2500","ongrid","p","2","Ontogenetic","true","experimental"
"","null","html-keyboard-response","107","162499","0.0-11.0-2.5","nWAJPKxfo5","6440ff579347d8f75783b52d","6617fad957f7c6a12ea16e26","6622c96509a8e4ba50166617","
    <div id=""grid-container"">
        <!-- Grid items will be dynamically added here -->
    </div>    ","null","","","","","","","","","","","",""
"","null","html-keyboard-response","108","163221","0.0-11.0-0.6","nWAJPKxfo5","6440ff579347d8f75783b52d","6617fad957f7c6a12ea16e26","6622c96509a8e4ba50166617","fixation cross","null","","","","","","","","","","","",""
"","1209","html-keyboard-response","109","164430","0.0-11.0-1.6","nWAJPKxfo5","6440ff579347d8f75783b52d","6617fad957f7c6a12ea16e26","6622c96509a8e4ba50166617","image grid","q","","","","","Ontogenetic_Distractor_Threat_target","2500","ongrid","q","5","Ontogenetic","true","experimental"
"","null","html-keyboard-response","110","164593","0.0-11.0-2.6","nWAJPKxfo5","6440ff579347d8f75783b52d","6617fad957f7c6a12ea16e26","6622c96509a8e4ba50166617","
    <div id=""grid-container"">
        <!-- Grid items will be dynamically added here -->
    </div>    ","null","","","","","","","","","","","",""
"","null","html-keyboard-response","111","165309","0.0-11.0-0.7","nWAJPKxfo5","6440ff579347d8f75783b52d","6617fad957f7c6a12ea16e26","6622c96509a8e4ba50166617","fixation cross","null","","","","","","","","","","","",""
"","1636","html-keyboard-response","112","166945","0.0-11.0-1.7","nWAJPKxfo5","6440ff579347d8f75783b52d","6617fad957f7c6a12ea16e26","6622c96509a8e4ba50166617","image grid","p","","","","","Ontogenetic_Distractor_Nonthreat_target","2500","ongrid","p","9","Ontogenetic","true","experimental"
"","null","html-keyboard-response","113","167096","0.0-11.0-2.7","nWAJPKxfo5","6440ff579347d8f75783b52d","6617fad957f7c6a12ea16e26","6622c96509a8e4ba50166617","
    <div id=""grid-container"">
        <!-- Grid items will be dynamically added here -->
    </div>    ","null","","","","","","","","","","","",""
"","null","html-keyboard-response","114","167799","0.0-11.0-0.8","nWAJPKxfo5","6440ff579347d8f75783b52d","6617fad957f7c6a12ea16e26","6622c96509a8e4ba50166617","fixation cross","null","","","","","","","","","","","",""
"","1632","html-keyboard-response","115","169431","0.0-11.0-1.8","nWAJPKxfo5","6440ff579347d8f75783b52d","6617fad957f7c6a12ea16e26","6622c96509a8e4ba50166617","image grid"," ","","","","","Ontogenetic_Distractor_notarget","2500","ongrid"," ","9","Ontogenetic","true","experimental"
"","null","html-keyboard-response","116","169583","0.0-11.0-2.8","nWAJPKxfo5","6440ff579347d8f75783b52d","6617fad957f7c6a12ea16e26","6622c96509a8e4ba50166617","
    <div id=""grid-container"">
        <!-- Grid items will be dynamically added here -->
    </div>    ","null","","","","","","","","","","","",""
"","null","html-keyboard-response","117","170302","0.0-11.0-0.9","nWAJPKxfo5","6440ff579347d8f75783b52d","6617fad957f7c6a12ea16e26","6622c96509a8e4ba50166617","fixation cross","null","","","","","","","","","","","",""
"","1314","html-keyboard-response","118","171616","0.0-11.0-1.9","nWAJPKxfo5","6440ff579347d8f75783b52d","6617fad957f7c6a12ea16e26","6622c96509a8e4ba50166617","image grid","p","","","","","Ontogenetic_Distractor_Nonthreat_target","2500","ongrid","p","3","Ontogenetic","true","experimental"
"","null","html-keyboard-response","119","171773","0.0-11.0-2.9","nWAJPKxfo5","6440ff579347d8f75783b52d","6617fad957f7c6a12ea16e26","6622c96509a8e4ba50166617","
    <div id=""grid-container"">
        <!-- Grid items will be dynamically added here -->
    </div>    ","null","","","","","","","","","","","",""
"","null","html-keyboard-response","120","172488","0.0-11.0-0.10","nWAJPKxfo5","6440ff579347d8f75783b52d","6617fad957f7c6a12ea16e26","6622c96509a8e4ba50166617","fixation cross","null","","","","","","","","","","","",""
"","963","html-keyboard-response","121","173451","0.0-11.0-1.10","nWAJPKxfo5","6440ff579347d8f75783b52d","6617fad957f7c6a12ea16e26","6622c96509a8e4ba50166617","image grid","p","","","","","Ontogenetic_Distractor_Nonthreat_target","2500","ongrid","p","8","Ontogenetic","true","experimental"
"","null","html-keyboard-response","122","173608","0.0-11.0-2.10","nWAJPKxfo5","6440ff579347d8f75783b52d","6617fad957f7c6a12ea16e26","6622c96509a8e4ba50166617","
    <div id=""grid-container"">
        <!-- Grid items will be dynamically added here -->
    </div>    ","null","","","","","","","","","","","",""
"","null","html-keyboard-response","123","174315","0.0-11.0-0.11","nWAJPKxfo5","6440ff579347d8f75783b52d","6617fad957f7c6a12ea16e26","6622c96509a8e4ba50166617","fixation cross","null","","","","","","","","","","","",""
"","833","html-keyboard-response","124","175148","0.0-11.0-1.11","nWAJPKxfo5","6440ff579347d8f75783b52d","6617fad957f7c6a12ea16e26","6622c96509a8e4ba50166617","image grid","q","","","","","Ontogenetic_Distractor_Threat_target","2500","ongrid","q","2","Ontogenetic","true","experimental"
"","null","html-keyboard-response","125","175299","0.0-11.0-2.11","nWAJPKxfo5","6440ff579347d8f75783b52d","6617fad957f7c6a12ea16e26","6622c96509a8e4ba50166617","
    <div id=""grid-container"">
        <!-- Grid items will be dynamically added here -->
    </div>    ","null","","","","","","","","","","","",""
"","null","html-keyboard-response","126","176016","0.0-11.0-0.12","nWAJPKxfo5","6440ff579347d8f75783b52d","6617fad957f7c6a12ea16e26","6622c96509a8e4ba50166617","fixation cross","null","","","","","","","","","","","",""
"","969","html-keyboard-response","127","176985","0.0-11.0-1.12","nWAJPKxfo5","6440ff579347d8f75783b52d","6617fad957f7c6a12ea16e26","6622c96509a8e4ba50166617","image grid","q","","","","","Ontogenetic_Distractor_Threat_target","2500","ongrid","q","9","Ontogenetic","true","experimental"
"","null","html-keyboard-response","128","177143","0.0-11.0-2.12","nWAJPKxfo5","6440ff579347d8f75783b52d","6617fad957f7c6a12ea16e26","6622c96509a8e4ba50166617","
    <div id=""grid-container"">
        <!-- Grid items will be dynamically added here -->
    </div>    ","null","","","","","","","","","","","",""
"","null","html-keyboard-response","129","177871","0.0-11.0-0.13","nWAJPKxfo5","6440ff579347d8f75783b52d","6617fad957f7c6a12ea16e26","6622c96509a8e4ba50166617","fixation cross","null","","","","","","","","","","","",""
"","1042","html-keyboard-response","130","178913","0.0-11.0-1.13","nWAJPKxfo5","6440ff579347d8f75783b52d","6617fad957f7c6a12ea16e26","6622c96509a8e4ba50166617","image grid","p","","","","","Ontogenetic_Distractor_Nonthreat_target","2500","ongrid","p","9","Ontogenetic","true","experimental"
"","null","html-keyboard-response","131","179070","0.0-11.0-2.13","nWAJPKxfo5","6440ff579347d8f75783b52d","6617fad957f7c6a12ea16e26","6622c96509a8e4ba50166617","
    <div id=""grid-container"">
        <!-- Grid items will be dynamically added here -->
    </div>    ","null","","","","","","","","","","","",""
"","null","html-keyboard-response","132","179786","0.0-11.0-0.14","nWAJPKxfo5","6440ff579347d8f75783b52d","6617fad957f7c6a12ea16e26","6622c96509a8e4ba50166617","fixation cross","null","","","","","","","","","","","",""
"","null","html-keyboard-response","133","182287","0.0-11.0-1.14","nWAJPKxfo5","6440ff579347d8f75783b52d","6617fad957f7c6a12ea16e26","6622c96509a8e4ba50166617","
        <div id=""grid-container"">
        <!-- Grid items will be dynamically added here -->
    </div>    ","null","","","","","","","","","","","",""
"","2689","html-keyboard-response","134","182476","0.0-11.0-2.14","nWAJPKxfo5","6440ff579347d8f75783b52d","6617fad957f7c6a12ea16e26","6622c96509a8e4ba50166617","mask grid"," ","","","","","Ontogenetic_Distractor_notarget","2500","onmask"," ","7","Ontogenetic","true","experimental"
"","null","html-keyboard-response","135","183196","0.0-11.0-0.15","nWAJPKxfo5","6440ff579347d8f75783b52d","6617fad957f7c6a12ea16e26","6622c96509a8e4ba50166617","fixation cross","null","","","","","","","","","","","",""
"","871","html-keyboard-response","136","184067","0.0-11.0-1.15","nWAJPKxfo5","6440ff579347d8f75783b52d","6617fad957f7c6a12ea16e26","6622c96509a8e4ba50166617","image grid","q","","","","","Ontogenetic_Distractor_Threat_target","2500","ongrid","q","1","Ontogenetic","true","experimental"
"","null","html-keyboard-response","137","184219","0.0-11.0-2.15","nWAJPKxfo5","6440ff579347d8f75783b52d","6617fad957f7c6a12ea16e26","6622c96509a8e4ba50166617","
    <div id=""grid-container"">
        <!-- Grid items will be dynamically added here -->
    </div>    ","null","","","","","","","","","","","",""
"","null","html-keyboard-response","138","184929","0.0-11.0-0.16","nWAJPKxfo5","6440ff579347d8f75783b52d","6617fad957f7c6a12ea16e26","6622c96509a8e4ba50166617","fixation cross","null","","","","","","","","","","","",""
"","1165","html-keyboard-response","139","186095","0.0-11.0-1.16","nWAJPKxfo5","6440ff579347d8f75783b52d","6617fad957f7c6a12ea16e26","6622c96509a8e4ba50166617","image grid","p","","","","","Ontogenetic_Distractor_Nonthreat_target","2500","ongrid","p","4","Ontogenetic","true","experimental"
"","null","html-keyboard-response","140","186259","0.0-11.0-2.16","nWAJPKxfo5","6440ff579347d8f75783b52d","6617fad957f7c6a12ea16e26","6622c96509a8e4ba50166617","
    <div id=""grid-container"">
        <!-- Grid items will be dynamically added here -->
    </div>    ","null","","","","","","","","","","","",""
"","null","html-keyboard-response","141","186977","0.0-11.0-0.17","nWAJPKxfo5","6440ff579347d8f75783b52d","6617fad957f7c6a12ea16e26","6622c96509a8e4ba50166617","fixation cross","null","","","","","","","","","","","",""
"","771","html-keyboard-response","142","187748","0.0-11.0-1.17","nWAJPKxfo5","6440ff579347d8f75783b52d","6617fad957f7c6a12ea16e26","6622c96509a8e4ba50166617","image grid","p","","","","","Ontogenetic_Distractor_Nonthreat_target","2500","ongrid","p","6","Ontogenetic","true","experimental"
"","null","html-keyboard-response","143","187900","0.0-11.0-2.17","nWAJPKxfo5","6440ff579347d8f75783b52d","6617fad957f7c6a12ea16e26","6622c96509a8e4ba50166617","
    <div id=""grid-container"">
        <!-- Grid items will be dynamically added here -->
    </div>    ","null","","","","","","","","","","","",""
"","null","html-keyboard-response","144","188621","0.0-11.0-0.18","nWAJPKxfo5","6440ff579347d8f75783b52d","6617fad957f7c6a12ea16e26","6622c96509a8e4ba50166617","fixation cross","null","","","","","","","","","","","",""
"","1158","html-keyboard-response","145","189780","0.0-11.0-1.18","nWAJPKxfo5","6440ff579347d8f75783b52d","6617fad957f7c6a12ea16e26","6622c96509a8e4ba50166617","image grid","p","","","","","Ontogenetic_Distractor_Nonthreat_target","2500","ongrid","p","5","Ontogenetic","true","experimental"
"","null","html-keyboard-response","146","189943","0.0-11.0-2.18","nWAJPKxfo5","6440ff579347d8f75783b52d","6617fad957f7c6a12ea16e26","6622c96509a8e4ba50166617","
    <div id=""grid-container"">
        <!-- Grid items will be dynamically added here -->
    </div>    ","null","","","","","","","","","","","",""
"","null","html-keyboard-response","147","190659","0.0-11.0-0.19","nWAJPKxfo5","6440ff579347d8f75783b52d","6617fad957f7c6a12ea16e26","6622c96509a8e4ba50166617","fixation cross","null","","","","","","","","","","","",""
"","1545","html-keyboard-response","148","192204","0.0-11.0-1.19","nWAJPKxfo5","6440ff579347d8f75783b52d","6617fad957f7c6a12ea16e26","6622c96509a8e4ba50166617","image grid","p","","","","","Ontogenetic_Distractor_Nonthreat_target","2500","ongrid","p","8","Ontogenetic","true","experimental"
"","null","html-keyboard-response","149","192364","0.0-11.0-2.19","nWAJPKxfo5","6440ff579347d8f75783b52d","6617fad957f7c6a12ea16e26","6622c96509a8e4ba50166617","
    <div id=""grid-container"">
        <!-- Grid items will be dynamically added here -->
    </div>    ","null","","","","","","","","","","","",""
"","null","html-keyboard-response","150","193092","0.0-11.0-0.20","nWAJPKxfo5","6440ff579347d8f75783b52d","6617fad957f7c6a12ea16e26","6622c96509a8e4ba50166617","fixation cross","null","","","","","","","","","","","",""
"","845","html-keyboard-response","151","193937","0.0-11.0-1.20","nWAJPKxfo5","6440ff579347d8f75783b52d","6617fad957f7c6a12ea16e26","6622c96509a8e4ba50166617","image grid","q","","","","","Ontogenetic_Distractor_Threat_target","2500","ongrid","q","6","Ontogenetic","true","experimental"
"","null","html-keyboard-response","152","194096","0.0-11.0-2.20","nWAJPKxfo5","6440ff579347d8f75783b52d","6617fad957f7c6a12ea16e26","6622c96509a8e4ba50166617","
    <div id=""grid-container"">
        <!-- Grid items will be dynamically added here -->
    </div>    ","null","","","","","","","","","","","",""
"","null","html-keyboard-response","153","194813","0.0-11.0-0.21","nWAJPKxfo5","6440ff579347d8f75783b52d","6617fad957f7c6a12ea16e26","6622c96509a8e4ba50166617","fixation cross","null","","","","","","","","","","","",""
"","909","html-keyboard-response","154","195722","0.0-11.0-1.21","nWAJPKxfo5","6440ff579347d8f75783b52d","6617fad957f7c6a12ea16e26","6622c96509a8e4ba50166617","image grid","q","","","","","Ontogenetic_Distractor_Threat_target","2500","ongrid","q","3","Ontogenetic","true","experimental"
"","null","html-keyboard-response","155","195881","0.0-11.0-2.21","nWAJPKxfo5","6440ff579347d8f75783b52d","6617fad957f7c6a12ea16e26","6622c96509a8e4ba50166617","
    <div id=""grid-container"">
        <!-- Grid items will be dynamically added here -->
    </div>    ","null","","","","","","","","","","","",""
"","null","html-keyboard-response","156","196598","0.0-11.0-0.22","nWAJPKxfo5","6440ff579347d8f75783b52d","6617fad957f7c6a12ea16e26","6622c96509a8e4ba50166617","fixation cross","null","","","","","","","","","","","",""
"","840","html-keyboard-response","157","197439","0.0-11.0-1.22","nWAJPKxfo5","6440ff579347d8f75783b52d","6617fad957f7c6a12ea16e26","6622c96509a8e4ba50166617","image grid","p","","","","","Ontogenetic_Distractor_Nonthreat_target","2500","ongrid","p","1","Ontogenetic","true","experimental"
"","null","html-keyboard-response","158","197592","0.0-11.0-2.22","nWAJPKxfo5","6440ff579347d8f75783b52d","6617fad957f7c6a12ea16e26","6622c96509a8e4ba50166617","
    <div id=""grid-container"">
        <!-- Grid items will be dynamically added here -->
    </div>    ","null","","","","","","","","","","","",""
"","null","html-keyboard-response","159","198302","0.0-11.0-0.23","nWAJPKxfo5","6440ff579347d8f75783b52d","6617fad957f7c6a12ea16e26","6622c96509a8e4ba50166617","fixation cross","null","","","","","","","","","","","",""
"","978","html-keyboard-response","160","199280","0.0-11.0-1.23","nWAJPKxfo5","6440ff579347d8f75783b52d","6617fad957f7c6a12ea16e26","6622c96509a8e4ba50166617","image grid","p","","","","","Ontogenetic_Distractor_Nonthreat_target","2500","ongrid","p","9","Ontogenetic","true","experimental"
"","null","html-keyboard-response","161","199434","0.0-11.0-2.23","nWAJPKxfo5","6440ff579347d8f75783b52d","6617fad957f7c6a12ea16e26","6622c96509a8e4ba50166617","
    <div id=""grid-container"">
        <!-- Grid items will be dynamically added here -->
    </div>    ","null","","","","","","","","","","","",""
"","null","html-keyboard-response","162","200140","0.0-11.0-0.24","nWAJPKxfo5","6440ff579347d8f75783b52d","6617fad957f7c6a12ea16e26","6622c96509a8e4ba50166617","fixation cross","null","","","","","","","","","","","",""
"","1545","html-keyboard-response","163","201686","0.0-11.0-1.24","nWAJPKxfo5","6440ff579347d8f75783b52d","6617fad957f7c6a12ea16e26","6622c96509a8e4ba50166617","image grid","p","","","","","Ontogenetic_Distractor_Nonthreat_target","2500","ongrid","p","8","Ontogenetic","true","experimental"
"","null","html-keyboard-response","164","201837","0.0-11.0-2.24","nWAJPKxfo5","6440ff579347d8f75783b52d","6617fad957f7c6a12ea16e26","6622c96509a8e4ba50166617","
    <div id=""grid-container"">
        <!-- Grid items will be dynamically added here -->
    </div>    ","null","","","","","","","","","","","",""
"","null","html-keyboard-response","165","202542","0.0-11.0-0.25","nWAJPKxfo5","6440ff579347d8f75783b52d","6617fad957f7c6a12ea16e26","6622c96509a8e4ba50166617","fixation cross","null","","","","","","","","","","","",""
"","945","html-keyboard-response","166","203487","0.0-11.0-1.25","nWAJPKxfo5","6440ff579347d8f75783b52d","6617fad957f7c6a12ea16e26","6622c96509a8e4ba50166617","image grid","q","","","","","Ontogenetic_Distractor_Threat_target","2500","ongrid","q","9","Ontogenetic","true","experimental"
"","null","html-keyboard-response","167","203641","0.0-11.0-2.25","nWAJPKxfo5","6440ff579347d8f75783b52d","6617fad957f7c6a12ea16e26","6622c96509a8e4ba50166617","
    <div id=""grid-container"">
        <!-- Grid items will be dynamically added here -->
    </div>    ","null","","","","","","","","","","","",""
"","null","html-keyboard-response","168","204361","0.0-11.0-0.26","nWAJPKxfo5","6440ff579347d8f75783b52d","6617fad957f7c6a12ea16e26","6622c96509a8e4ba50166617","fixation cross","null","","","","","","","","","","","",""
"","770","html-keyboard-response","169","205132","0.0-11.0-1.26","nWAJPKxfo5","6440ff579347d8f75783b52d","6617fad957f7c6a12ea16e26","6622c96509a8e4ba50166617","image grid","q","","","","","Ontogenetic_Distractor_Threat_target","2500","ongrid","q","8","Ontogenetic","true","experimental"
"","null","html-keyboard-response","170","205292","0.0-11.0-2.26","nWAJPKxfo5","6440ff579347d8f75783b52d","6617fad957f7c6a12ea16e26","6622c96509a8e4ba50166617","
    <div id=""grid-container"">
        <!-- Grid items will be dynamically added here -->
    </div>    ","null","","","","","","","","","","","",""
"","null","html-keyboard-response","171","206002","0.0-11.0-0.27","nWAJPKxfo5","6440ff579347d8f75783b52d","6617fad957f7c6a12ea16e26","6622c96509a8e4ba50166617","fixation cross","null","","","","","","","","","","","",""
"","1202","html-keyboard-response","172","207204","0.0-11.0-1.27","nWAJPKxfo5","6440ff579347d8f75783b52d","6617fad957f7c6a12ea16e26","6622c96509a8e4ba50166617","image grid","p","","","","","Ontogenetic_Distractor_Threat_target","2500","ongrid","q","3","Ontogenetic","false","experimental"
"","null","html-keyboard-response","173","207369","0.0-11.0-2.27","nWAJPKxfo5","6440ff579347d8f75783b52d","6617fad957f7c6a12ea16e26","6622c96509a8e4ba50166617","
    <div id=""grid-container"">
        <!-- Grid items will be dynamically added here -->
    </div>    ","null","","","","","","","","","","","",""
"","null","html-keyboard-response","174","208097","0.0-11.0-0.28","nWAJPKxfo5","6440ff579347d8f75783b52d","6617fad957f7c6a12ea16e26","6622c96509a8e4ba50166617","fixation cross","null","","","","","","","","","","","",""
"","1747","html-keyboard-response","175","209844","0.0-11.0-1.28","nWAJPKxfo5","6440ff579347d8f75783b52d","6617fad957f7c6a12ea16e26","6622c96509a8e4ba50166617","image grid","p","","","","","Ontogenetic_Distractor_Nonthreat_target","2500","ongrid","p","3","Ontogenetic","true","experimental"
"","null","html-keyboard-response","176","210008","0.0-11.0-2.28","nWAJPKxfo5","6440ff579347d8f75783b52d","6617fad957f7c6a12ea16e26","6622c96509a8e4ba50166617","
    <div id=""grid-container"">
        <!-- Grid items will be dynamically added here -->
    </div>    ","null","","","","","","","","","","","",""
"","null","html-keyboard-response","177","210732","0.0-11.0-0.29","nWAJPKxfo5","6440ff579347d8f75783b52d","6617fad957f7c6a12ea16e26","6622c96509a8e4ba50166617","fixation cross","null","","","","","","","","","","","",""
"","954","html-keyboard-response","178","211686","0.0-11.0-1.29","nWAJPKxfo5","6440ff579347d8f75783b52d","6617fad957f7c6a12ea16e26","6622c96509a8e4ba50166617","image grid","p","","","","","Ontogenetic_Distractor_Nonthreat_target","2500","ongrid","p","1","Ontogenetic","true","experimental"
"","null","html-keyboard-response","179","211853","0.0-11.0-2.29","nWAJPKxfo5","6440ff579347d8f75783b52d","6617fad957f7c6a12ea16e26","6622c96509a8e4ba50166617","
    <div id=""grid-container"">
        <!-- Grid items will be dynamically added here -->
    </div>    ","null","","","","","","","","","","","",""
"","null","html-keyboard-response","180","212562","0.0-11.0-0.30","nWAJPKxfo5","6440ff579347d8f75783b52d","6617fad957f7c6a12ea16e26","6622c96509a8e4ba50166617","fixation cross","null","","","","","","","","","","","",""
"","1268","html-keyboard-response","181","213831","0.0-11.0-1.30","nWAJPKxfo5","6440ff579347d8f75783b52d","6617fad957f7c6a12ea16e26","6622c96509a8e4ba50166617","image grid","p","","","","","Ontogenetic_Distractor_Nonthreat_target","2500","ongrid","p","3","Ontogenetic","true","experimental"
"","null","html-keyboard-response","182","213989","0.0-11.0-2.30","nWAJPKxfo5","6440ff579347d8f75783b52d","6617fad957f7c6a12ea16e26","6622c96509a8e4ba50166617","
    <div id=""grid-container"">
        <!-- Grid items will be dynamically added here -->
    </div>    ","null","","","","","","","","","","","",""
"","null","html-keyboard-response","183","214692","0.0-11.0-0.31","nWAJPKxfo5","6440ff579347d8f75783b52d","6617fad957f7c6a12ea16e26","6622c96509a8e4ba50166617","fixation cross","null","","","","","","","","","","","",""
"","823","html-keyboard-response","184","215515","0.0-11.0-1.31","nWAJPKxfo5","6440ff579347d8f75783b52d","6617fad957f7c6a12ea16e26","6622c96509a8e4ba50166617","image grid","q","","","","","Ontogenetic_Distractor_Threat_target","2500","ongrid","q","1","Ontogenetic","true","experimental"
"","null","html-keyboard-response","185","215666","0.0-11.0-2.31","nWAJPKxfo5","6440ff579347d8f75783b52d","6617fad957f7c6a12ea16e26","6622c96509a8e4ba50166617","
    <div id=""grid-container"">
        <!-- Grid items will be dynamically added here -->
    </div>    ","null","","","","","","","","","","","",""
"","null","html-keyboard-response","186","216379","0.0-11.0-0.32","nWAJPKxfo5","6440ff579347d8f75783b52d","6617fad957f7c6a12ea16e26","6622c96509a8e4ba50166617","fixation cross","null","","","","","","","","","","","",""
"","1685","html-keyboard-response","187","218064","0.0-11.0-1.32","nWAJPKxfo5","6440ff579347d8f75783b52d","6617fad957f7c6a12ea16e26","6622c96509a8e4ba50166617","image grid","p","","","","","Ontogenetic_Distractor_notarget","2500","ongrid"," ","5","Ontogenetic","false","experimental"
"","null","html-keyboard-response","188","218221","0.0-11.0-2.32","nWAJPKxfo5","6440ff579347d8f75783b52d","6617fad957f7c6a12ea16e26","6622c96509a8e4ba50166617","
    <div id=""grid-container"">
        <!-- Grid items will be dynamically added here -->
    </div>    ","null","","","","","","","","","","","",""
"","null","html-keyboard-response","189","218930","0.0-11.0-0.33","nWAJPKxfo5","6440ff579347d8f75783b52d","6617fad957f7c6a12ea16e26","6622c96509a8e4ba50166617","fixation cross","null","","","","","","","","","","","",""
"","1352","html-keyboard-response","190","220282","0.0-11.0-1.33","nWAJPKxfo5","6440ff579347d8f75783b52d","6617fad957f7c6a12ea16e26","6622c96509a8e4ba50166617","image grid","p","","","","","Ontogenetic_Distractor_Nonthreat_target","2500","ongrid","p","2","Ontogenetic","true","experimental"
"","null","html-keyboard-response","191","220440","0.0-11.0-2.33","nWAJPKxfo5","6440ff579347d8f75783b52d","6617fad957f7c6a12ea16e26","6622c96509a8e4ba50166617","
    <div id=""grid-container"">
        <!-- Grid items will be dynamically added here -->
    </div>    ","null","","","","","","","","","","","",""
"","null","html-keyboard-response","192","221155","0.0-11.0-0.34","nWAJPKxfo5","6440ff579347d8f75783b52d","6617fad957f7c6a12ea16e26","6622c96509a8e4ba50166617","fixation cross","null","","","","","","","","","","","",""
"","879","html-keyboard-response","193","222035","0.0-11.0-1.34","nWAJPKxfo5","6440ff579347d8f75783b52d","6617fad957f7c6a12ea16e26","6622c96509a8e4ba50166617","image grid","q","","","","","Ontogenetic_Distractor_Threat_target","2500","ongrid","q","2","Ontogenetic","true","experimental"
"","null","html-keyboard-response","194","222188","0.0-11.0-2.34","nWAJPKxfo5","6440ff579347d8f75783b52d","6617fad957f7c6a12ea16e26","6622c96509a8e4ba50166617","
    <div id=""grid-container"">
        <!-- Grid items will be dynamically added here -->
    </div>    ","null","","","","","","","","","","","",""
"","null","html-keyboard-response","195","222907","0.0-11.0-0.35","nWAJPKxfo5","6440ff579347d8f75783b52d","6617fad957f7c6a12ea16e26","6622c96509a8e4ba50166617","fixation cross","null","","","","","","","","","","","",""
"","919","html-keyboard-response","196","223826","0.0-11.0-1.35","nWAJPKxfo5","6440ff579347d8f75783b52d","6617fad957f7c6a12ea16e26","6622c96509a8e4ba50166617","image grid","q","","","","","Ontogenetic_Distractor_Threat_target","2500","ongrid","q","4","Ontogenetic","true","experimental"
"","null","html-keyboard-response","197","223983","0.0-11.0-2.35","nWAJPKxfo5","6440ff579347d8f75783b52d","6617fad957f7c6a12ea16e26","6622c96509a8e4ba50166617","
    <div id=""grid-container"">
        <!-- Grid items will be dynamically added here -->
    </div>    ","null","","","","","","","","","","","",""
"","null","html-keyboard-response","198","224694","0.0-11.0-0.36","nWAJPKxfo5","6440ff579347d8f75783b52d","6617fad957f7c6a12ea16e26","6622c96509a8e4ba50166617","fixation cross","null","","","","","","","","","","","",""
"","1650","html-keyboard-response","199","226344","0.0-11.0-1.36","nWAJPKxfo5","6440ff579347d8f75783b52d","6617fad957f7c6a12ea16e26","6622c96509a8e4ba50166617","image grid","p","","","","","Ontogenetic_Distractor_Nonthreat_target","2500","ongrid","p","8","Ontogenetic","true","experimental"
"","null","html-keyboard-response","200","226498","0.0-11.0-2.36","nWAJPKxfo5","6440ff579347d8f75783b52d","6617fad957f7c6a12ea16e26","6622c96509a8e4ba50166617","
    <div id=""grid-container"">
        <!-- Grid items will be dynamically added here -->
    </div>    ","null","","","","","","","","","","","",""
"","null","html-keyboard-response","201","227216","0.0-11.0-0.37","nWAJPKxfo5","6440ff579347d8f75783b52d","6617fad957f7c6a12ea16e26","6622c96509a8e4ba50166617","fixation cross","null","","","","","","","","","","","",""
"","1872","html-keyboard-response","202","229088","0.0-11.0-1.37","nWAJPKxfo5","6440ff579347d8f75783b52d","6617fad957f7c6a12ea16e26","6622c96509a8e4ba50166617","image grid"," ","","","","","Ontogenetic_Distractor_notarget","2500","ongrid"," ","9","Ontogenetic","true","experimental"
"","null","html-keyboard-response","203","229241","0.0-11.0-2.37","nWAJPKxfo5","6440ff579347d8f75783b52d","6617fad957f7c6a12ea16e26","6622c96509a8e4ba50166617","
    <div id=""grid-container"">
        <!-- Grid items will be dynamically added here -->
    </div>    ","null","","","","","","","","","","","",""
"","null","html-keyboard-response","204","229962","0.0-11.0-0.38","nWAJPKxfo5","6440ff579347d8f75783b52d","6617fad957f7c6a12ea16e26","6622c96509a8e4ba50166617","fixation cross","null","","","","","","","","","","","",""
"","865","html-keyboard-response","205","230827","0.0-11.0-1.38","nWAJPKxfo5","6440ff579347d8f75783b52d","6617fad957f7c6a12ea16e26","6622c96509a8e4ba50166617","image grid","q","","","","","Ontogenetic_Distractor_Threat_target","2500","ongrid","q","3","Ontogenetic","true","experimental"
"","null","html-keyboard-response","206","230989","0.0-11.0-2.38","nWAJPKxfo5","6440ff579347d8f75783b52d","6617fad957f7c6a12ea16e26","6622c96509a8e4ba50166617","
    <div id=""grid-container"">
        <!-- Grid items will be dynamically added here -->
    </div>    ","null","","","","","","","","","","","",""
"","null","html-keyboard-response","207","231714","0.0-11.0-0.39","nWAJPKxfo5","6440ff579347d8f75783b52d","6617fad957f7c6a12ea16e26","6622c96509a8e4ba50166617","fixation cross","null","","","","","","","","","","","",""
"","2114","html-keyboard-response","208","233827","0.0-11.0-1.39","nWAJPKxfo5","6440ff579347d8f75783b52d","6617fad957f7c6a12ea16e26","6622c96509a8e4ba50166617","image grid","q","","","","","Ontogenetic_Distractor_Threat_target","2500","ongrid","q","2","Ontogenetic","true","experimental"
"","null","html-keyboard-response","209","233989","0.0-11.0-2.39","nWAJPKxfo5","6440ff579347d8f75783b52d","6617fad957f7c6a12ea16e26","6622c96509a8e4ba50166617","
    <div id=""grid-container"">
        <!-- Grid items will be dynamically added here -->
    </div>    ","null","","","","","","","","","","","",""
"","2771","html-keyboard-response","210","236998","0.0-12.0","nWAJPKxfo5","6440ff579347d8f75783b52d","6617fad957f7c6a12ea16e26","6622c96509a8e4ba50166617","break screen","d","","","","","","","","","","","",""
"","null","html-keyboard-response","211","239527","0.0-13.0-0.0","nWAJPKxfo5","6440ff579347d8f75783b52d","6617fad957f7c6a12ea16e26","6622c96509a8e4ba50166617","fixation cross","null","","","","","","","","","","","",""
"","null","html-keyboard-response","212","242040","0.0-13.0-1.0","nWAJPKxfo5","6440ff579347d8f75783b52d","6617fad957f7c6a12ea16e26","6622c96509a8e4ba50166617","
        <div id=""grid-container"">
        <!-- Grid items will be dynamically added here -->
    </div>    ","null","","","","","","","","","","","",""
"","2500","html-keyboard-response","213","247045","0.0-13.0-2.0","nWAJPKxfo5","6440ff579347d8f75783b52d","6617fad957f7c6a12ea16e26","6622c96509a8e4ba50166617","mask grid","null","","","","","Phylogenetic_Distractor_Nonthreat_target","2500","onmask","p","5","Phylogenetic","false","experimental"
"","null","html-keyboard-response","214","247763","0.0-13.0-0.1","nWAJPKxfo5","6440ff579347d8f75783b52d","6617fad957f7c6a12ea16e26","6622c96509a8e4ba50166617","fixation cross","null","","","","","","","","","","","",""
"","null","html-keyboard-response","215","250274","0.0-13.0-1.1","nWAJPKxfo5","6440ff579347d8f75783b52d","6617fad957f7c6a12ea16e26","6622c96509a8e4ba50166617","
        <div id=""grid-container"">
        <!-- Grid items will be dynamically added here -->
    </div>    ","null","","","","","","","","","","","",""
"","2548","html-keyboard-response","216","250323","0.0-13.0-2.1","nWAJPKxfo5","6440ff579347d8f75783b52d","6617fad957f7c6a12ea16e26","6622c96509a8e4ba50166617","mask grid","q","","","","","Phylogenetic_Distractor_Nonthreat_target","2500","onmask","p","3","Phylogenetic","false","experimental"
"","null","html-keyboard-response","217","251049","0.0-13.0-0.2","nWAJPKxfo5","6440ff579347d8f75783b52d","6617fad957f7c6a12ea16e26","6622c96509a8e4ba50166617","fixation cross","null","","","","","","","","","","","",""
"","1558","html-keyboard-response","218","252608","0.0-13.0-1.2","nWAJPKxfo5","6440ff579347d8f75783b52d","6617fad957f7c6a12ea16e26","6622c96509a8e4ba50166617","image grid","q","","","","","Phylogenetic_Distractor_Threat_target","2500","ongrid","q","9","Phylogenetic","true","experimental"
"","null","html-keyboard-response","219","252773","0.0-13.0-2.2","nWAJPKxfo5","6440ff579347d8f75783b52d","6617fad957f7c6a12ea16e26","6622c96509a8e4ba50166617","
    <div id=""grid-container"">
        <!-- Grid items will be dynamically added here -->
    </div>    ","null","","","","","","","","","","","",""
"","null","html-keyboard-response","220","253503","0.0-13.0-0.3","nWAJPKxfo5","6440ff579347d8f75783b52d","6617fad957f7c6a12ea16e26","6622c96509a8e4ba50166617","fixation cross","null","","","","","","","","","","","",""
"","2063","html-keyboard-response","221","255567","0.0-13.0-1.3","nWAJPKxfo5","6440ff579347d8f75783b52d","6617fad957f7c6a12ea16e26","6622c96509a8e4ba50166617","image grid","p","","","","","Phylogenetic_Distractor_Nonthreat_target","2500","ongrid","p","4","Phylogenetic","true","experimental"
"","null","html-keyboard-response","222","255719","0.0-13.0-2.3","nWAJPKxfo5","6440ff579347d8f75783b52d","6617fad957f7c6a12ea16e26","6622c96509a8e4ba50166617","
    <div id=""grid-container"">
        <!-- Grid items will be dynamically added here -->
    </div>    ","null","","","","","","","","","","","",""
"","null","html-keyboard-response","223","256439","0.0-13.0-0.4","nWAJPKxfo5","6440ff579347d8f75783b52d","6617fad957f7c6a12ea16e26","6622c96509a8e4ba50166617","fixation cross","null","","","","","","","","","","","",""
"","null","html-keyboard-response","224","258948","0.0-13.0-1.4","nWAJPKxfo5","6440ff579347d8f75783b52d","6617fad957f7c6a12ea16e26","6622c96509a8e4ba50166617","
        <div id=""grid-container"">
        <!-- Grid items will be dynamically added here -->
    </div>    ","null","","","","","","","","","","","",""
"","2506","html-keyboard-response","225","258954","0.0-13.0-2.4","nWAJPKxfo5","6440ff579347d8f75783b52d","6617fad957f7c6a12ea16e26","6622c96509a8e4ba50166617","mask grid","p","","","","","Phylogenetic_Distractor_Nonthreat_target","2500","onmask","p","7","Phylogenetic","true","experimental"
"","null","html-keyboard-response","226","259675","0.0-13.0-0.5","nWAJPKxfo5","6440ff579347d8f75783b52d","6617fad957f7c6a12ea16e26","6622c96509a8e4ba50166617","fixation cross","null","","","","","","","","","","","",""
"","1703","html-keyboard-response","227","261378","0.0-13.0-1.5","nWAJPKxfo5","6440ff579347d8f75783b52d","6617fad957f7c6a12ea16e26","6622c96509a8e4ba50166617","image grid","p","","","","","Phylogenetic_Distractor_Nonthreat_target","2500","ongrid","p","8","Phylogenetic","true","experimental"
"","null","html-keyboard-response","228","261539","0.0-13.0-2.5","nWAJPKxfo5","6440ff579347d8f75783b52d","6617fad957f7c6a12ea16e26","6622c96509a8e4ba50166617","
    <div id=""grid-container"">
        <!-- Grid items will be dynamically added here -->
    </div>    ","null","","","","","","","","","","","",""
"","null","html-keyboard-response","229","262253","0.0-13.0-0.6","nWAJPKxfo5","6440ff579347d8f75783b52d","6617fad957f7c6a12ea16e26","6622c96509a8e4ba50166617","fixation cross","null","","","","","","","","","","","",""
"","1845","html-keyboard-response","230","264098","0.0-13.0-1.6","nWAJPKxfo5","6440ff579347d8f75783b52d","6617fad957f7c6a12ea16e26","6622c96509a8e4ba50166617","image grid","q","","","","","Phylogenetic_Distractor_Threat_target","2500","ongrid","q","6","Phylogenetic","true","experimental"
"","null","html-keyboard-response","231","264261","0.0-13.0-2.6","nWAJPKxfo5","6440ff579347d8f75783b52d","6617fad957f7c6a12ea16e26","6622c96509a8e4ba50166617","
    <div id=""grid-container"">
        <!-- Grid items will be dynamically added here -->
    </div>    ","null","","","","","","","","","","","",""
"","null","html-keyboard-response","232","264977","0.0-13.0-0.7","nWAJPKxfo5","6440ff579347d8f75783b52d","6617fad957f7c6a12ea16e26","6622c96509a8e4ba50166617","fixation cross","null","","","","","","","","","","","",""
"","1267","html-keyboard-response","233","266244","0.0-13.0-1.7","nWAJPKxfo5","6440ff579347d8f75783b52d","6617fad957f7c6a12ea16e26","6622c96509a8e4ba50166617","image grid","q","","","","","Phylogenetic_Distractor_Threat_target","2500","ongrid","q","7","Phylogenetic","true","experimental"
"","null","html-keyboard-response","234","266398","0.0-13.0-2.7","nWAJPKxfo5","6440ff579347d8f75783b52d","6617fad957f7c6a12ea16e26","6622c96509a8e4ba50166617","
    <div id=""grid-container"">
        <!-- Grid items will be dynamically added here -->
    </div>    ","null","","","","","","","","","","","",""
"","null","html-keyboard-response","235","267102","0.0-13.0-0.8","nWAJPKxfo5","6440ff579347d8f75783b52d","6617fad957f7c6a12ea16e26","6622c96509a8e4ba50166617","fixation cross","null","","","","","","","","","","","",""
"","1231","html-keyboard-response","236","268334","0.0-13.0-1.8","nWAJPKxfo5","6440ff579347d8f75783b52d","6617fad957f7c6a12ea16e26","6622c96509a8e4ba50166617","image grid","p","","","","","Phylogenetic_Distractor_Nonthreat_target","2500","ongrid","p","6","Phylogenetic","true","experimental"
"","null","html-keyboard-response","237","268488","0.0-13.0-2.8","nWAJPKxfo5","6440ff579347d8f75783b52d","6617fad957f7c6a12ea16e26","6622c96509a8e4ba50166617","
    <div id=""grid-container"">
        <!-- Grid items will be dynamically added here -->
    </div>    ","null","","","","","","","","","","","",""
"","null","html-keyboard-response","238","269213","0.0-13.0-0.9","nWAJPKxfo5","6440ff579347d8f75783b52d","6617fad957f7c6a12ea16e26","6622c96509a8e4ba50166617","fixation cross","null","","","","","","","","","","","",""
"","965","html-keyboard-response","239","270178","0.0-13.0-1.9","nWAJPKxfo5","6440ff579347d8f75783b52d","6617fad957f7c6a12ea16e26","6622c96509a8e4ba50166617","image grid","p","","","","","Phylogenetic_Distractor_Nonthreat_target","2500","ongrid","p","5","Phylogenetic","true","experimental"
"","null","html-keyboard-response","240","270333","0.0-13.0-2.9","nWAJPKxfo5","6440ff579347d8f75783b52d","6617fad957f7c6a12ea16e26","6622c96509a8e4ba50166617","
    <div id=""grid-container"">
        <!-- Grid items will be dynamically added here -->
    </div>    ","null","","","","","","","","","","","",""
"","null","html-keyboard-response","241","271044","0.0-13.0-0.10","nWAJPKxfo5","6440ff579347d8f75783b52d","6617fad957f7c6a12ea16e26","6622c96509a8e4ba50166617","fixation cross","null","","","","","","","","","","","",""
"","1124","html-keyboard-response","242","272168","0.0-13.0-1.10","nWAJPKxfo5","6440ff579347d8f75783b52d","6617fad957f7c6a12ea16e26","6622c96509a8e4ba50166617","image grid","p","","","","","Phylogenetic_Distractor_Nonthreat_target","2500","ongrid","p","7","Phylogenetic","true","experimental"
"","null","html-keyboard-response","243","272322","0.0-13.0-2.10","nWAJPKxfo5","6440ff579347d8f75783b52d","6617fad957f7c6a12ea16e26","6622c96509a8e4ba50166617","
    <div id=""grid-container"">
        <!-- Grid items will be dynamically added here -->
    </div>    ","null","","","","","","","","","","","",""
"","null","html-keyboard-response","244","273040","0.0-13.0-0.11","nWAJPKxfo5","6440ff579347d8f75783b52d","6617fad957f7c6a12ea16e26","6622c96509a8e4ba50166617","fixation cross","null","","","","","","","","","","","",""
"","1187","html-keyboard-response","245","274227","0.0-13.0-1.11","nWAJPKxfo5","6440ff579347d8f75783b52d","6617fad957f7c6a12ea16e26","6622c96509a8e4ba50166617","image grid"," ","","","","","Phylogenetic_Distractor_notarget","2500","ongrid"," ","2","Phylogenetic","true","experimental"
"","null","html-keyboard-response","246","274388","0.0-13.0-2.11","nWAJPKxfo5","6440ff579347d8f75783b52d","6617fad957f7c6a12ea16e26","6622c96509a8e4ba50166617","
    <div id=""grid-container"">
        <!-- Grid items will be dynamically added here -->
    </div>    ","null","","","","","","","","","","","",""
"","null","html-keyboard-response","247","275092","0.0-13.0-0.12","nWAJPKxfo5","6440ff579347d8f75783b52d","6617fad957f7c6a12ea16e26","6622c96509a8e4ba50166617","fixation cross","null","","","","","","","","","","","",""
"","1378","html-keyboard-response","248","276470","0.0-13.0-1.12","nWAJPKxfo5","6440ff579347d8f75783b52d","6617fad957f7c6a12ea16e26","6622c96509a8e4ba50166617","image grid","p","","","","","Phylogenetic_Distractor_Nonthreat_target","2500","ongrid","p","6","Phylogenetic","true","experimental"
"","null","html-keyboard-response","249","276635","0.0-13.0-2.12","nWAJPKxfo5","6440ff579347d8f75783b52d","6617fad957f7c6a12ea16e26","6622c96509a8e4ba50166617","
    <div id=""grid-container"">
        <!-- Grid items will be dynamically added here -->
    </div>    ","null","","","","","","","","","","","",""
"","null","html-keyboard-response","250","277363","0.0-13.0-0.13","nWAJPKxfo5","6440ff579347d8f75783b52d","6617fad957f7c6a12ea16e26","6622c96509a8e4ba50166617","fixation cross","null","","","","","","","","","","","",""
"","967","html-keyboard-response","251","278331","0.0-13.0-1.13","nWAJPKxfo5","6440ff579347d8f75783b52d","6617fad957f7c6a12ea16e26","6622c96509a8e4ba50166617","image grid","q","","","","","Phylogenetic_Distractor_Threat_target","2500","ongrid","q","2","Phylogenetic","true","experimental"
"","null","html-keyboard-response","252","278487","0.0-13.0-2.13","nWAJPKxfo5","6440ff579347d8f75783b52d","6617fad957f7c6a12ea16e26","6622c96509a8e4ba50166617","
    <div id=""grid-container"">
        <!-- Grid items will be dynamically added here -->
    </div>    ","null","","","","","","","","","","","",""
"","null","html-keyboard-response","253","279208","0.0-13.0-0.14","nWAJPKxfo5","6440ff579347d8f75783b52d","6617fad957f7c6a12ea16e26","6622c96509a8e4ba50166617","fixation cross","null","","","","","","","","","","","",""
"","1067","html-keyboard-response","254","280276","0.0-13.0-1.14","nWAJPKxfo5","6440ff579347d8f75783b52d","6617fad957f7c6a12ea16e26","6622c96509a8e4ba50166617","image grid","q","","","","","Phylogenetic_Distractor_Threat_target","2500","ongrid","q","4","Phylogenetic","true","experimental"
"","null","html-keyboard-response","255","280430","0.0-13.0-2.14","nWAJPKxfo5","6440ff579347d8f75783b52d","6617fad957f7c6a12ea16e26","6622c96509a8e4ba50166617","
    <div id=""grid-container"">
        <!-- Grid items will be dynamically added here -->
    </div>    ","null","","","","","","","","","","","",""
"","null","html-keyboard-response","256","281149","0.0-13.0-0.15","nWAJPKxfo5","6440ff579347d8f75783b52d","6617fad957f7c6a12ea16e26","6622c96509a8e4ba50166617","fixation cross","null","","","","","","","","","","","",""
"","893","html-keyboard-response","257","282043","0.0-13.0-1.15","nWAJPKxfo5","6440ff579347d8f75783b52d","6617fad957f7c6a12ea16e26","6622c96509a8e4ba50166617","image grid","q","","","","","Phylogenetic_Distractor_Threat_target","2500","ongrid","q","8","Phylogenetic","true","experimental"
"","null","html-keyboard-response","258","282200","0.0-13.0-2.15","nWAJPKxfo5","6440ff579347d8f75783b52d","6617fad957f7c6a12ea16e26","6622c96509a8e4ba50166617","
    <div id=""grid-container"">
        <!-- Grid items will be dynamically added here -->
    </div>    ","null","","","","","","","","","","","",""
"","null","html-keyboard-response","259","282923","0.0-13.0-0.16","nWAJPKxfo5","6440ff579347d8f75783b52d","6617fad957f7c6a12ea16e26","6622c96509a8e4ba50166617","fixation cross","null","","","","","","","","","","","",""
"","541","html-keyboard-response","260","283465","0.0-13.0-1.16","nWAJPKxfo5","6440ff579347d8f75783b52d","6617fad957f7c6a12ea16e26","6622c96509a8e4ba50166617","image grid","q","","","","","Phylogenetic_Distractor_Threat_target","2500","ongrid","q","5","Phylogenetic","true","experimental"
"","null","html-keyboard-response","261","283625","0.0-13.0-2.16","nWAJPKxfo5","6440ff579347d8f75783b52d","6617fad957f7c6a12ea16e26","6622c96509a8e4ba50166617","
    <div id=""grid-container"">
        <!-- Grid items will be dynamically added here -->
    </div>    ","null","","","","","","","","","","","",""
"","null","html-keyboard-response","262","284335","0.0-13.0-0.17","nWAJPKxfo5","6440ff579347d8f75783b52d","6617fad957f7c6a12ea16e26","6622c96509a8e4ba50166617","fixation cross","null","","","","","","","","","","","",""
"","889","html-keyboard-response","263","285224","0.0-13.0-1.17","nWAJPKxfo5","6440ff579347d8f75783b52d","6617fad957f7c6a12ea16e26","6622c96509a8e4ba50166617","image grid","p","","","","","Phylogenetic_Distractor_Nonthreat_target","2500","ongrid","p","8","Phylogenetic","true","experimental"
"","null","html-keyboard-response","264","285378","0.0-13.0-2.17","nWAJPKxfo5","6440ff579347d8f75783b52d","6617fad957f7c6a12ea16e26","6622c96509a8e4ba50166617","
    <div id=""grid-container"">
        <!-- Grid items will be dynamically added here -->
    </div>    ","null","","","","","","","","","","","",""
"","null","html-keyboard-response","265","286094","0.0-13.0-0.18","nWAJPKxfo5","6440ff579347d8f75783b52d","6617fad957f7c6a12ea16e26","6622c96509a8e4ba50166617","fixation cross","null","","","","","","","","","","","",""
"","1133","html-keyboard-response","266","287228","0.0-13.0-1.18","nWAJPKxfo5","6440ff579347d8f75783b52d","6617fad957f7c6a12ea16e26","6622c96509a8e4ba50166617","image grid","p","","","","","Phylogenetic_Distractor_Nonthreat_target","2500","ongrid","p","2","Phylogenetic","true","experimental"
"","null","html-keyboard-response","267","287389","0.0-13.0-2.18","nWAJPKxfo5","6440ff579347d8f75783b52d","6617fad957f7c6a12ea16e26","6622c96509a8e4ba50166617","
    <div id=""grid-container"">
        <!-- Grid items will be dynamically added here -->
    </div>    ","null","","","","","","","","","","","",""
"","null","html-keyboard-response","268","288107","0.0-13.0-0.19","nWAJPKxfo5","6440ff579347d8f75783b52d","6617fad957f7c6a12ea16e26","6622c96509a8e4ba50166617","fixation cross","null","","","","","","","","","","","",""
"","698","html-keyboard-response","269","288805","0.0-13.0-1.19","nWAJPKxfo5","6440ff579347d8f75783b52d","6617fad957f7c6a12ea16e26","6622c96509a8e4ba50166617","image grid","q","","","","","Phylogenetic_Distractor_Threat_target","2500","ongrid","q","5","Phylogenetic","true","experimental"
"","null","html-keyboard-response","270","288961","0.0-13.0-2.19","nWAJPKxfo5","6440ff579347d8f75783b52d","6617fad957f7c6a12ea16e26","6622c96509a8e4ba50166617","
    <div id=""grid-container"">
        <!-- Grid items will be dynamically added here -->
    </div>    ","null","","","","","","","","","","","",""
"","null","html-keyboard-response","271","289689","0.0-13.0-0.20","nWAJPKxfo5","6440ff579347d8f75783b52d","6617fad957f7c6a12ea16e26","6622c96509a8e4ba50166617","fixation cross","null","","","","","","","","","","","",""
"","863","html-keyboard-response","272","290553","0.0-13.0-1.20","nWAJPKxfo5","6440ff579347d8f75783b52d","6617fad957f7c6a12ea16e26","6622c96509a8e4ba50166617","image grid","p","","","","","Phylogenetic_Distractor_Nonthreat_target","2500","ongrid","p","4","Phylogenetic","true","experimental"
"","null","html-keyboard-response","273","290717","0.0-13.0-2.20","nWAJPKxfo5","6440ff579347d8f75783b52d","6617fad957f7c6a12ea16e26","6622c96509a8e4ba50166617","
    <div id=""grid-container"">
        <!-- Grid items will be dynamically added here -->
    </div>    ","null","","","","","","","","","","","",""
"","null","html-keyboard-response","274","291434","0.0-13.0-0.21","nWAJPKxfo5","6440ff579347d8f75783b52d","6617fad957f7c6a12ea16e26","6622c96509a8e4ba50166617","fixation cross","null","","","","","","","","","","","",""
"","1056","html-keyboard-response","275","292490","0.0-13.0-1.21","nWAJPKxfo5","6440ff579347d8f75783b52d","6617fad957f7c6a12ea16e26","6622c96509a8e4ba50166617","image grid","q","","","","","Phylogenetic_Distractor_Threat_target","2500","ongrid","q","3","Phylogenetic","true","experimental"
"","null","html-keyboard-response","276","292655","0.0-13.0-2.21","nWAJPKxfo5","6440ff579347d8f75783b52d","6617fad957f7c6a12ea16e26","6622c96509a8e4ba50166617","
    <div id=""grid-container"">
        <!-- Grid items will be dynamically added here -->
    </div>    ","null","","","","","","","","","","","",""
"","null","html-keyboard-response","277","293372","0.0-13.0-0.22","nWAJPKxfo5","6440ff579347d8f75783b52d","6617fad957f7c6a12ea16e26","6622c96509a8e4ba50166617","fixation cross","null","","","","","","","","","","","",""
"","1257","html-keyboard-response","278","294630","0.0-13.0-1.22","nWAJPKxfo5","6440ff579347d8f75783b52d","6617fad957f7c6a12ea16e26","6622c96509a8e4ba50166617","image grid","p","","","","","Phylogenetic_Distractor_Nonthreat_target","2500","ongrid","p","6","Phylogenetic","true","experimental"
"","null","html-keyboard-response","279","294789","0.0-13.0-2.22","nWAJPKxfo5","6440ff579347d8f75783b52d","6617fad957f7c6a12ea16e26","6622c96509a8e4ba50166617","
    <div id=""grid-container"">
        <!-- Grid items will be dynamically added here -->
    </div>    ","null","","","","","","","","","","","",""
"","null","html-keyboard-response","280","295497","0.0-13.0-0.23","nWAJPKxfo5","6440ff579347d8f75783b52d","6617fad957f7c6a12ea16e26","6622c96509a8e4ba50166617","fixation cross","null","","","","","","","","","","","",""
"","1966","html-keyboard-response","281","297464","0.0-13.0-1.23","nWAJPKxfo5","6440ff579347d8f75783b52d","6617fad957f7c6a12ea16e26","6622c96509a8e4ba50166617","image grid"," ","","","","","Phylogenetic_Distractor_notarget","2500","ongrid"," ","3","Phylogenetic","true","experimental"
"","null","html-keyboard-response","282","297627","0.0-13.0-2.23","nWAJPKxfo5","6440ff579347d8f75783b52d","6617fad957f7c6a12ea16e26","6622c96509a8e4ba50166617","
    <div id=""grid-container"">
        <!-- Grid items will be dynamically added here -->
    </div>    ","null","","","","","","","","","","","",""
"","null","html-keyboard-response","283","298340","0.0-13.0-0.24","nWAJPKxfo5","6440ff579347d8f75783b52d","6617fad957f7c6a12ea16e26","6622c96509a8e4ba50166617","fixation cross","null","","","","","","","","","","","",""
"","1222","html-keyboard-response","284","299563","0.0-13.0-1.24","nWAJPKxfo5","6440ff579347d8f75783b52d","6617fad957f7c6a12ea16e26","6622c96509a8e4ba50166617","image grid"," ","","","","","Phylogenetic_Distractor_notarget","2500","ongrid"," ","2","Phylogenetic","true","experimental"
"","null","html-keyboard-response","285","299724","0.0-13.0-2.24","nWAJPKxfo5","6440ff579347d8f75783b52d","6617fad957f7c6a12ea16e26","6622c96509a8e4ba50166617","
    <div id=""grid-container"">
        <!-- Grid items will be dynamically added here -->
    </div>    ","null","","","","","","","","","","","",""
"","null","html-keyboard-response","286","300441","0.0-13.0-0.25","nWAJPKxfo5","6440ff579347d8f75783b52d","6617fad957f7c6a12ea16e26","6622c96509a8e4ba50166617","fixation cross","null","","","","","","","","","","","",""
"","861","html-keyboard-response","287","301302","0.0-13.0-1.25","nWAJPKxfo5","6440ff579347d8f75783b52d","6617fad957f7c6a12ea16e26","6622c96509a8e4ba50166617","image grid","q","","","","","Phylogenetic_Distractor_Threat_target","2500","ongrid","q","8","Phylogenetic","true","experimental"
"","null","html-keyboard-response","288","301462","0.0-13.0-2.25","nWAJPKxfo5","6440ff579347d8f75783b52d","6617fad957f7c6a12ea16e26","6622c96509a8e4ba50166617","
    <div id=""grid-container"">
        <!-- Grid items will be dynamically added here -->
    </div>    ","null","","","","","","","","","","","",""
"","null","html-keyboard-response","289","302181","0.0-13.0-0.26","nWAJPKxfo5","6440ff579347d8f75783b52d","6617fad957f7c6a12ea16e26","6622c96509a8e4ba50166617","fixation cross","null","","","","","","","","","","","",""
"","1305","html-keyboard-response","290","303487","0.0-13.0-1.26","nWAJPKxfo5","6440ff579347d8f75783b52d","6617fad957f7c6a12ea16e26","6622c96509a8e4ba50166617","image grid","p","","","","","Phylogenetic_Distractor_Nonthreat_target","2500","ongrid","p","1","Phylogenetic","true","experimental"
"","null","html-keyboard-response","291","303653","0.0-13.0-2.26","nWAJPKxfo5","6440ff579347d8f75783b52d","6617fad957f7c6a12ea16e26","6622c96509a8e4ba50166617","
    <div id=""grid-container"">
        <!-- Grid items will be dynamically added here -->
    </div>    ","null","","","","","","","","","","","",""
"","null","html-keyboard-response","292","304372","0.0-13.0-0.27","nWAJPKxfo5","6440ff579347d8f75783b52d","6617fad957f7c6a12ea16e26","6622c96509a8e4ba50166617","fixation cross","null","","","","","","","","","","","",""
"","691","html-keyboard-response","293","305063","0.0-13.0-1.27","nWAJPKxfo5","6440ff579347d8f75783b52d","6617fad957f7c6a12ea16e26","6622c96509a8e4ba50166617","image grid","q","","","","","Phylogenetic_Distractor_Threat_target","2500","ongrid","q","5","Phylogenetic","true","experimental"
"","null","html-keyboard-response","294","305229","0.0-13.0-2.27","nWAJPKxfo5","6440ff579347d8f75783b52d","6617fad957f7c6a12ea16e26","6622c96509a8e4ba50166617","
    <div id=""grid-container"">
        <!-- Grid items will be dynamically added here -->
    </div>    ","null","","","","","","","","","","","",""
"","null","html-keyboard-response","295","305939","0.0-13.0-0.28","nWAJPKxfo5","6440ff579347d8f75783b52d","6617fad957f7c6a12ea16e26","6622c96509a8e4ba50166617","fixation cross","null","","","","","","","","","","","",""
"","565","html-keyboard-response","296","306505","0.0-13.0-1.28","nWAJPKxfo5","6440ff579347d8f75783b52d","6617fad957f7c6a12ea16e26","6622c96509a8e4ba50166617","image grid","q","","","","","Phylogenetic_Distractor_Threat_target","2500","ongrid","q","5","Phylogenetic","true","experimental"
"","null","html-keyboard-response","297","306656","0.0-13.0-2.28","nWAJPKxfo5","6440ff579347d8f75783b52d","6617fad957f7c6a12ea16e26","6622c96509a8e4ba50166617","
    <div id=""grid-container"">
        <!-- Grid items will be dynamically added here -->
    </div>    ","null","","","","","","","","","","","",""
"","null","html-keyboard-response","298","307361","0.0-13.0-0.29","nWAJPKxfo5","6440ff579347d8f75783b52d","6617fad957f7c6a12ea16e26","6622c96509a8e4ba50166617","fixation cross","null","","","","","","","","","","","",""
"","744","html-keyboard-response","299","308105","0.0-13.0-1.29","nWAJPKxfo5","6440ff579347d8f75783b52d","6617fad957f7c6a12ea16e26","6622c96509a8e4ba50166617","image grid","q","","","","","Phylogenetic_Distractor_Threat_target","2500","ongrid","q","3","Phylogenetic","true","experimental"
"","null","html-keyboard-response","300","308271","0.0-13.0-2.29","nWAJPKxfo5","6440ff579347d8f75783b52d","6617fad957f7c6a12ea16e26","6622c96509a8e4ba50166617","
    <div id=""grid-container"">
        <!-- Grid items will be dynamically added here -->
    </div>    ","null","","","","","","","","","","","",""
"","null","html-keyboard-response","301","308992","0.0-13.0-0.30","nWAJPKxfo5","6440ff579347d8f75783b52d","6617fad957f7c6a12ea16e26","6622c96509a8e4ba50166617","fixation cross","null","","","","","","","","","","","",""
"","1668","html-keyboard-response","302","310660","0.0-13.0-1.30","nWAJPKxfo5","6440ff579347d8f75783b52d","6617fad957f7c6a12ea16e26","6622c96509a8e4ba50166617","image grid"," ","","","","","Phylogenetic_Distractor_Nonthreat_target","2500","ongrid","p","6","Phylogenetic","false","experimental"
"","null","html-keyboard-response","303","310816","0.0-13.0-2.30","nWAJPKxfo5","6440ff579347d8f75783b52d","6617fad957f7c6a12ea16e26","6622c96509a8e4ba50166617","
    <div id=""grid-container"">
        <!-- Grid items will be dynamically added here -->
    </div>    ","null","","","","","","","","","","","",""
"","null","html-keyboard-response","304","311536","0.0-13.0-0.31","nWAJPKxfo5","6440ff579347d8f75783b52d","6617fad957f7c6a12ea16e26","6622c96509a8e4ba50166617","fixation cross","null","","","","","","","","","","","",""
"","1245","html-keyboard-response","305","312781","0.0-13.0-1.31","nWAJPKxfo5","6440ff579347d8f75783b52d","6617fad957f7c6a12ea16e26","6622c96509a8e4ba50166617","image grid"," ","","","","","Phylogenetic_Distractor_Nonthreat_target","2500","ongrid","p","7","Phylogenetic","false","experimental"
"","null","html-keyboard-response","306","312938","0.0-13.0-2.31","nWAJPKxfo5","6440ff579347d8f75783b52d","6617fad957f7c6a12ea16e26","6622c96509a8e4ba50166617","
    <div id=""grid-container"">
        <!-- Grid items will be dynamically added here -->
    </div>    ","null","","","","","","","","","","","",""
"","null","html-keyboard-response","307","313654","0.0-13.0-0.32","nWAJPKxfo5","6440ff579347d8f75783b52d","6617fad957f7c6a12ea16e26","6622c96509a8e4ba50166617","fixation cross","null","","","","","","","","","","","",""
"","1951","html-keyboard-response","308","315605","0.0-13.0-1.32","nWAJPKxfo5","6440ff579347d8f75783b52d","6617fad957f7c6a12ea16e26","6622c96509a8e4ba50166617","image grid","q","","","","","Phylogenetic_Distractor_Threat_target","2500","ongrid","q","9","Phylogenetic","true","experimental"
"","null","html-keyboard-response","309","315762","0.0-13.0-2.32","nWAJPKxfo5","6440ff579347d8f75783b52d","6617fad957f7c6a12ea16e26","6622c96509a8e4ba50166617","
    <div id=""grid-container"">
        <!-- Grid items will be dynamically added here -->
    </div>    ","null","","","","","","","","","","","",""
"","null","html-keyboard-response","310","316479","0.0-13.0-0.33","nWAJPKxfo5","6440ff579347d8f75783b52d","6617fad957f7c6a12ea16e26","6622c96509a8e4ba50166617","fixation cross","null","","","","","","","","","","","",""
"","1550","html-keyboard-response","311","318030","0.0-13.0-1.33","nWAJPKxfo5","6440ff579347d8f75783b52d","6617fad957f7c6a12ea16e26","6622c96509a8e4ba50166617","image grid"," ","","","","","Phylogenetic_Distractor_notarget","2500","ongrid"," ","8","Phylogenetic","true","experimental"
"","null","html-keyboard-response","312","318186","0.0-13.0-2.33","nWAJPKxfo5","6440ff579347d8f75783b52d","6617fad957f7c6a12ea16e26","6622c96509a8e4ba50166617","
    <div id=""grid-container"">
        <!-- Grid items will be dynamically added here -->
    </div>    ","null","","","","","","","","","","","",""
"","null","html-keyboard-response","313","318894","0.0-13.0-0.34","nWAJPKxfo5","6440ff579347d8f75783b52d","6617fad957f7c6a12ea16e26","6622c96509a8e4ba50166617","fixation cross","null","","","","","","","","","","","",""
"","911","html-keyboard-response","314","319805","0.0-13.0-1.34","nWAJPKxfo5","6440ff579347d8f75783b52d","6617fad957f7c6a12ea16e26","6622c96509a8e4ba50166617","image grid","q","","","","","Phylogenetic_Distractor_Threat_target","2500","ongrid","q","5","Phylogenetic","true","experimental"
"","null","html-keyboard-response","315","319961","0.0-13.0-2.34","nWAJPKxfo5","6440ff579347d8f75783b52d","6617fad957f7c6a12ea16e26","6622c96509a8e4ba50166617","
    <div id=""grid-container"">
        <!-- Grid items will be dynamically added here -->
    </div>    ","null","","","","","","","","","","","",""
"","null","html-keyboard-response","316","320670","0.0-13.0-0.35","nWAJPKxfo5","6440ff579347d8f75783b52d","6617fad957f7c6a12ea16e26","6622c96509a8e4ba50166617","fixation cross","null","","","","","","","","","","","",""
"","917","html-keyboard-response","317","321588","0.0-13.0-1.35","nWAJPKxfo5","6440ff579347d8f75783b52d","6617fad957f7c6a12ea16e26","6622c96509a8e4ba50166617","image grid","p","","","","","Phylogenetic_Distractor_Nonthreat_target","2500","ongrid","p","2","Phylogenetic","true","experimental"
"","null","html-keyboard-response","318","321753","0.0-13.0-2.35","nWAJPKxfo5","6440ff579347d8f75783b52d","6617fad957f7c6a12ea16e26","6622c96509a8e4ba50166617","
    <div id=""grid-container"">
        <!-- Grid items will be dynamically added here -->
    </div>    ","null","","","","","","","","","","","",""
"","null","html-keyboard-response","319","322468","0.0-13.0-0.36","nWAJPKxfo5","6440ff579347d8f75783b52d","6617fad957f7c6a12ea16e26","6622c96509a8e4ba50166617","fixation cross","null","","","","","","","","","","","",""
"","852","html-keyboard-response","320","323320","0.0-13.0-1.36","nWAJPKxfo5","6440ff579347d8f75783b52d","6617fad957f7c6a12ea16e26","6622c96509a8e4ba50166617","image grid","q","","","","","Phylogenetic_Distractor_Threat_target","2500","ongrid","q","4","Phylogenetic","true","experimental"
"","null","html-keyboard-response","321","323480","0.0-13.0-2.36","nWAJPKxfo5","6440ff579347d8f75783b52d","6617fad957f7c6a12ea16e26","6622c96509a8e4ba50166617","
    <div id=""grid-container"">
        <!-- Grid items will be dynamically added here -->
    </div>    ","null","","","","","","","","","","","",""
"","null","html-keyboard-response","322","324195","0.0-13.0-0.37","nWAJPKxfo5","6440ff579347d8f75783b52d","6617fad957f7c6a12ea16e26","6622c96509a8e4ba50166617","fixation cross","null","","","","","","","","","","","",""
"","594","html-keyboard-response","323","324790","0.0-13.0-1.37","nWAJPKxfo5","6440ff579347d8f75783b52d","6617fad957f7c6a12ea16e26","6622c96509a8e4ba50166617","image grid","q","","","","","Phylogenetic_Distractor_Threat_target","2500","ongrid","q","5","Phylogenetic","true","experimental"
"","null","html-keyboard-response","324","324948","0.0-13.0-2.37","nWAJPKxfo5","6440ff579347d8f75783b52d","6617fad957f7c6a12ea16e26","6622c96509a8e4ba50166617","
    <div id=""grid-container"">
        <!-- Grid items will be dynamically added here -->
    </div>    ","null","","","","","","","","","","","",""
"","null","html-keyboard-response","325","325654","0.0-13.0-0.38","nWAJPKxfo5","6440ff579347d8f75783b52d","6617fad957f7c6a12ea16e26","6622c96509a8e4ba50166617","fixation cross","null","","","","","","","","","","","",""
"","1172","html-keyboard-response","326","326826","0.0-13.0-1.38","nWAJPKxfo5","6440ff579347d8f75783b52d","6617fad957f7c6a12ea16e26","6622c96509a8e4ba50166617","image grid","p","","","","","Phylogenetic_Distractor_Nonthreat_target","2500","ongrid","p","3","Phylogenetic","true","experimental"
"","null","html-keyboard-response","327","326982","0.0-13.0-2.38","nWAJPKxfo5","6440ff579347d8f75783b52d","6617fad957f7c6a12ea16e26","6622c96509a8e4ba50166617","
    <div id=""grid-container"">
        <!-- Grid items will be dynamically added here -->
    </div>    ","null","","","","","","","","","","","",""
"","null","html-keyboard-response","328","327713","0.0-13.0-0.39","nWAJPKxfo5","6440ff579347d8f75783b52d","6617fad957f7c6a12ea16e26","6622c96509a8e4ba50166617","fixation cross","null","","","","","","","","","","","",""
"","933","html-keyboard-response","329","328646","0.0-13.0-1.39","nWAJPKxfo5","6440ff579347d8f75783b52d","6617fad957f7c6a12ea16e26","6622c96509a8e4ba50166617","image grid","q","","","","","Phylogenetic_Distractor_Threat_target","2500","ongrid","q","7","Phylogenetic","true","experimental"
"","null","html-keyboard-response","330","328805","0.0-13.0-2.39","nWAJPKxfo5","6440ff579347d8f75783b52d","6617fad957f7c6a12ea16e26","6622c96509a8e4ba50166617","
    <div id=""grid-container"">
        <!-- Grid items will be dynamically added here -->
    </div>    ","null","","","","","","","","","","","",""
"","2007","html-keyboard-response","331","331015","0.0-14.0","nWAJPKxfo5","6440ff579347d8f75783b52d","6617fad957f7c6a12ea16e26","6622c96509a8e4ba50166617","break screen","p","","","","","","","","","","","",""
"","null","html-keyboard-response","332","333529","0.0-15.0-0.0","nWAJPKxfo5","6440ff579347d8f75783b52d","6617fad957f7c6a12ea16e26","6622c96509a8e4ba50166617","fixation cross","null","","","","","","","","","","","",""
"","null","html-keyboard-response","333","334343","0.0-15.0-1.0","nWAJPKxfo5","6440ff579347d8f75783b52d","6617fad957f7c6a12ea16e26","6622c96509a8e4ba50166617","
        <div id=""grid-container"">
        <!-- Grid items will be dynamically added here -->
    </div>    ","null","","","","","","","","","","","",""
"","800","html-keyboard-response","334","339353","0.0-15.0-2.0","nWAJPKxfo5","6440ff579347d8f75783b52d","6617fad957f7c6a12ea16e26","6622c96509a8e4ba50166617","mask grid","null","","","","","Ontogenetic_Distractor_Nonthreat_target","800","onmask","p","5","Ontogenetic","false","experimental"
"","null","html-keyboard-response","335","340066","0.0-15.0-0.1","nWAJPKxfo5","6440ff579347d8f75783b52d","6617fad957f7c6a12ea16e26","6622c96509a8e4ba50166617","fixation cross","null","","","","","","","","","","","",""
"","null","html-keyboard-response","336","340867","0.0-15.0-1.1","nWAJPKxfo5","6440ff579347d8f75783b52d","6617fad957f7c6a12ea16e26","6622c96509a8e4ba50166617","
        <div id=""grid-container"">
        <!-- Grid items will be dynamically added here -->
    </div>    ","null","","","","","","","","","","","",""
"","1523","html-keyboard-response","337","341590","0.0-15.0-2.1","nWAJPKxfo5","6440ff579347d8f75783b52d","6617fad957f7c6a12ea16e26","6622c96509a8e4ba50166617","mask grid","q","","","","","Ontogenetic_Distractor_Nonthreat_target","800","onmask","p","9","Ontogenetic","false","experimental"
"","null","html-keyboard-response","338","342311","0.0-15.0-0.2","nWAJPKxfo5","6440ff579347d8f75783b52d","6617fad957f7c6a12ea16e26","6622c96509a8e4ba50166617","fixation cross","null","","","","","","","","","","","",""
"","781","html-keyboard-response","339","343092","0.0-15.0-1.2","nWAJPKxfo5","6440ff579347d8f75783b52d","6617fad957f7c6a12ea16e26","6622c96509a8e4ba50166617","image grid","q","","","","","Ontogenetic_Distractor_Threat_target","800","ongrid","q","5","Ontogenetic","true","experimental"
"","null","html-keyboard-response","340","343249","0.0-15.0-2.2","nWAJPKxfo5","6440ff579347d8f75783b52d","6617fad957f7c6a12ea16e26","6622c96509a8e4ba50166617","
    <div id=""grid-container"">
        <!-- Grid items will be dynamically added here -->
    </div>    ","null","","","","","","","","","","","",""
"","null","html-keyboard-response","341","343979","0.0-15.0-0.3","nWAJPKxfo5","6440ff579347d8f75783b52d","6617fad957f7c6a12ea16e26","6622c96509a8e4ba50166617","fixation cross","null","","","","","","","","","","","",""
"","null","html-keyboard-response","342","344791","0.0-15.0-1.3","nWAJPKxfo5","6440ff579347d8f75783b52d","6617fad957f7c6a12ea16e26","6622c96509a8e4ba50166617","
        <div id=""grid-container"">
        <!-- Grid items will be dynamically added here -->
    </div>    ","null","","","","","","","","","","","",""
"","1656","html-keyboard-response","343","345648","0.0-15.0-2.3","nWAJPKxfo5","6440ff579347d8f75783b52d","6617fad957f7c6a12ea16e26","6622c96509a8e4ba50166617","mask grid","p","","","","","Ontogenetic_Distractor_Nonthreat_target","800","onmask","p","1","Ontogenetic","true","experimental"
"","null","html-keyboard-response","344","346360","0.0-15.0-0.4","nWAJPKxfo5","6440ff579347d8f75783b52d","6617fad957f7c6a12ea16e26","6622c96509a8e4ba50166617","fixation cross","null","","","","","","","","","","","",""
"","null","html-keyboard-response","345","347175","0.0-15.0-1.4","nWAJPKxfo5","6440ff579347d8f75783b52d","6617fad957f7c6a12ea16e26","6622c96509a8e4ba50166617","
        <div id=""grid-container"">
        <!-- Grid items will be dynamically added here -->
    </div>    ","null","","","","","","","","","","","",""
"","1285","html-keyboard-response","346","347661","0.0-15.0-2.4","nWAJPKxfo5","6440ff579347d8f75783b52d","6617fad957f7c6a12ea16e26","6622c96509a8e4ba50166617","mask grid","p","","","","","Ontogenetic_Distractor_Nonthreat_target","800","onmask","p","6","Ontogenetic","true","experimental"
"","null","html-keyboard-response","347","348389","0.0-15.0-0.5","nWAJPKxfo5","6440ff579347d8f75783b52d","6617fad957f7c6a12ea16e26","6622c96509a8e4ba50166617","fixation cross","null","","","","","","","","","","","",""
"","773","html-keyboard-response","348","349162","0.0-15.0-1.5","nWAJPKxfo5","6440ff579347d8f75783b52d","6617fad957f7c6a12ea16e26","6622c96509a8e4ba50166617","image grid","q","","","","","Ontogenetic_Distractor_Threat_target","800","ongrid","q","7","Ontogenetic","true","experimental"
"","null","html-keyboard-response","349","349316","0.0-15.0-2.5","nWAJPKxfo5","6440ff579347d8f75783b52d","6617fad957f7c6a12ea16e26","6622c96509a8e4ba50166617","
    <div id=""grid-container"">
        <!-- Grid items will be dynamically added here -->
    </div>    ","null","","","","","","","","","","","",""
"","null","html-keyboard-response","350","350026","0.0-15.0-0.6","nWAJPKxfo5","6440ff579347d8f75783b52d","6617fad957f7c6a12ea16e26","6622c96509a8e4ba50166617","fixation cross","null","","","","","","","","","","","",""
"","null","html-keyboard-response","351","350831","0.0-15.0-1.6","nWAJPKxfo5","6440ff579347d8f75783b52d","6617fad957f7c6a12ea16e26","6622c96509a8e4ba50166617","
        <div id=""grid-container"">
        <!-- Grid items will be dynamically added here -->
    </div>    ","null","","","","","","","","","","","",""
"","1117","html-keyboard-response","352","351148","0.0-15.0-2.6","nWAJPKxfo5","6440ff579347d8f75783b52d","6617fad957f7c6a12ea16e26","6622c96509a8e4ba50166617","mask grid","p","","","","","Ontogenetic_Distractor_Nonthreat_target","800","onmask","p","5","Ontogenetic","true","experimental"
"","null","html-keyboard-response","353","351873","0.0-15.0-0.7","nWAJPKxfo5","6440ff579347d8f75783b52d","6617fad957f7c6a12ea16e26","6622c96509a8e4ba50166617","fixation cross","null","","","","","","","","","","","",""
"","null","html-keyboard-response","354","352682","0.0-15.0-1.7","nWAJPKxfo5","6440ff579347d8f75783b52d","6617fad957f7c6a12ea16e26","6622c96509a8e4ba50166617","
        <div id=""grid-container"">
        <!-- Grid items will be dynamically added here -->
    </div>    ","null","","","","","","","","","","","",""
"","1423","html-keyboard-response","355","353306","0.0-15.0-2.7","nWAJPKxfo5","6440ff579347d8f75783b52d","6617fad957f7c6a12ea16e26","6622c96509a8e4ba50166617","mask grid","p","","","","","Ontogenetic_Distractor_Nonthreat_target","800","onmask","p","4","Ontogenetic","true","experimental"
"","null","html-keyboard-response","356","354015","0.0-15.0-0.8","nWAJPKxfo5","6440ff579347d8f75783b52d","6617fad957f7c6a12ea16e26","6622c96509a8e4ba50166617","fixation cross","null","","","","","","","","","","","",""
"","null","html-keyboard-response","357","354829","0.0-15.0-1.8","nWAJPKxfo5","6440ff579347d8f75783b52d","6617fad957f7c6a12ea16e26","6622c96509a8e4ba50166617","
        <div id=""grid-container"">
        <!-- Grid items will be dynamically added here -->
    </div>    ","null","","","","","","","","","","","",""
"","1078","html-keyboard-response","358","355108","0.0-15.0-2.8","nWAJPKxfo5","6440ff579347d8f75783b52d","6617fad957f7c6a12ea16e26","6622c96509a8e4ba50166617","mask grid","q","","","","","Ontogenetic_Distractor_Threat_target","800","onmask","q","3","Ontogenetic","true","experimental"
"","null","html-keyboard-response","359","355837","0.0-15.0-0.9","nWAJPKxfo5","6440ff579347d8f75783b52d","6617fad957f7c6a12ea16e26","6622c96509a8e4ba50166617","fixation cross","null","","","","","","","","","","","",""
"","null","html-keyboard-response","360","356654","0.0-15.0-1.9","nWAJPKxfo5","6440ff579347d8f75783b52d","6617fad957f7c6a12ea16e26","6622c96509a8e4ba50166617","
        <div id=""grid-container"">
        <!-- Grid items will be dynamically added here -->
    </div>    ","null","","","","","","","","","","","",""
"","1120","html-keyboard-response","361","356974","0.0-15.0-2.9","nWAJPKxfo5","6440ff579347d8f75783b52d","6617fad957f7c6a12ea16e26","6622c96509a8e4ba50166617","mask grid","q","","","","","Ontogenetic_Distractor_Threat_target","800","onmask","q","8","Ontogenetic","true","experimental"
"","null","html-keyboard-response","362","357692","0.0-15.0-0.10","nWAJPKxfo5","6440ff579347d8f75783b52d","6617fad957f7c6a12ea16e26","6622c96509a8e4ba50166617","fixation cross","null","","","","","","","","","","","",""
"","null","html-keyboard-response","363","358508","0.0-15.0-1.10","nWAJPKxfo5","6440ff579347d8f75783b52d","6617fad957f7c6a12ea16e26","6622c96509a8e4ba50166617","
        <div id=""grid-container"">
        <!-- Grid items will be dynamically added here -->
    </div>    ","null","","","","","","","","","","","",""
"","1125","html-keyboard-response","364","358833","0.0-15.0-2.10","nWAJPKxfo5","6440ff579347d8f75783b52d","6617fad957f7c6a12ea16e26","6622c96509a8e4ba50166617","mask grid","q","","","","","Ontogenetic_Distractor_Threat_target","800","onmask","q","1","Ontogenetic","true","experimental"
"","null","html-keyboard-response","365","359537","0.0-15.0-0.11","nWAJPKxfo5","6440ff579347d8f75783b52d","6617fad957f7c6a12ea16e26","6622c96509a8e4ba50166617","fixation cross","null","","","","","","","","","","","",""
"","null","html-keyboard-response","366","360351","0.0-15.0-1.11","nWAJPKxfo5","6440ff579347d8f75783b52d","6617fad957f7c6a12ea16e26","6622c96509a8e4ba50166617","
        <div id=""grid-container"">
        <!-- Grid items will be dynamically added here -->
    </div>    ","null","","","","","","","","","","","",""
"","952","html-keyboard-response","367","360503","0.0-15.0-2.11","nWAJPKxfo5","6440ff579347d8f75783b52d","6617fad957f7c6a12ea16e26","6622c96509a8e4ba50166617","mask grid","q","","","","","Ontogenetic_Distractor_Threat_target","800","onmask","q","5","Ontogenetic","true","experimental"
"","null","html-keyboard-response","368","361217","0.0-15.0-0.12","nWAJPKxfo5","6440ff579347d8f75783b52d","6617fad957f7c6a12ea16e26","6622c96509a8e4ba50166617","fixation cross","null","","","","","","","","","","","",""
"","null","html-keyboard-response","369","362031","0.0-15.0-1.12","nWAJPKxfo5","6440ff579347d8f75783b52d","6617fad957f7c6a12ea16e26","6622c96509a8e4ba50166617","
        <div id=""grid-container"">
        <!-- Grid items will be dynamically added here -->
    </div>    ","null","","","","","","","","","","","",""
