"success","rt","trial_type","trial_index","time_elapsed","internal_node_id","unique_identifier","subject_id","study_id","session_id","stimulus","response","timeout","failed_images","failed_audio","failed_video","task","time_manipulation","respondedwhen","correctresponse","targetimagelocation","blocktype","correct","roundtype"
"true","2485","fullscreen","0","3499","0.0-0.0","Ay0j73sa3E","5f724539c03c5415829579a6","6617fad957f7c6a12ea16e26","6622c93faef7ae31af983887","","","","","","","","","","","","","",""
"","11082","html-keyboard-response","1","14583","0.0-1.0","Ay0j73sa3E","5f724539c03c5415829579a6","6617fad957f7c6a12ea16e26","6622c93faef7ae31af983887","instruction screen 0"," ","","","","","","","","","","","",""
"true","","preload","2","17206","0.0-2.0","Ay0j73sa3E","5f724539c03c5415829579a6","6617fad957f7c6a12ea16e26","6622c93faef7ae31af983887","","","false","[]","[]","[]","","","","","","","",""
"","13148","html-keyboard-response","3","30355","0.0-3.0","Ay0j73sa3E","5f724539c03c5415829579a6","6617fad957f7c6a12ea16e26","6622c93faef7ae31af983887","instruction screen 1"," ","","","","","","","","","","","",""
"","15502","html-keyboard-response","4","45859","0.0-4.0","Ay0j73sa3E","5f724539c03c5415829579a6","6617fad957f7c6a12ea16e26","6622c93faef7ae31af983887","instruction screen 2","q","","","","","","","","","","","",""
"","8912","html-keyboard-response","5","54772","0.0-5.0","Ay0j73sa3E","5f724539c03c5415829579a6","6617fad957f7c6a12ea16e26","6622c93faef7ae31af983887","instruction screen 3","p","","","","","","","","","","","",""
"","7287","html-keyboard-response","6","62059","0.0-6.0","Ay0j73sa3E","5f724539c03c5415829579a6","6617fad957f7c6a12ea16e26","6622c93faef7ae31af983887","instruction screen 4"," ","","","","","","","","","","","",""
"","20375","html-keyboard-response","7","82434","0.0-7.0","Ay0j73sa3E","5f724539c03c5415829579a6","6617fad957f7c6a12ea16e26","6622c93faef7ae31af983887","instruction screen 5"," ","","","","","","","","","","","",""
"","null","html-keyboard-response","8","82938","0.0-8.0","Ay0j73sa3E","5f724539c03c5415829579a6","6617fad957f7c6a12ea16e26","6622c93faef7ae31af983887","fixation cross","null","","","","","","","","","","","",""
"","null","html-keyboard-response","9","83440","0.0-9.0-0.0","Ay0j73sa3E","5f724539c03c5415829579a6","6617fad957f7c6a12ea16e26","6622c93faef7ae31af983887","fixation cross","null","","","","","","","","","","","",""
"","1622","html-keyboard-response","10","85063","0.0-9.0-1.0","Ay0j73sa3E","5f724539c03c5415829579a6","6617fad957f7c6a12ea16e26","6622c93faef7ae31af983887","image grid","q","","","","","Ontogenetic_Distractor_Threat_target","3000","ongrid","q","9","Phylogenetic","true","practice"
"","null","html-keyboard-response","11","85224","0.0-9.0-2.0","Ay0j73sa3E","5f724539c03c5415829579a6","6617fad957f7c6a12ea16e26","6622c93faef7ae31af983887","
    <div id=""grid-container"">
        <!-- Grid items will be dynamically added here -->
    </div>    ","null","","","","","","","","","","","",""
"","null","html-keyboard-response","12","86439","0.0-9.0-3.0","Ay0j73sa3E","5f724539c03c5415829579a6","6617fad957f7c6a12ea16e26","6622c93faef7ae31af983887","feedback screen","null","","","","","","","","","","","",""
"","null","html-keyboard-response","13","86945","0.0-9.0-0.1","Ay0j73sa3E","5f724539c03c5415829579a6","6617fad957f7c6a12ea16e26","6622c93faef7ae31af983887","fixation cross","null","","","","","","","","","","","",""
"","1117","html-keyboard-response","14","88064","0.0-9.0-1.1","Ay0j73sa3E","5f724539c03c5415829579a6","6617fad957f7c6a12ea16e26","6622c93faef7ae31af983887","image grid","p","","","","","Ontogenetic_Distractor_Nonthreat_target","2900","ongrid","p","9","Phylogenetic","true","practice"
"","null","html-keyboard-response","15","88223","0.0-9.0-2.1","Ay0j73sa3E","5f724539c03c5415829579a6","6617fad957f7c6a12ea16e26","6622c93faef7ae31af983887","
    <div id=""grid-container"">
        <!-- Grid items will be dynamically added here -->
    </div>    ","null","","","","","","","","","","","",""
"","null","html-keyboard-response","16","89440","0.0-9.0-3.1","Ay0j73sa3E","5f724539c03c5415829579a6","6617fad957f7c6a12ea16e26","6622c93faef7ae31af983887","feedback screen","null","","","","","","","","","","","",""
"","null","html-keyboard-response","17","89945","0.0-9.0-0.2","Ay0j73sa3E","5f724539c03c5415829579a6","6617fad957f7c6a12ea16e26","6622c93faef7ae31af983887","fixation cross","null","","","","","","","","","","","",""
"","1055","html-keyboard-response","18","91000","0.0-9.0-1.2","Ay0j73sa3E","5f724539c03c5415829579a6","6617fad957f7c6a12ea16e26","6622c93faef7ae31af983887","image grid","p","","","","","Ontogenetic_Distractor_Nonthreat_target","2800","ongrid","p","1","Phylogenetic","true","practice"
"","null","html-keyboard-response","19","91157","0.0-9.0-2.2","Ay0j73sa3E","5f724539c03c5415829579a6","6617fad957f7c6a12ea16e26","6622c93faef7ae31af983887","
    <div id=""grid-container"">
        <!-- Grid items will be dynamically added here -->
    </div>    ","null","","","","","","","","","","","",""
"","null","html-keyboard-response","20","92438","0.0-9.0-3.2","Ay0j73sa3E","5f724539c03c5415829579a6","6617fad957f7c6a12ea16e26","6622c93faef7ae31af983887","feedback screen","null","","","","","","","","","","","",""
"","null","html-keyboard-response","21","92943","0.0-9.0-0.3","Ay0j73sa3E","5f724539c03c5415829579a6","6617fad957f7c6a12ea16e26","6622c93faef7ae31af983887","fixation cross","null","","","","","","","","","","","",""
"","1407","html-keyboard-response","22","94350","0.0-9.0-1.3","Ay0j73sa3E","5f724539c03c5415829579a6","6617fad957f7c6a12ea16e26","6622c93faef7ae31af983887","image grid"," ","","","","","Phylogenetic_Distractor_Nonthreat_target","2700","ongrid","p","4","Phylogenetic","false","practice"
"","null","html-keyboard-response","23","94500","0.0-9.0-2.3","Ay0j73sa3E","5f724539c03c5415829579a6","6617fad957f7c6a12ea16e26","6622c93faef7ae31af983887","
    <div id=""grid-container"">
        <!-- Grid items will be dynamically added here -->
    </div>    ","null","","","","","","","","","","","",""
"","null","html-keyboard-response","24","95718","0.0-9.0-3.3","Ay0j73sa3E","5f724539c03c5415829579a6","6617fad957f7c6a12ea16e26","6622c93faef7ae31af983887","feedback screen","null","","","","","","","","","","","",""
"","null","html-keyboard-response","25","96222","0.0-9.0-0.4","Ay0j73sa3E","5f724539c03c5415829579a6","6617fad957f7c6a12ea16e26","6622c93faef7ae31af983887","fixation cross","null","","","","","","","","","","","",""
"","1387","html-keyboard-response","26","97610","0.0-9.0-1.4","Ay0j73sa3E","5f724539c03c5415829579a6","6617fad957f7c6a12ea16e26","6622c93faef7ae31af983887","image grid"," ","","","","","Ontogenetic_Distractor_notarget","2600","ongrid"," ","5","Phylogenetic","true","practice"
"","null","html-keyboard-response","27","97766","0.0-9.0-2.4","Ay0j73sa3E","5f724539c03c5415829579a6","6617fad957f7c6a12ea16e26","6622c93faef7ae31af983887","
    <div id=""grid-container"">
        <!-- Grid items will be dynamically added here -->
    </div>    ","null","","","","","","","","","","","",""
"","null","html-keyboard-response","28","98975","0.0-9.0-3.4","Ay0j73sa3E","5f724539c03c5415829579a6","6617fad957f7c6a12ea16e26","6622c93faef7ae31af983887","feedback screen","null","","","","","","","","","","","",""
"","null","html-keyboard-response","29","99483","0.0-9.0-0.5","Ay0j73sa3E","5f724539c03c5415829579a6","6617fad957f7c6a12ea16e26","6622c93faef7ae31af983887","fixation cross","null","","","","","","","","","","","",""
"","1033","html-keyboard-response","30","100514","0.0-9.0-1.5","Ay0j73sa3E","5f724539c03c5415829579a6","6617fad957f7c6a12ea16e26","6622c93faef7ae31af983887","image grid","q","","","","","Ontogenetic_Distractor_Threat_target","2500","ongrid","q","9","Phylogenetic","true","practice"
"","null","html-keyboard-response","31","100667","0.0-9.0-2.5","Ay0j73sa3E","5f724539c03c5415829579a6","6617fad957f7c6a12ea16e26","6622c93faef7ae31af983887","
    <div id=""grid-container"">
        <!-- Grid items will be dynamically added here -->
    </div>    ","null","","","","","","","","","","","",""
"","null","html-keyboard-response","32","101886","0.0-9.0-3.5","Ay0j73sa3E","5f724539c03c5415829579a6","6617fad957f7c6a12ea16e26","6622c93faef7ae31af983887","feedback screen","null","","","","","","","","","","","",""
"","null","html-keyboard-response","33","102391","0.0-9.0-0.6","Ay0j73sa3E","5f724539c03c5415829579a6","6617fad957f7c6a12ea16e26","6622c93faef7ae31af983887","fixation cross","null","","","","","","","","","","","",""
"","1745","html-keyboard-response","34","104137","0.0-9.0-1.6","Ay0j73sa3E","5f724539c03c5415829579a6","6617fad957f7c6a12ea16e26","6622c93faef7ae31af983887","image grid"," ","","","","","Phylogenetic_Distractor_Threat_target","2400","ongrid","q","4","Phylogenetic","false","practice"
"","null","html-keyboard-response","35","104292","0.0-9.0-2.6","Ay0j73sa3E","5f724539c03c5415829579a6","6617fad957f7c6a12ea16e26","6622c93faef7ae31af983887","
    <div id=""grid-container"">
        <!-- Grid items will be dynamically added here -->
    </div>    ","null","","","","","","","","","","","",""
"","null","html-keyboard-response","36","105506","0.0-9.0-3.6","Ay0j73sa3E","5f724539c03c5415829579a6","6617fad957f7c6a12ea16e26","6622c93faef7ae31af983887","feedback screen","null","","","","","","","","","","","",""
"","null","html-keyboard-response","37","106013","0.0-9.0-0.7","Ay0j73sa3E","5f724539c03c5415829579a6","6617fad957f7c6a12ea16e26","6622c93faef7ae31af983887","fixation cross","null","","","","","","","","","","","",""
"","1409","html-keyboard-response","38","107422","0.0-9.0-1.7","Ay0j73sa3E","5f724539c03c5415829579a6","6617fad957f7c6a12ea16e26","6622c93faef7ae31af983887","image grid","q","","","","","Ontogenetic_Distractor_Threat_target","2300","ongrid","q","1","Phylogenetic","true","practice"
"","null","html-keyboard-response","39","107579","0.0-9.0-2.7","Ay0j73sa3E","5f724539c03c5415829579a6","6617fad957f7c6a12ea16e26","6622c93faef7ae31af983887","
    <div id=""grid-container"">
        <!-- Grid items will be dynamically added here -->
    </div>    ","null","","","","","","","","","","","",""
"","null","html-keyboard-response","40","108797","0.0-9.0-3.7","Ay0j73sa3E","5f724539c03c5415829579a6","6617fad957f7c6a12ea16e26","6622c93faef7ae31af983887","feedback screen","null","","","","","","","","","","","",""
"","null","html-keyboard-response","41","109311","0.0-9.0-0.8","Ay0j73sa3E","5f724539c03c5415829579a6","6617fad957f7c6a12ea16e26","6622c93faef7ae31af983887","fixation cross","null","","","","","","","","","","","",""
"","2029","html-keyboard-response","42","111340","0.0-9.0-1.8","Ay0j73sa3E","5f724539c03c5415829579a6","6617fad957f7c6a12ea16e26","6622c93faef7ae31af983887","image grid"," ","","","","","Phylogenetic_Distractor_notarget","2200","ongrid"," ","9","Phylogenetic","true","practice"
"","null","html-keyboard-response","43","111503","0.0-9.0-2.8","Ay0j73sa3E","5f724539c03c5415829579a6","6617fad957f7c6a12ea16e26","6622c93faef7ae31af983887","
    <div id=""grid-container"">
        <!-- Grid items will be dynamically added here -->
    </div>    ","null","","","","","","","","","","","",""
"","null","html-keyboard-response","44","112721","0.0-9.0-3.8","Ay0j73sa3E","5f724539c03c5415829579a6","6617fad957f7c6a12ea16e26","6622c93faef7ae31af983887","feedback screen","null","","","","","","","","","","","",""
"","null","html-keyboard-response","45","113224","0.0-9.0-0.9","Ay0j73sa3E","5f724539c03c5415829579a6","6617fad957f7c6a12ea16e26","6622c93faef7ae31af983887","fixation cross","null","","","","","","","","","","","",""
"","981","html-keyboard-response","46","114206","0.0-9.0-1.9","Ay0j73sa3E","5f724539c03c5415829579a6","6617fad957f7c6a12ea16e26","6622c93faef7ae31af983887","image grid","p","","","","","Phylogenetic_Distractor_Nonthreat_target","2100","ongrid","p","1","Phylogenetic","true","practice"
"","null","html-keyboard-response","47","114372","0.0-9.0-2.9","Ay0j73sa3E","5f724539c03c5415829579a6","6617fad957f7c6a12ea16e26","6622c93faef7ae31af983887","
    <div id=""grid-container"">
        <!-- Grid items will be dynamically added here -->
    </div>    ","null","","","","","","","","","","","",""
"","null","html-keyboard-response","48","115584","0.0-9.0-3.9","Ay0j73sa3E","5f724539c03c5415829579a6","6617fad957f7c6a12ea16e26","6622c93faef7ae31af983887","feedback screen","null","","","","","","","","","","","",""
"","null","html-keyboard-response","49","116087","0.0-9.0-0.10","Ay0j73sa3E","5f724539c03c5415829579a6","6617fad957f7c6a12ea16e26","6622c93faef7ae31af983887","fixation cross","null","","","","","","","","","","","",""
"","1418","html-keyboard-response","50","117506","0.0-9.0-1.10","Ay0j73sa3E","5f724539c03c5415829579a6","6617fad957f7c6a12ea16e26","6622c93faef7ae31af983887","image grid","p","","","","","Phylogenetic_Distractor_Threat_target","2000","ongrid","q","6","Phylogenetic","false","practice"
"","null","html-keyboard-response","51","117667","0.0-9.0-2.10","Ay0j73sa3E","5f724539c03c5415829579a6","6617fad957f7c6a12ea16e26","6622c93faef7ae31af983887","
    <div id=""grid-container"">
        <!-- Grid items will be dynamically added here -->
    </div>    ","null","","","","","","","","","","","",""
"","null","html-keyboard-response","52","118889","0.0-9.0-3.10","Ay0j73sa3E","5f724539c03c5415829579a6","6617fad957f7c6a12ea16e26","6622c93faef7ae31af983887","feedback screen","null","","","","","","","","","","","",""
"","null","html-keyboard-response","53","119393","0.0-9.0-0.11","Ay0j73sa3E","5f724539c03c5415829579a6","6617fad957f7c6a12ea16e26","6622c93faef7ae31af983887","fixation cross","null","","","","","","","","","","","",""
"","1380","html-keyboard-response","54","120774","0.0-9.0-1.11","Ay0j73sa3E","5f724539c03c5415829579a6","6617fad957f7c6a12ea16e26","6622c93faef7ae31af983887","image grid"," ","","","","","Phylogenetic_Distractor_Nonthreat_target","1900","ongrid","p","6","Phylogenetic","false","practice"
"","null","html-keyboard-response","55","120936","0.0-9.0-2.11","Ay0j73sa3E","5f724539c03c5415829579a6","6617fad957f7c6a12ea16e26","6622c93faef7ae31af983887","
    <div id=""grid-container"">
        <!-- Grid items will be dynamically added here -->
    </div>    ","null","","","","","","","","","","","",""
"","null","html-keyboard-response","56","122145","0.0-9.0-3.11","Ay0j73sa3E","5f724539c03c5415829579a6","6617fad957f7c6a12ea16e26","6622c93faef7ae31af983887","feedback screen","null","","","","","","","","","","","",""
"","null","html-keyboard-response","57","122658","0.0-9.0-0.12","Ay0j73sa3E","5f724539c03c5415829579a6","6617fad957f7c6a12ea16e26","6622c93faef7ae31af983887","fixation cross","null","","","","","","","","","","","",""
"","1389","html-keyboard-response","58","124047","0.0-9.0-1.12","Ay0j73sa3E","5f724539c03c5415829579a6","6617fad957f7c6a12ea16e26","6622c93faef7ae31af983887","image grid"," ","","","","","Phylogenetic_Distractor_notarget","1800","ongrid"," ","2","Phylogenetic","true","practice"
"","null","html-keyboard-response","59","124203","0.0-9.0-2.12","Ay0j73sa3E","5f724539c03c5415829579a6","6617fad957f7c6a12ea16e26","6622c93faef7ae31af983887","
    <div id=""grid-container"">
        <!-- Grid items will be dynamically added here -->
    </div>    ","null","","","","","","","","","","","",""
"","null","html-keyboard-response","60","125422","0.0-9.0-3.12","Ay0j73sa3E","5f724539c03c5415829579a6","6617fad957f7c6a12ea16e26","6622c93faef7ae31af983887","feedback screen","null","","","","","","","","","","","",""
"","null","html-keyboard-response","61","125937","0.0-9.0-0.13","Ay0j73sa3E","5f724539c03c5415829579a6","6617fad957f7c6a12ea16e26","6622c93faef7ae31af983887","fixation cross","null","","","","","","","","","","","",""
"","1418","html-keyboard-response","62","127355","0.0-9.0-1.13","Ay0j73sa3E","5f724539c03c5415829579a6","6617fad957f7c6a12ea16e26","6622c93faef7ae31af983887","image grid","p","","","","","Phylogenetic_Distractor_Threat_target","1700","ongrid","q","6","Phylogenetic","false","practice"
"","null","html-keyboard-response","63","127511","0.0-9.0-2.13","Ay0j73sa3E","5f724539c03c5415829579a6","6617fad957f7c6a12ea16e26","6622c93faef7ae31af983887","
    <div id=""grid-container"">
        <!-- Grid items will be dynamically added here -->
    </div>    ","null","","","","","","","","","","","",""
"","null","html-keyboard-response","64","128728","0.0-9.0-3.13","Ay0j73sa3E","5f724539c03c5415829579a6","6617fad957f7c6a12ea16e26","6622c93faef7ae31af983887","feedback screen","null","","","","","","","","","","","",""
"","null","html-keyboard-response","65","129243","0.0-9.0-0.14","Ay0j73sa3E","5f724539c03c5415829579a6","6617fad957f7c6a12ea16e26","6622c93faef7ae31af983887","fixation cross","null","","","","","","","","","","","",""
"","1075","html-keyboard-response","66","130318","0.0-9.0-1.14","Ay0j73sa3E","5f724539c03c5415829579a6","6617fad957f7c6a12ea16e26","6622c93faef7ae31af983887","image grid"," ","","","","","Ontogenetic_Distractor_notarget","1600","ongrid"," ","4","Phylogenetic","true","practice"
"","null","html-keyboard-response","67","130478","0.0-9.0-2.14","Ay0j73sa3E","5f724539c03c5415829579a6","6617fad957f7c6a12ea16e26","6622c93faef7ae31af983887","
    <div id=""grid-container"">
        <!-- Grid items will be dynamically added here -->
    </div>    ","null","","","","","","","","","","","",""
"","null","html-keyboard-response","68","131688","0.0-9.0-3.14","Ay0j73sa3E","5f724539c03c5415829579a6","6617fad957f7c6a12ea16e26","6622c93faef7ae31af983887","feedback screen","null","","","","","","","","","","","",""
"","null","html-keyboard-response","69","132196","0.0-9.0-0.15","Ay0j73sa3E","5f724539c03c5415829579a6","6617fad957f7c6a12ea16e26","6622c93faef7ae31af983887","fixation cross","null","","","","","","","","","","","",""
"","1264","html-keyboard-response","70","133460","0.0-9.0-1.15","Ay0j73sa3E","5f724539c03c5415829579a6","6617fad957f7c6a12ea16e26","6622c93faef7ae31af983887","image grid"," ","","","","","Phylogenetic_Distractor_Nonthreat_target","1500","ongrid","p","7","Phylogenetic","false","practice"
"","null","html-keyboard-response","71","133614","0.0-9.0-2.15","Ay0j73sa3E","5f724539c03c5415829579a6","6617fad957f7c6a12ea16e26","6622c93faef7ae31af983887","
    <div id=""grid-container"">
        <!-- Grid items will be dynamically added here -->
    </div>    ","null","","","","","","","","","","","",""
"","null","html-keyboard-response","72","134834","0.0-9.0-3.15","Ay0j73sa3E","5f724539c03c5415829579a6","6617fad957f7c6a12ea16e26","6622c93faef7ae31af983887","feedback screen","null","","","","","","","","","","","",""
"","null","html-keyboard-response","73","135338","0.0-9.0-0.16","Ay0j73sa3E","5f724539c03c5415829579a6","6617fad957f7c6a12ea16e26","6622c93faef7ae31af983887","fixation cross","null","","","","","","","","","","","",""
"","961","html-keyboard-response","74","136299","0.0-9.0-1.16","Ay0j73sa3E","5f724539c03c5415829579a6","6617fad957f7c6a12ea16e26","6622c93faef7ae31af983887","image grid","p","","","","","Ontogenetic_Distractor_Nonthreat_target","1400","ongrid","p","5","Phylogenetic","true","practice"
"","null","html-keyboard-response","75","136452","0.0-9.0-2.16","Ay0j73sa3E","5f724539c03c5415829579a6","6617fad957f7c6a12ea16e26","6622c93faef7ae31af983887","
    <div id=""grid-container"">
        <!-- Grid items will be dynamically added here -->
    </div>    ","null","","","","","","","","","","","",""
"","null","html-keyboard-response","76","137664","0.0-9.0-3.16","Ay0j73sa3E","5f724539c03c5415829579a6","6617fad957f7c6a12ea16e26","6622c93faef7ae31af983887","feedback screen","null","","","","","","","","","","","",""
"","null","html-keyboard-response","77","138172","0.0-9.0-0.17","Ay0j73sa3E","5f724539c03c5415829579a6","6617fad957f7c6a12ea16e26","6622c93faef7ae31af983887","fixation cross","null","","","","","","","","","","","",""
"","866","html-keyboard-response","78","139039","0.0-9.0-1.17","Ay0j73sa3E","5f724539c03c5415829579a6","6617fad957f7c6a12ea16e26","6622c93faef7ae31af983887","image grid","p","","","","","Ontogenetic_Distractor_Nonthreat_target","1300","ongrid","p","9","Phylogenetic","true","practice"
"","null","html-keyboard-response","79","139201","0.0-9.0-2.17","Ay0j73sa3E","5f724539c03c5415829579a6","6617fad957f7c6a12ea16e26","6622c93faef7ae31af983887","
    <div id=""grid-container"">
        <!-- Grid items will be dynamically added here -->
    </div>    ","null","","","","","","","","","","","",""
"","null","html-keyboard-response","80","140417","0.0-9.0-3.17","Ay0j73sa3E","5f724539c03c5415829579a6","6617fad957f7c6a12ea16e26","6622c93faef7ae31af983887","feedback screen","null","","","","","","","","","","","",""
"","null","html-keyboard-response","81","140919","0.0-9.0-0.18","Ay0j73sa3E","5f724539c03c5415829579a6","6617fad957f7c6a12ea16e26","6622c93faef7ae31af983887","fixation cross","null","","","","","","","","","","","",""
"","1241","html-keyboard-response","82","142162","0.0-9.0-1.18","Ay0j73sa3E","5f724539c03c5415829579a6","6617fad957f7c6a12ea16e26","6622c93faef7ae31af983887","image grid","q","","","","","Phylogenetic_Distractor_Threat_target","1200","ongrid","q","3","Phylogenetic","true","practice"
"","null","html-keyboard-response","83","142314","0.0-9.0-2.18","Ay0j73sa3E","5f724539c03c5415829579a6","6617fad957f7c6a12ea16e26","6622c93faef7ae31af983887","
    <div id=""grid-container"">
        <!-- Grid items will be dynamically added here -->
    </div>    ","null","","","","","","","","","","","",""
"","null","html-keyboard-response","84","143528","0.0-9.0-3.18","Ay0j73sa3E","5f724539c03c5415829579a6","6617fad957f7c6a12ea16e26","6622c93faef7ae31af983887","feedback screen","null","","","","","","","","","","","",""
"","null","html-keyboard-response","85","144031","0.0-9.0-0.19","Ay0j73sa3E","5f724539c03c5415829579a6","6617fad957f7c6a12ea16e26","6622c93faef7ae31af983887","fixation cross","null","","","","","","","","","","","",""
"","747","html-keyboard-response","86","144779","0.0-9.0-1.19","Ay0j73sa3E","5f724539c03c5415829579a6","6617fad957f7c6a12ea16e26","6622c93faef7ae31af983887","image grid","q","","","","","Ontogenetic_Distractor_Threat_target","1100","ongrid","q","5","Phylogenetic","true","practice"
"","null","html-keyboard-response","87","144932","0.0-9.0-2.19","Ay0j73sa3E","5f724539c03c5415829579a6","6617fad957f7c6a12ea16e26","6622c93faef7ae31af983887","
    <div id=""grid-container"">
        <!-- Grid items will be dynamically added here -->
    </div>    ","null","","","","","","","","","","","",""
"","null","html-keyboard-response","88","146150","0.0-9.0-3.19","Ay0j73sa3E","5f724539c03c5415829579a6","6617fad957f7c6a12ea16e26","6622c93faef7ae31af983887","feedback screen","null","","","","","","","","","","","",""
"","8280","html-keyboard-response","89","154431","0.0-10.0","Ay0j73sa3E","5f724539c03c5415829579a6","6617fad957f7c6a12ea16e26","6622c93faef7ae31af983887","pre-experimental_briefing"," ","","","","","","","","","","","",""
"","null","html-keyboard-response","90","156944","0.0-11.0-0.0","Ay0j73sa3E","5f724539c03c5415829579a6","6617fad957f7c6a12ea16e26","6622c93faef7ae31af983887","fixation cross","null","","","","","","","","","","","",""
"","null","html-keyboard-response","91","157746","0.0-11.0-1.0","Ay0j73sa3E","5f724539c03c5415829579a6","6617fad957f7c6a12ea16e26","6622c93faef7ae31af983887","
        <div id=""grid-container"">
        <!-- Grid items will be dynamically added here -->
    </div>    ","null","","","","","","","","","","","",""
"","1121","html-keyboard-response","92","158067","0.0-11.0-2.0","Ay0j73sa3E","5f724539c03c5415829579a6","6617fad957f7c6a12ea16e26","6622c93faef7ae31af983887","mask grid","p","","","","","Phylogenetic_Distractor_Nonthreat_target","800","onmask","p","1","Phylogenetic","true","experimental"
"","null","html-keyboard-response","93","158783","0.0-11.0-0.1","Ay0j73sa3E","5f724539c03c5415829579a6","6617fad957f7c6a12ea16e26","6622c93faef7ae31af983887","fixation cross","null","","","","","","","","","","","",""
"","null","html-keyboard-response","94","159587","0.0-11.0-1.1","Ay0j73sa3E","5f724539c03c5415829579a6","6617fad957f7c6a12ea16e26","6622c93faef7ae31af983887","
        <div id=""grid-container"">
        <!-- Grid items will be dynamically added here -->
    </div>    ","null","","","","","","","","","","","",""
"","1362","html-keyboard-response","95","160150","0.0-11.0-2.1","Ay0j73sa3E","5f724539c03c5415829579a6","6617fad957f7c6a12ea16e26","6622c93faef7ae31af983887","mask grid","p","","","","","Phylogenetic_Distractor_Nonthreat_target","800","onmask","p","6","Phylogenetic","true","experimental"
"","null","html-keyboard-response","96","160863","0.0-11.0-0.2","Ay0j73sa3E","5f724539c03c5415829579a6","6617fad957f7c6a12ea16e26","6622c93faef7ae31af983887","fixation cross","null","","","","","","","","","","","",""
"","null","html-keyboard-response","97","161663","0.0-11.0-1.2","Ay0j73sa3E","5f724539c03c5415829579a6","6617fad957f7c6a12ea16e26","6622c93faef7ae31af983887","
        <div id=""grid-container"">
        <!-- Grid items will be dynamically added here -->
    </div>    ","null","","","","","","","","","","","",""
"","1028","html-keyboard-response","98","161892","0.0-11.0-2.2","Ay0j73sa3E","5f724539c03c5415829579a6","6617fad957f7c6a12ea16e26","6622c93faef7ae31af983887","mask grid"," ","","","","","Phylogenetic_Distractor_Threat_target","800","onmask","q","6","Phylogenetic","false","experimental"
"","null","html-keyboard-response","99","162597","0.0-11.0-0.3","Ay0j73sa3E","5f724539c03c5415829579a6","6617fad957f7c6a12ea16e26","6622c93faef7ae31af983887","fixation cross","null","","","","","","","","","","","",""
"","null","html-keyboard-response","100","163405","0.0-11.0-1.3","Ay0j73sa3E","5f724539c03c5415829579a6","6617fad957f7c6a12ea16e26","6622c93faef7ae31af983887","
        <div id=""grid-container"">
        <!-- Grid items will be dynamically added here -->
    </div>    ","null","","","","","","","","","","","",""
"","946","html-keyboard-response","101","163551","0.0-11.0-2.3","Ay0j73sa3E","5f724539c03c5415829579a6","6617fad957f7c6a12ea16e26","6622c93faef7ae31af983887","mask grid","q","","","","","Phylogenetic_Distractor_Threat_target","800","onmask","q","1","Phylogenetic","true","experimental"
"","null","html-keyboard-response","102","164281","0.0-11.0-0.4","Ay0j73sa3E","5f724539c03c5415829579a6","6617fad957f7c6a12ea16e26","6622c93faef7ae31af983887","fixation cross","null","","","","","","","","","","","",""
"","null","html-keyboard-response","103","165089","0.0-11.0-1.4","Ay0j73sa3E","5f724539c03c5415829579a6","6617fad957f7c6a12ea16e26","6622c93faef7ae31af983887","
        <div id=""grid-container"">
        <!-- Grid items will be dynamically added here -->
    </div>    ","null","","","","","","","","","","","",""
"","891","html-keyboard-response","104","165179","0.0-11.0-2.4","Ay0j73sa3E","5f724539c03c5415829579a6","6617fad957f7c6a12ea16e26","6622c93faef7ae31af983887","mask grid","q","","","","","Phylogenetic_Distractor_Threat_target","800","onmask","q","3","Phylogenetic","true","experimental"
"","null","html-keyboard-response","105","165905","0.0-11.0-0.5","Ay0j73sa3E","5f724539c03c5415829579a6","6617fad957f7c6a12ea16e26","6622c93faef7ae31af983887","fixation cross","null","","","","","","","","","","","",""
"","null","html-keyboard-response","106","166717","0.0-11.0-1.5","Ay0j73sa3E","5f724539c03c5415829579a6","6617fad957f7c6a12ea16e26","6622c93faef7ae31af983887","
        <div id=""grid-container"">
        <!-- Grid items will be dynamically added here -->
    </div>    ","null","","","","","","","","","","","",""
"","975","html-keyboard-response","107","166894","0.0-11.0-2.5","Ay0j73sa3E","5f724539c03c5415829579a6","6617fad957f7c6a12ea16e26","6622c93faef7ae31af983887","mask grid","p","","","","","Phylogenetic_Distractor_Nonthreat_target","800","onmask","p","9","Phylogenetic","true","experimental"
"","null","html-keyboard-response","108","167616","0.0-11.0-0.6","Ay0j73sa3E","5f724539c03c5415829579a6","6617fad957f7c6a12ea16e26","6622c93faef7ae31af983887","fixation cross","null","","","","","","","","","","","",""
"","782","html-keyboard-response","109","168399","0.0-11.0-1.6","Ay0j73sa3E","5f724539c03c5415829579a6","6617fad957f7c6a12ea16e26","6622c93faef7ae31af983887","image grid","q","","","","","Phylogenetic_Distractor_Threat_target","800","ongrid","q","1","Phylogenetic","true","experimental"
"","null","html-keyboard-response","110","168550","0.0-11.0-2.6","Ay0j73sa3E","5f724539c03c5415829579a6","6617fad957f7c6a12ea16e26","6622c93faef7ae31af983887","
    <div id=""grid-container"">
        <!-- Grid items will be dynamically added here -->
    </div>    ","null","","","","","","","","","","","",""
"","null","html-keyboard-response","111","169263","0.0-11.0-0.7","Ay0j73sa3E","5f724539c03c5415829579a6","6617fad957f7c6a12ea16e26","6622c93faef7ae31af983887","fixation cross","null","","","","","","","","","","","",""
"","null","html-keyboard-response","112","170064","0.0-11.0-1.7","Ay0j73sa3E","5f724539c03c5415829579a6","6617fad957f7c6a12ea16e26","6622c93faef7ae31af983887","
        <div id=""grid-container"">
        <!-- Grid items will be dynamically added here -->
    </div>    ","null","","","","","","","","","","","",""
"","829","html-keyboard-response","113","170094","0.0-11.0-2.7","Ay0j73sa3E","5f724539c03c5415829579a6","6617fad957f7c6a12ea16e26","6622c93faef7ae31af983887","mask grid"," ","","","","","Phylogenetic_Distractor_Threat_target","800","onmask","q","2","Phylogenetic","false","experimental"
"","null","html-keyboard-response","114","170809","0.0-11.0-0.8","Ay0j73sa3E","5f724539c03c5415829579a6","6617fad957f7c6a12ea16e26","6622c93faef7ae31af983887","fixation cross","null","","","","","","","","","","","",""
"","754","html-keyboard-response","115","171564","0.0-11.0-1.8","Ay0j73sa3E","5f724539c03c5415829579a6","6617fad957f7c6a12ea16e26","6622c93faef7ae31af983887","image grid"," ","","","","","Phylogenetic_Distractor_Threat_target","800","ongrid","q","4","Phylogenetic","false","experimental"
"","null","html-keyboard-response","116","171723","0.0-11.0-2.8","Ay0j73sa3E","5f724539c03c5415829579a6","6617fad957f7c6a12ea16e26","6622c93faef7ae31af983887","
    <div id=""grid-container"">
        <!-- Grid items will be dynamically added here -->
    </div>    ","null","","","","","","","","","","","",""
"","null","html-keyboard-response","117","172435","0.0-11.0-0.9","Ay0j73sa3E","5f724539c03c5415829579a6","6617fad957f7c6a12ea16e26","6622c93faef7ae31af983887","fixation cross","null","","","","","","","","","","","",""
"","null","html-keyboard-response","118","173249","0.0-11.0-1.9","Ay0j73sa3E","5f724539c03c5415829579a6","6617fad957f7c6a12ea16e26","6622c93faef7ae31af983887","
        <div id=""grid-container"">
        <!-- Grid items will be dynamically added here -->
    </div>    ","null","","","","","","","","","","","",""
"","953","html-keyboard-response","119","173405","0.0-11.0-2.9","Ay0j73sa3E","5f724539c03c5415829579a6","6617fad957f7c6a12ea16e26","6622c93faef7ae31af983887","mask grid"," ","","","","","Phylogenetic_Distractor_Nonthreat_target","800","onmask","p","8","Phylogenetic","false","experimental"
"","null","html-keyboard-response","120","174123","0.0-11.0-0.10","Ay0j73sa3E","5f724539c03c5415829579a6","6617fad957f7c6a12ea16e26","6622c93faef7ae31af983887","fixation cross","null","","","","","","","","","","","",""
"","null","html-keyboard-response","121","174937","0.0-11.0-1.10","Ay0j73sa3E","5f724539c03c5415829579a6","6617fad957f7c6a12ea16e26","6622c93faef7ae31af983887","
        <div id=""grid-container"">
        <!-- Grid items will be dynamically added here -->
    </div>    ","null","","","","","","","","","","","",""
"","1184","html-keyboard-response","122","175322","0.0-11.0-2.10","Ay0j73sa3E","5f724539c03c5415829579a6","6617fad957f7c6a12ea16e26","6622c93faef7ae31af983887","mask grid","p","","","","","Phylogenetic_Distractor_Nonthreat_target","800","onmask","p","3","Phylogenetic","true","experimental"
"","null","html-keyboard-response","123","176039","0.0-11.0-0.11","Ay0j73sa3E","5f724539c03c5415829579a6","6617fad957f7c6a12ea16e26","6622c93faef7ae31af983887","fixation cross","null","","","","","","","","","","","",""
"","null","html-keyboard-response","124","176951","0.0-11.0-1.11","Ay0j73sa3E","5f724539c03c5415829579a6","6617fad957f7c6a12ea16e26","6622c93faef7ae31af983887","
        <div id=""grid-container"">
        <!-- Grid items will be dynamically added here -->
    </div>    ","null","","","","","","","","","","","",""
"","838","html-keyboard-response","125","176990","0.0-11.0-2.11","Ay0j73sa3E","5f724539c03c5415829579a6","6617fad957f7c6a12ea16e26","6622c93faef7ae31af983887","mask grid"," ","","","","","Phylogenetic_Distractor_notarget","800","onmask"," ","7","Phylogenetic","true","experimental"
"","null","html-keyboard-response","126","177712","0.0-11.0-0.12","Ay0j73sa3E","5f724539c03c5415829579a6","6617fad957f7c6a12ea16e26","6622c93faef7ae31af983887","fixation cross","null","","","","","","","","","","","",""
"","null","html-keyboard-response","127","178518","0.0-11.0-1.12","Ay0j73sa3E","5f724539c03c5415829579a6","6617fad957f7c6a12ea16e26","6622c93faef7ae31af983887","
        <div id=""grid-container"">
        <!-- Grid items will be dynamically added here -->
    </div>    ","null","","","","","","","","","","","",""
"","1194","html-keyboard-response","128","178912","0.0-11.0-2.12","Ay0j73sa3E","5f724539c03c5415829579a6","6617fad957f7c6a12ea16e26","6622c93faef7ae31af983887","mask grid"," ","","","","","Phylogenetic_Distractor_notarget","800","onmask"," ","3","Phylogenetic","true","experimental"
"","null","html-keyboard-response","129","179627","0.0-11.0-0.13","Ay0j73sa3E","5f724539c03c5415829579a6","6617fad957f7c6a12ea16e26","6622c93faef7ae31af983887","fixation cross","null","","","","","","","","","","","",""
"","747","html-keyboard-response","130","180376","0.0-11.0-1.13","Ay0j73sa3E","5f724539c03c5415829579a6","6617fad957f7c6a12ea16e26","6622c93faef7ae31af983887","image grid","q","","","","","Phylogenetic_Distractor_Threat_target","800","ongrid","q","2","Phylogenetic","true","experimental"
"","null","html-keyboard-response","131","180542","0.0-11.0-2.13","Ay0j73sa3E","5f724539c03c5415829579a6","6617fad957f7c6a12ea16e26","6622c93faef7ae31af983887","
    <div id=""grid-container"">
        <!-- Grid items will be dynamically added here -->
    </div>    ","null","","","","","","","","","","","",""
"","null","html-keyboard-response","132","181253","0.0-11.0-0.14","Ay0j73sa3E","5f724539c03c5415829579a6","6617fad957f7c6a12ea16e26","6622c93faef7ae31af983887","fixation cross","null","","","","","","","","","","","",""
"","720","html-keyboard-response","133","181974","0.0-11.0-1.14","Ay0j73sa3E","5f724539c03c5415829579a6","6617fad957f7c6a12ea16e26","6622c93faef7ae31af983887","image grid","q","","","","","Phylogenetic_Distractor_Threat_target","800","ongrid","q","1","Phylogenetic","true","experimental"
"","null","html-keyboard-response","134","182131","0.0-11.0-2.14","Ay0j73sa3E","5f724539c03c5415829579a6","6617fad957f7c6a12ea16e26","6622c93faef7ae31af983887","
    <div id=""grid-container"">
        <!-- Grid items will be dynamically added here -->
    </div>    ","null","","","","","","","","","","","",""
"","null","html-keyboard-response","135","182845","0.0-11.0-0.15","Ay0j73sa3E","5f724539c03c5415829579a6","6617fad957f7c6a12ea16e26","6622c93faef7ae31af983887","fixation cross","null","","","","","","","","","","","",""
"","null","html-keyboard-response","136","183652","0.0-11.0-1.15","Ay0j73sa3E","5f724539c03c5415829579a6","6617fad957f7c6a12ea16e26","6622c93faef7ae31af983887","
        <div id=""grid-container"">
        <!-- Grid items will be dynamically added here -->
    </div>    ","null","","","","","","","","","","","",""
"","813","html-keyboard-response","137","183666","0.0-11.0-2.15","Ay0j73sa3E","5f724539c03c5415829579a6","6617fad957f7c6a12ea16e26","6622c93faef7ae31af983887","mask grid","q","","","","","Phylogenetic_Distractor_Nonthreat_target","800","onmask","p","3","Phylogenetic","false","experimental"
"","null","html-keyboard-response","138","184382","0.0-11.0-0.16","Ay0j73sa3E","5f724539c03c5415829579a6","6617fad957f7c6a12ea16e26","6622c93faef7ae31af983887","fixation cross","null","","","","","","","","","","","",""
"","771","html-keyboard-response","139","185154","0.0-11.0-1.16","Ay0j73sa3E","5f724539c03c5415829579a6","6617fad957f7c6a12ea16e26","6622c93faef7ae31af983887","image grid","q","","","","","Phylogenetic_Distractor_Threat_target","800","ongrid","q","5","Phylogenetic","true","experimental"
"","null","html-keyboard-response","140","185312","0.0-11.0-2.16","Ay0j73sa3E","5f724539c03c5415829579a6","6617fad957f7c6a12ea16e26","6622c93faef7ae31af983887","
    <div id=""grid-container"">
        <!-- Grid items will be dynamically added here -->
    </div>    ","null","","","","","","","","","","","",""
"","null","html-keyboard-response","141","186023","0.0-11.0-0.17","Ay0j73sa3E","5f724539c03c5415829579a6","6617fad957f7c6a12ea16e26","6622c93faef7ae31af983887","fixation cross","null","","","","","","","","","","","",""
"","741","html-keyboard-response","142","186765","0.0-11.0-1.17","Ay0j73sa3E","5f724539c03c5415829579a6","6617fad957f7c6a12ea16e26","6622c93faef7ae31af983887","image grid","p","","","","","Phylogenetic_Distractor_Nonthreat_target","800","ongrid","p","3","Phylogenetic","true","experimental"
"","null","html-keyboard-response","143","186920","0.0-11.0-2.17","Ay0j73sa3E","5f724539c03c5415829579a6","6617fad957f7c6a12ea16e26","6622c93faef7ae31af983887","
    <div id=""grid-container"">
        <!-- Grid items will be dynamically added here -->
    </div>    ","null","","","","","","","","","","","",""
"","null","html-keyboard-response","144","187628","0.0-11.0-0.18","Ay0j73sa3E","5f724539c03c5415829579a6","6617fad957f7c6a12ea16e26","6622c93faef7ae31af983887","fixation cross","null","","","","","","","","","","","",""
"","757","html-keyboard-response","145","188385","0.0-11.0-1.18","Ay0j73sa3E","5f724539c03c5415829579a6","6617fad957f7c6a12ea16e26","6622c93faef7ae31af983887","image grid"," ","","","","","Phylogenetic_Distractor_Nonthreat_target","800","ongrid","p","8","Phylogenetic","false","experimental"
"","null","html-keyboard-response","146","188543","0.0-11.0-2.18","Ay0j73sa3E","5f724539c03c5415829579a6","6617fad957f7c6a12ea16e26","6622c93faef7ae31af983887","
    <div id=""grid-container"">
        <!-- Grid items will be dynamically added here -->
    </div>    ","null","","","","","","","","","","","",""
"","null","html-keyboard-response","147","189253","0.0-11.0-0.19","Ay0j73sa3E","5f724539c03c5415829579a6","6617fad957f7c6a12ea16e26","6622c93faef7ae31af983887","fixation cross","null","","","","","","","","","","","",""
"","767","html-keyboard-response","148","190020","0.0-11.0-1.19","Ay0j73sa3E","5f724539c03c5415829579a6","6617fad957f7c6a12ea16e26","6622c93faef7ae31af983887","image grid","q","","","","","Phylogenetic_Distractor_Threat_target","800","ongrid","q","5","Phylogenetic","true","experimental"
"","null","html-keyboard-response","149","190181","0.0-11.0-2.19","Ay0j73sa3E","5f724539c03c5415829579a6","6617fad957f7c6a12ea16e26","6622c93faef7ae31af983887","
    <div id=""grid-container"">
        <!-- Grid items will be dynamically added here -->
    </div>    ","null","","","","","","","","","","","",""
"","null","html-keyboard-response","150","190894","0.0-11.0-0.20","Ay0j73sa3E","5f724539c03c5415829579a6","6617fad957f7c6a12ea16e26","6622c93faef7ae31af983887","fixation cross","null","","","","","","","","","","","",""
"","659","html-keyboard-response","151","191552","0.0-11.0-1.20","Ay0j73sa3E","5f724539c03c5415829579a6","6617fad957f7c6a12ea16e26","6622c93faef7ae31af983887","image grid","q","","","","","Phylogenetic_Distractor_Threat_target","800","ongrid","q","6","Phylogenetic","true","experimental"
"","null","html-keyboard-response","152","191717","0.0-11.0-2.20","Ay0j73sa3E","5f724539c03c5415829579a6","6617fad957f7c6a12ea16e26","6622c93faef7ae31af983887","
    <div id=""grid-container"">
        <!-- Grid items will be dynamically added here -->
    </div>    ","null","","","","","","","","","","","",""
"","null","html-keyboard-response","153","192429","0.0-11.0-0.21","Ay0j73sa3E","5f724539c03c5415829579a6","6617fad957f7c6a12ea16e26","6622c93faef7ae31af983887","fixation cross","null","","","","","","","","","","","",""
"","769","html-keyboard-response","154","193200","0.0-11.0-1.21","Ay0j73sa3E","5f724539c03c5415829579a6","6617fad957f7c6a12ea16e26","6622c93faef7ae31af983887","image grid","p","","","","","Phylogenetic_Distractor_notarget","800","ongrid"," ","3","Phylogenetic","false","experimental"
"","null","html-keyboard-response","155","193360","0.0-11.0-2.21","Ay0j73sa3E","5f724539c03c5415829579a6","6617fad957f7c6a12ea16e26","6622c93faef7ae31af983887","
    <div id=""grid-container"">
        <!-- Grid items will be dynamically added here -->
    </div>    ","null","","","","","","","","","","","",""
"","null","html-keyboard-response","156","194070","0.0-11.0-0.22","Ay0j73sa3E","5f724539c03c5415829579a6","6617fad957f7c6a12ea16e26","6622c93faef7ae31af983887","fixation cross","null","","","","","","","","","","","",""
"","743","html-keyboard-response","157","194814","0.0-11.0-1.22","Ay0j73sa3E","5f724539c03c5415829579a6","6617fad957f7c6a12ea16e26","6622c93faef7ae31af983887","image grid","q","","","","","Phylogenetic_Distractor_Threat_target","800","ongrid","q","1","Phylogenetic","true","experimental"
"","null","html-keyboard-response","158","194970","0.0-11.0-2.22","Ay0j73sa3E","5f724539c03c5415829579a6","6617fad957f7c6a12ea16e26","6622c93faef7ae31af983887","
    <div id=""grid-container"">
        <!-- Grid items will be dynamically added here -->
    </div>    ","null","","","","","","","","","","","",""
"","null","html-keyboard-response","159","195688","0.0-11.0-0.23","Ay0j73sa3E","5f724539c03c5415829579a6","6617fad957f7c6a12ea16e26","6622c93faef7ae31af983887","fixation cross","null","","","","","","","","","","","",""
"","699","html-keyboard-response","160","196387","0.0-11.0-1.23","Ay0j73sa3E","5f724539c03c5415829579a6","6617fad957f7c6a12ea16e26","6622c93faef7ae31af983887","image grid"," ","","","","","Phylogenetic_Distractor_Nonthreat_target","800","ongrid","p","8","Phylogenetic","false","experimental"
"","null","html-keyboard-response","161","196547","0.0-11.0-2.23","Ay0j73sa3E","5f724539c03c5415829579a6","6617fad957f7c6a12ea16e26","6622c93faef7ae31af983887","
    <div id=""grid-container"">
        <!-- Grid items will be dynamically added here -->
    </div>    ","null","","","","","","","","","","","",""
"","null","html-keyboard-response","162","197255","0.0-11.0-0.24","Ay0j73sa3E","5f724539c03c5415829579a6","6617fad957f7c6a12ea16e26","6622c93faef7ae31af983887","fixation cross","null","","","","","","","","","","","",""
"","733","html-keyboard-response","163","197990","0.0-11.0-1.24","Ay0j73sa3E","5f724539c03c5415829579a6","6617fad957f7c6a12ea16e26","6622c93faef7ae31af983887","image grid","q","","","","","Phylogenetic_Distractor_Nonthreat_target","800","ongrid","p","8","Phylogenetic","false","experimental"
"","null","html-keyboard-response","164","198152","0.0-11.0-2.24","Ay0j73sa3E","5f724539c03c5415829579a6","6617fad957f7c6a12ea16e26","6622c93faef7ae31af983887","
    <div id=""grid-container"">
        <!-- Grid items will be dynamically added here -->
    </div>    ","null","","","","","","","","","","","",""
"","null","html-keyboard-response","165","198867","0.0-11.0-0.25","Ay0j73sa3E","5f724539c03c5415829579a6","6617fad957f7c6a12ea16e26","6622c93faef7ae31af983887","fixation cross","null","","","","","","","","","","","",""
"","792","html-keyboard-response","166","199659","0.0-11.0-1.25","Ay0j73sa3E","5f724539c03c5415829579a6","6617fad957f7c6a12ea16e26","6622c93faef7ae31af983887","image grid","q","","","","","Phylogenetic_Distractor_Threat_target","800","ongrid","q","1","Phylogenetic","true","experimental"
"","null","html-keyboard-response","167","199813","0.0-11.0-2.25","Ay0j73sa3E","5f724539c03c5415829579a6","6617fad957f7c6a12ea16e26","6622c93faef7ae31af983887","
    <div id=""grid-container"">
        <!-- Grid items will be dynamically added here -->
    </div>    ","null","","","","","","","","","","","",""
"","null","html-keyboard-response","168","200518","0.0-11.0-0.26","Ay0j73sa3E","5f724539c03c5415829579a6","6617fad957f7c6a12ea16e26","6622c93faef7ae31af983887","fixation cross","null","","","","","","","","","","","",""
"","755","html-keyboard-response","169","201275","0.0-11.0-1.26","Ay0j73sa3E","5f724539c03c5415829579a6","6617fad957f7c6a12ea16e26","6622c93faef7ae31af983887","image grid"," ","","","","","Phylogenetic_Distractor_Threat_target","800","ongrid","q","7","Phylogenetic","false","experimental"
"","null","html-keyboard-response","170","201438","0.0-11.0-2.26","Ay0j73sa3E","5f724539c03c5415829579a6","6617fad957f7c6a12ea16e26","6622c93faef7ae31af983887","
    <div id=""grid-container"">
        <!-- Grid items will be dynamically added here -->
    </div>    ","null","","","","","","","","","","","",""
"","null","html-keyboard-response","171","202177","0.0-11.0-0.27","Ay0j73sa3E","5f724539c03c5415829579a6","6617fad957f7c6a12ea16e26","6622c93faef7ae31af983887","fixation cross","null","","","","","","","","","","","",""
"","null","html-keyboard-response","172","202985","0.0-11.0-1.27","Ay0j73sa3E","5f724539c03c5415829579a6","6617fad957f7c6a12ea16e26","6622c93faef7ae31af983887","
        <div id=""grid-container"">
        <!-- Grid items will be dynamically added here -->
    </div>    ","null","","","","","","","","","","","",""
"","856","html-keyboard-response","173","203040","0.0-11.0-2.27","Ay0j73sa3E","5f724539c03c5415829579a6","6617fad957f7c6a12ea16e26","6622c93faef7ae31af983887","mask grid","p","","","","","Phylogenetic_Distractor_Threat_target","800","onmask","q","5","Phylogenetic","false","experimental"
"","null","html-keyboard-response","174","203761","0.0-11.0-0.28","Ay0j73sa3E","5f724539c03c5415829579a6","6617fad957f7c6a12ea16e26","6622c93faef7ae31af983887","fixation cross","null","","","","","","","","","","","",""
"","745","html-keyboard-response","175","204508","0.0-11.0-1.28","Ay0j73sa3E","5f724539c03c5415829579a6","6617fad957f7c6a12ea16e26","6622c93faef7ae31af983887","image grid","p","","","","","Phylogenetic_Distractor_Nonthreat_target","800","ongrid","p","2","Phylogenetic","true","experimental"
"","null","html-keyboard-response","176","204668","0.0-11.0-2.28","Ay0j73sa3E","5f724539c03c5415829579a6","6617fad957f7c6a12ea16e26","6622c93faef7ae31af983887","
    <div id=""grid-container"">
        <!-- Grid items will be dynamically added here -->
    </div>    ","null","","","","","","","","","","","",""
"","null","html-keyboard-response","177","205377","0.0-11.0-0.29","Ay0j73sa3E","5f724539c03c5415829579a6","6617fad957f7c6a12ea16e26","6622c93faef7ae31af983887","fixation cross","null","","","","","","","","","","","",""
"","null","html-keyboard-response","178","206191","0.0-11.0-1.29","Ay0j73sa3E","5f724539c03c5415829579a6","6617fad957f7c6a12ea16e26","6622c93faef7ae31af983887","
        <div id=""grid-container"">
        <!-- Grid items will be dynamically added here -->
    </div>    ","null","","","","","","","","","","","",""
"","1049","html-keyboard-response","179","206441","0.0-11.0-2.29","Ay0j73sa3E","5f724539c03c5415829579a6","6617fad957f7c6a12ea16e26","6622c93faef7ae31af983887","mask grid","q","","","","","Phylogenetic_Distractor_Nonthreat_target","800","onmask","p","7","Phylogenetic","false","experimental"
"","null","html-keyboard-response","180","207171","0.0-11.0-0.30","Ay0j73sa3E","5f724539c03c5415829579a6","6617fad957f7c6a12ea16e26","6622c93faef7ae31af983887","fixation cross","null","","","","","","","","","","","",""
"","null","html-keyboard-response","181","207978","0.0-11.0-1.30","Ay0j73sa3E","5f724539c03c5415829579a6","6617fad957f7c6a12ea16e26","6622c93faef7ae31af983887","
        <div id=""grid-container"">
        <!-- Grid items will be dynamically added here -->
    </div>    ","null","","","","","","","","","","","",""
"","1010","html-keyboard-response","182","208189","0.0-11.0-2.30","Ay0j73sa3E","5f724539c03c5415829579a6","6617fad957f7c6a12ea16e26","6622c93faef7ae31af983887","mask grid","p","","","","","Phylogenetic_Distractor_Nonthreat_target","800","onmask","p","2","Phylogenetic","true","experimental"
"","null","html-keyboard-response","183","208907","0.0-11.0-0.31","Ay0j73sa3E","5f724539c03c5415829579a6","6617fad957f7c6a12ea16e26","6622c93faef7ae31af983887","fixation cross","null","","","","","","","","","","","",""
"","731","html-keyboard-response","184","209638","0.0-11.0-1.31","Ay0j73sa3E","5f724539c03c5415829579a6","6617fad957f7c6a12ea16e26","6622c93faef7ae31af983887","image grid","p","","","","","Phylogenetic_Distractor_Nonthreat_target","800","ongrid","p","2","Phylogenetic","true","experimental"
"","null","html-keyboard-response","185","209794","0.0-11.0-2.31","Ay0j73sa3E","5f724539c03c5415829579a6","6617fad957f7c6a12ea16e26","6622c93faef7ae31af983887","
    <div id=""grid-container"">
        <!-- Grid items will be dynamically added here -->
    </div>    ","null","","","","","","","","","","","",""
"","null","html-keyboard-response","186","210500","0.0-11.0-0.32","Ay0j73sa3E","5f724539c03c5415829579a6","6617fad957f7c6a12ea16e26","6622c93faef7ae31af983887","fixation cross","null","","","","","","","","","","","",""
"","789","html-keyboard-response","187","211290","0.0-11.0-1.32","Ay0j73sa3E","5f724539c03c5415829579a6","6617fad957f7c6a12ea16e26","6622c93faef7ae31af983887","image grid","p","","","","","Phylogenetic_Distractor_Nonthreat_target","800","ongrid","p","9","Phylogenetic","true","experimental"
"","null","html-keyboard-response","188","211455","0.0-11.0-2.32","Ay0j73sa3E","5f724539c03c5415829579a6","6617fad957f7c6a12ea16e26","6622c93faef7ae31af983887","
    <div id=""grid-container"">
        <!-- Grid items will be dynamically added here -->
    </div>    ","null","","","","","","","","","","","",""
"","null","html-keyboard-response","189","212170","0.0-11.0-0.33","Ay0j73sa3E","5f724539c03c5415829579a6","6617fad957f7c6a12ea16e26","6622c93faef7ae31af983887","fixation cross","null","","","","","","","","","","","",""
"","null","html-keyboard-response","190","212977","0.0-11.0-1.33","Ay0j73sa3E","5f724539c03c5415829579a6","6617fad957f7c6a12ea16e26","6622c93faef7ae31af983887","
        <div id=""grid-container"">
        <!-- Grid items will be dynamically added here -->
    </div>    ","null","","","","","","","","","","","",""
"","899","html-keyboard-response","191","213075","0.0-11.0-2.33","Ay0j73sa3E","5f724539c03c5415829579a6","6617fad957f7c6a12ea16e26","6622c93faef7ae31af983887","mask grid","p","","","","","Phylogenetic_Distractor_Nonthreat_target","800","onmask","p","6","Phylogenetic","true","experimental"
"","null","html-keyboard-response","192","213785","0.0-11.0-0.34","Ay0j73sa3E","5f724539c03c5415829579a6","6617fad957f7c6a12ea16e26","6622c93faef7ae31af983887","fixation cross","null","","","","","","","","","","","",""
"","730","html-keyboard-response","193","214517","0.0-11.0-1.34","Ay0j73sa3E","5f724539c03c5415829579a6","6617fad957f7c6a12ea16e26","6622c93faef7ae31af983887","image grid","q","","","","","Phylogenetic_Distractor_Threat_target","800","ongrid","q","1","Phylogenetic","true","experimental"
"","null","html-keyboard-response","194","214672","0.0-11.0-2.34","Ay0j73sa3E","5f724539c03c5415829579a6","6617fad957f7c6a12ea16e26","6622c93faef7ae31af983887","
    <div id=""grid-container"">
        <!-- Grid items will be dynamically added here -->
    </div>    ","null","","","","","","","","","","","",""
"","null","html-keyboard-response","195","215378","0.0-11.0-0.35","Ay0j73sa3E","5f724539c03c5415829579a6","6617fad957f7c6a12ea16e26","6622c93faef7ae31af983887","fixation cross","null","","","","","","","","","","","",""
"","null","html-keyboard-response","196","216182","0.0-11.0-1.35","Ay0j73sa3E","5f724539c03c5415829579a6","6617fad957f7c6a12ea16e26","6622c93faef7ae31af983887","
        <div id=""grid-container"">
        <!-- Grid items will be dynamically added here -->
    </div>    ","null","","","","","","","","","","","",""
"","1047","html-keyboard-response","197","216430","0.0-11.0-2.35","Ay0j73sa3E","5f724539c03c5415829579a6","6617fad957f7c6a12ea16e26","6622c93faef7ae31af983887","mask grid"," ","","","","","Phylogenetic_Distractor_notarget","800","onmask"," ","4","Phylogenetic","true","experimental"
"","null","html-keyboard-response","198","217149","0.0-11.0-0.36","Ay0j73sa3E","5f724539c03c5415829579a6","6617fad957f7c6a12ea16e26","6622c93faef7ae31af983887","fixation cross","null","","","","","","","","","","","",""
"","null","html-keyboard-response","199","217954","0.0-11.0-1.36","Ay0j73sa3E","5f724539c03c5415829579a6","6617fad957f7c6a12ea16e26","6622c93faef7ae31af983887","
        <div id=""grid-container"">
        <!-- Grid items will be dynamically added here -->
    </div>    ","null","","","","","","","","","","","",""
"","831","html-keyboard-response","200","217984","0.0-11.0-2.36","Ay0j73sa3E","5f724539c03c5415829579a6","6617fad957f7c6a12ea16e26","6622c93faef7ae31af983887","mask grid"," ","","","","","Phylogenetic_Distractor_Nonthreat_target","800","onmask","p","7","Phylogenetic","false","experimental"
"","null","html-keyboard-response","201","218706","0.0-11.0-0.37","Ay0j73sa3E","5f724539c03c5415829579a6","6617fad957f7c6a12ea16e26","6622c93faef7ae31af983887","fixation cross","null","","","","","","","","","","","",""
"","632","html-keyboard-response","202","219340","0.0-11.0-1.37","Ay0j73sa3E","5f724539c03c5415829579a6","6617fad957f7c6a12ea16e26","6622c93faef7ae31af983887","image grid","q","","","","","Phylogenetic_Distractor_Threat_target","800","ongrid","q","2","Phylogenetic","true","experimental"
"","null","html-keyboard-response","203","219494","0.0-11.0-2.37","Ay0j73sa3E","5f724539c03c5415829579a6","6617fad957f7c6a12ea16e26","6622c93faef7ae31af983887","
    <div id=""grid-container"">
        <!-- Grid items will be dynamically added here -->
    </div>    ","null","","","","","","","","","","","",""
"","null","html-keyboard-response","204","220208","0.0-11.0-0.38","Ay0j73sa3E","5f724539c03c5415829579a6","6617fad957f7c6a12ea16e26","6622c93faef7ae31af983887","fixation cross","null","","","","","","","","","","","",""
"","530","html-keyboard-response","205","220738","0.0-11.0-1.38","Ay0j73sa3E","5f724539c03c5415829579a6","6617fad957f7c6a12ea16e26","6622c93faef7ae31af983887","image grid","q","","","","","Phylogenetic_Distractor_Threat_target","800","ongrid","q","5","Phylogenetic","true","experimental"
"","null","html-keyboard-response","206","220889","0.0-11.0-2.38","Ay0j73sa3E","5f724539c03c5415829579a6","6617fad957f7c6a12ea16e26","6622c93faef7ae31af983887","
    <div id=""grid-container"">
        <!-- Grid items will be dynamically added here -->
    </div>    ","null","","","","","","","","","","","",""
"","null","html-keyboard-response","207","221603","0.0-11.0-0.39","Ay0j73sa3E","5f724539c03c5415829579a6","6617fad957f7c6a12ea16e26","6622c93faef7ae31af983887","fixation cross","null","","","","","","","","","","","",""
"","675","html-keyboard-response","208","222278","0.0-11.0-1.39","Ay0j73sa3E","5f724539c03c5415829579a6","6617fad957f7c6a12ea16e26","6622c93faef7ae31af983887","image grid"," ","","","","","Phylogenetic_Distractor_Nonthreat_target","800","ongrid","p","1","Phylogenetic","false","experimental"
"","null","html-keyboard-response","209","222440","0.0-11.0-2.39","Ay0j73sa3E","5f724539c03c5415829579a6","6617fad957f7c6a12ea16e26","6622c93faef7ae31af983887","
    <div id=""grid-container"">
        <!-- Grid items will be dynamically added here -->
    </div>    ","null","","","","","","","","","","","",""
"","7478","html-keyboard-response","210","230121","0.0-12.0","Ay0j73sa3E","5f724539c03c5415829579a6","6617fad957f7c6a12ea16e26","6622c93faef7ae31af983887","break screen"," ","","","","","","","","","","","",""
"","null","html-keyboard-response","211","232664","0.0-13.0-0.0","Ay0j73sa3E","5f724539c03c5415829579a6","6617fad957f7c6a12ea16e26","6622c93faef7ae31af983887","fixation cross","null","","","","","","","","","","","",""
"","929","html-keyboard-response","212","233593","0.0-13.0-1.0","Ay0j73sa3E","5f724539c03c5415829579a6","6617fad957f7c6a12ea16e26","6622c93faef7ae31af983887","image grid","p","","","","","Ontogenetic_Distractor_Nonthreat_target","2500","ongrid","p","3","Ontogenetic","true","experimental"
"","null","html-keyboard-response","213","233752","0.0-13.0-2.0","Ay0j73sa3E","5f724539c03c5415829579a6","6617fad957f7c6a12ea16e26","6622c93faef7ae31af983887","
    <div id=""grid-container"">
        <!-- Grid items will be dynamically added here -->
    </div>    ","null","","","","","","","","","","","",""
"","null","html-keyboard-response","214","234463","0.0-13.0-0.1","Ay0j73sa3E","5f724539c03c5415829579a6","6617fad957f7c6a12ea16e26","6622c93faef7ae31af983887","fixation cross","null","","","","","","","","","","","",""
"","902","html-keyboard-response","215","235366","0.0-13.0-1.1","Ay0j73sa3E","5f724539c03c5415829579a6","6617fad957f7c6a12ea16e26","6622c93faef7ae31af983887","image grid","p","","","","","Ontogenetic_Distractor_notarget","2500","ongrid"," ","4","Ontogenetic","false","experimental"
"","null","html-keyboard-response","216","235524","0.0-13.0-2.1","Ay0j73sa3E","5f724539c03c5415829579a6","6617fad957f7c6a12ea16e26","6622c93faef7ae31af983887","
    <div id=""grid-container"">
        <!-- Grid items will be dynamically added here -->
    </div>    ","null","","","","","","","","","","","",""
"","null","html-keyboard-response","217","236244","0.0-13.0-0.2","Ay0j73sa3E","5f724539c03c5415829579a6","6617fad957f7c6a12ea16e26","6622c93faef7ae31af983887","fixation cross","null","","","","","","","","","","","",""
"","1031","html-keyboard-response","218","237276","0.0-13.0-1.2","Ay0j73sa3E","5f724539c03c5415829579a6","6617fad957f7c6a12ea16e26","6622c93faef7ae31af983887","image grid","p","","","","","Ontogenetic_Distractor_Threat_target","2500","ongrid","q","7","Ontogenetic","false","experimental"
"","null","html-keyboard-response","219","237433","0.0-13.0-2.2","Ay0j73sa3E","5f724539c03c5415829579a6","6617fad957f7c6a12ea16e26","6622c93faef7ae31af983887","
    <div id=""grid-container"">
        <!-- Grid items will be dynamically added here -->
    </div>    ","null","","","","","","","","","","","",""
"","null","html-keyboard-response","220","238142","0.0-13.0-0.3","Ay0j73sa3E","5f724539c03c5415829579a6","6617fad957f7c6a12ea16e26","6622c93faef7ae31af983887","fixation cross","null","","","","","","","","","","","",""
"","971","html-keyboard-response","221","239114","0.0-13.0-1.3","Ay0j73sa3E","5f724539c03c5415829579a6","6617fad957f7c6a12ea16e26","6622c93faef7ae31af983887","image grid"," ","","","","","Ontogenetic_Distractor_Nonthreat_target","2500","ongrid","p","9","Ontogenetic","false","experimental"
"","null","html-keyboard-response","222","239265","0.0-13.0-2.3","Ay0j73sa3E","5f724539c03c5415829579a6","6617fad957f7c6a12ea16e26","6622c93faef7ae31af983887","
    <div id=""grid-container"">
        <!-- Grid items will be dynamically added here -->
    </div>    ","null","","","","","","","","","","","",""
"","null","html-keyboard-response","223","239975","0.0-13.0-0.4","Ay0j73sa3E","5f724539c03c5415829579a6","6617fad957f7c6a12ea16e26","6622c93faef7ae31af983887","fixation cross","null","","","","","","","","","","","",""
"","863","html-keyboard-response","224","240838","0.0-13.0-1.4","Ay0j73sa3E","5f724539c03c5415829579a6","6617fad957f7c6a12ea16e26","6622c93faef7ae31af983887","image grid","q","","","","","Ontogenetic_Distractor_Threat_target","2500","ongrid","q","6","Ontogenetic","true","experimental"
"","null","html-keyboard-response","225","241002","0.0-13.0-2.4","Ay0j73sa3E","5f724539c03c5415829579a6","6617fad957f7c6a12ea16e26","6622c93faef7ae31af983887","
    <div id=""grid-container"">
        <!-- Grid items will be dynamically added here -->
    </div>    ","null","","","","","","","","","","","",""
"","null","html-keyboard-response","226","241717","0.0-13.0-0.5","Ay0j73sa3E","5f724539c03c5415829579a6","6617fad957f7c6a12ea16e26","6622c93faef7ae31af983887","fixation cross","null","","","","","","","","","","","",""
"","1322","html-keyboard-response","227","243039","0.0-13.0-1.5","Ay0j73sa3E","5f724539c03c5415829579a6","6617fad957f7c6a12ea16e26","6622c93faef7ae31af983887","image grid"," ","","","","","Ontogenetic_Distractor_Threat_target","2500","ongrid","q","5","Ontogenetic","false","experimental"
"","null","html-keyboard-response","228","243198","0.0-13.0-2.5","Ay0j73sa3E","5f724539c03c5415829579a6","6617fad957f7c6a12ea16e26","6622c93faef7ae31af983887","
    <div id=""grid-container"">
        <!-- Grid items will be dynamically added here -->
    </div>    ","null","","","","","","","","","","","",""
"","null","html-keyboard-response","229","243908","0.0-13.0-0.6","Ay0j73sa3E","5f724539c03c5415829579a6","6617fad957f7c6a12ea16e26","6622c93faef7ae31af983887","fixation cross","null","","","","","","","","","","","",""
"","829","html-keyboard-response","230","244738","0.0-13.0-1.6","Ay0j73sa3E","5f724539c03c5415829579a6","6617fad957f7c6a12ea16e26","6622c93faef7ae31af983887","image grid","p","","","","","Ontogenetic_Distractor_Nonthreat_target","2500","ongrid","p","6","Ontogenetic","true","experimental"
"","null","html-keyboard-response","231","244889","0.0-13.0-2.6","Ay0j73sa3E","5f724539c03c5415829579a6","6617fad957f7c6a12ea16e26","6622c93faef7ae31af983887","
    <div id=""grid-container"">
        <!-- Grid items will be dynamically added here -->
    </div>    ","null","","","","","","","","","","","",""
"","null","html-keyboard-response","232","245597","0.0-13.0-0.7","Ay0j73sa3E","5f724539c03c5415829579a6","6617fad957f7c6a12ea16e26","6622c93faef7ae31af983887","fixation cross","null","","","","","","","","","","","",""
"","850","html-keyboard-response","233","246448","0.0-13.0-1.7","Ay0j73sa3E","5f724539c03c5415829579a6","6617fad957f7c6a12ea16e26","6622c93faef7ae31af983887","image grid"," ","","","","","Ontogenetic_Distractor_Nonthreat_target","2500","ongrid","p","6","Ontogenetic","false","experimental"
"","null","html-keyboard-response","234","246599","0.0-13.0-2.7","Ay0j73sa3E","5f724539c03c5415829579a6","6617fad957f7c6a12ea16e26","6622c93faef7ae31af983887","
    <div id=""grid-container"">
        <!-- Grid items will be dynamically added here -->
    </div>    ","null","","","","","","","","","","","",""
"","null","html-keyboard-response","235","247313","0.0-13.0-0.8","Ay0j73sa3E","5f724539c03c5415829579a6","6617fad957f7c6a12ea16e26","6622c93faef7ae31af983887","fixation cross","null","","","","","","","","","","","",""
"","726","html-keyboard-response","236","248040","0.0-13.0-1.8","Ay0j73sa3E","5f724539c03c5415829579a6","6617fad957f7c6a12ea16e26","6622c93faef7ae31af983887","image grid","p","","","","","Ontogenetic_Distractor_Nonthreat_target","2500","ongrid","p","4","Ontogenetic","true","experimental"
"","null","html-keyboard-response","237","248206","0.0-13.0-2.8","Ay0j73sa3E","5f724539c03c5415829579a6","6617fad957f7c6a12ea16e26","6622c93faef7ae31af983887","
    <div id=""grid-container"">
        <!-- Grid items will be dynamically added here -->
    </div>    ","null","","","","","","","","","","","",""
"","null","html-keyboard-response","238","248920","0.0-13.0-0.9","Ay0j73sa3E","5f724539c03c5415829579a6","6617fad957f7c6a12ea16e26","6622c93faef7ae31af983887","fixation cross","null","","","","","","","","","","","",""
"","1020","html-keyboard-response","239","249941","0.0-13.0-1.9","Ay0j73sa3E","5f724539c03c5415829579a6","6617fad957f7c6a12ea16e26","6622c93faef7ae31af983887","image grid"," ","","","","","Ontogenetic_Distractor_Nonthreat_target","2500","ongrid","p","8","Ontogenetic","false","experimental"
"","null","html-keyboard-response","240","250100","0.0-13.0-2.9","Ay0j73sa3E","5f724539c03c5415829579a6","6617fad957f7c6a12ea16e26","6622c93faef7ae31af983887","
    <div id=""grid-container"">
        <!-- Grid items will be dynamically added here -->
    </div>    ","null","","","","","","","","","","","",""
"","null","html-keyboard-response","241","250845","0.0-13.0-0.10","Ay0j73sa3E","5f724539c03c5415829579a6","6617fad957f7c6a12ea16e26","6622c93faef7ae31af983887","fixation cross","null","","","","","","","","","","","",""
"","999","html-keyboard-response","242","251845","0.0-13.0-1.10","Ay0j73sa3E","5f724539c03c5415829579a6","6617fad957f7c6a12ea16e26","6622c93faef7ae31af983887","image grid"," ","","","","","Ontogenetic_Distractor_notarget","2500","ongrid"," ","3","Ontogenetic","true","experimental"
"","null","html-keyboard-response","243","252000","0.0-13.0-2.10","Ay0j73sa3E","5f724539c03c5415829579a6","6617fad957f7c6a12ea16e26","6622c93faef7ae31af983887","
    <div id=""grid-container"">
        <!-- Grid items will be dynamically added here -->
    </div>    ","null","","","","","","","","","","","",""
"","null","html-keyboard-response","244","252712","0.0-13.0-0.11","Ay0j73sa3E","5f724539c03c5415829579a6","6617fad957f7c6a12ea16e26","6622c93faef7ae31af983887","fixation cross","null","","","","","","","","","","","",""
"","1038","html-keyboard-response","245","253749","0.0-13.0-1.11","Ay0j73sa3E","5f724539c03c5415829579a6","6617fad957f7c6a12ea16e26","6622c93faef7ae31af983887","image grid","p","","","","","Ontogenetic_Distractor_Threat_target","2500","ongrid","q","6","Ontogenetic","false","experimental"
"","null","html-keyboard-response","246","253912","0.0-13.0-2.11","Ay0j73sa3E","5f724539c03c5415829579a6","6617fad957f7c6a12ea16e26","6622c93faef7ae31af983887","
    <div id=""grid-container"">
        <!-- Grid items will be dynamically added here -->
    </div>    ","null","","","","","","","","","","","",""
"","null","html-keyboard-response","247","254628","0.0-13.0-0.12","Ay0j73sa3E","5f724539c03c5415829579a6","6617fad957f7c6a12ea16e26","6622c93faef7ae31af983887","fixation cross","null","","","","","","","","","","","",""
"","992","html-keyboard-response","248","255620","0.0-13.0-1.12","Ay0j73sa3E","5f724539c03c5415829579a6","6617fad957f7c6a12ea16e26","6622c93faef7ae31af983887","image grid"," ","","","","","Ontogenetic_Distractor_notarget","2500","ongrid"," ","6","Ontogenetic","true","experimental"
"","null","html-keyboard-response","249","255780","0.0-13.0-2.12","Ay0j73sa3E","5f724539c03c5415829579a6","6617fad957f7c6a12ea16e26","6622c93faef7ae31af983887","
    <div id=""grid-container"">
        <!-- Grid items will be dynamically added here -->
    </div>    ","null","","","","","","","","","","","",""
"","null","html-keyboard-response","250","256485","0.0-13.0-0.13","Ay0j73sa3E","5f724539c03c5415829579a6","6617fad957f7c6a12ea16e26","6622c93faef7ae31af983887","fixation cross","null","","","","","","","","","","","",""
"","996","html-keyboard-response","251","257480","0.0-13.0-1.13","Ay0j73sa3E","5f724539c03c5415829579a6","6617fad957f7c6a12ea16e26","6622c93faef7ae31af983887","image grid"," ","","","","","Ontogenetic_Distractor_Threat_target","2500","ongrid","q","2","Ontogenetic","false","experimental"
"","null","html-keyboard-response","252","257640","0.0-13.0-2.13","Ay0j73sa3E","5f724539c03c5415829579a6","6617fad957f7c6a12ea16e26","6622c93faef7ae31af983887","
    <div id=""grid-container"">
        <!-- Grid items will be dynamically added here -->
    </div>    ","null","","","","","","","","","","","",""
"","null","html-keyboard-response","253","258351","0.0-13.0-0.14","Ay0j73sa3E","5f724539c03c5415829579a6","6617fad957f7c6a12ea16e26","6622c93faef7ae31af983887","fixation cross","null","","","","","","","","","","","",""
"","743","html-keyboard-response","254","259094","0.0-13.0-1.14","Ay0j73sa3E","5f724539c03c5415829579a6","6617fad957f7c6a12ea16e26","6622c93faef7ae31af983887","image grid","q","","","","","Ontogenetic_Distractor_Threat_target","2500","ongrid","q","3","Ontogenetic","true","experimental"
"","null","html-keyboard-response","255","259252","0.0-13.0-2.14","Ay0j73sa3E","5f724539c03c5415829579a6","6617fad957f7c6a12ea16e26","6622c93faef7ae31af983887","
    <div id=""grid-container"">
        <!-- Grid items will be dynamically added here -->
    </div>    ","null","","","","","","","","","","","",""
"","null","html-keyboard-response","256","259978","0.0-13.0-0.15","Ay0j73sa3E","5f724539c03c5415829579a6","6617fad957f7c6a12ea16e26","6622c93faef7ae31af983887","fixation cross","null","","","","","","","","","","","",""
"","932","html-keyboard-response","257","260910","0.0-13.0-1.15","Ay0j73sa3E","5f724539c03c5415829579a6","6617fad957f7c6a12ea16e26","6622c93faef7ae31af983887","image grid","q","","","","","Ontogenetic_Distractor_Threat_target","2500","ongrid","q","8","Ontogenetic","true","experimental"
"","null","html-keyboard-response","258","261061","0.0-13.0-2.15","Ay0j73sa3E","5f724539c03c5415829579a6","6617fad957f7c6a12ea16e26","6622c93faef7ae31af983887","
    <div id=""grid-container"">
        <!-- Grid items will be dynamically added here -->
    </div>    ","null","","","","","","","","","","","",""
"","null","html-keyboard-response","259","261768","0.0-13.0-0.16","Ay0j73sa3E","5f724539c03c5415829579a6","6617fad957f7c6a12ea16e26","6622c93faef7ae31af983887","fixation cross","null","","","","","","","","","","","",""
"","898","html-keyboard-response","260","262666","0.0-13.0-1.16","Ay0j73sa3E","5f724539c03c5415829579a6","6617fad957f7c6a12ea16e26","6622c93faef7ae31af983887","image grid","p","","","","","Ontogenetic_Distractor_Nonthreat_target","2500","ongrid","p","5","Ontogenetic","true","experimental"
"","null","html-keyboard-response","261","262827","0.0-13.0-2.16","Ay0j73sa3E","5f724539c03c5415829579a6","6617fad957f7c6a12ea16e26","6622c93faef7ae31af983887","
    <div id=""grid-container"">
        <!-- Grid items will be dynamically added here -->
    </div>    ","null","","","","","","","","","","","",""
"","null","html-keyboard-response","262","263540","0.0-13.0-0.17","Ay0j73sa3E","5f724539c03c5415829579a6","6617fad957f7c6a12ea16e26","6622c93faef7ae31af983887","fixation cross","null","","","","","","","","","","","",""
"","807","html-keyboard-response","263","264348","0.0-13.0-1.17","Ay0j73sa3E","5f724539c03c5415829579a6","6617fad957f7c6a12ea16e26","6622c93faef7ae31af983887","image grid","q","","","","","Ontogenetic_Distractor_Threat_target","2500","ongrid","q","8","Ontogenetic","true","experimental"
"","null","html-keyboard-response","264","264506","0.0-13.0-2.17","Ay0j73sa3E","5f724539c03c5415829579a6","6617fad957f7c6a12ea16e26","6622c93faef7ae31af983887","
    <div id=""grid-container"">
        <!-- Grid items will be dynamically added here -->
    </div>    ","null","","","","","","","","","","","",""
"","null","html-keyboard-response","265","265214","0.0-13.0-0.18","Ay0j73sa3E","5f724539c03c5415829579a6","6617fad957f7c6a12ea16e26","6622c93faef7ae31af983887","fixation cross","null","","","","","","","","","","","",""
"","1069","html-keyboard-response","266","266284","0.0-13.0-1.18","Ay0j73sa3E","5f724539c03c5415829579a6","6617fad957f7c6a12ea16e26","6622c93faef7ae31af983887","image grid","q","","","","","Ontogenetic_Distractor_Threat_target","2500","ongrid","q","9","Ontogenetic","true","experimental"
"","null","html-keyboard-response","267","266449","0.0-13.0-2.18","Ay0j73sa3E","5f724539c03c5415829579a6","6617fad957f7c6a12ea16e26","6622c93faef7ae31af983887","
    <div id=""grid-container"">
        <!-- Grid items will be dynamically added here -->
    </div>    ","null","","","","","","","","","","","",""
"","null","html-keyboard-response","268","267224","0.0-13.0-0.19","Ay0j73sa3E","5f724539c03c5415829579a6","6617fad957f7c6a12ea16e26","6622c93faef7ae31af983887","fixation cross","null","","","","","","","","","","","",""
"","1309","html-keyboard-response","269","268533","0.0-13.0-1.19","Ay0j73sa3E","5f724539c03c5415829579a6","6617fad957f7c6a12ea16e26","6622c93faef7ae31af983887","image grid"," ","","","","","Ontogenetic_Distractor_notarget","2500","ongrid"," ","7","Ontogenetic","true","experimental"
"","null","html-keyboard-response","270","268685","0.0-13.0-2.19","Ay0j73sa3E","5f724539c03c5415829579a6","6617fad957f7c6a12ea16e26","6622c93faef7ae31af983887","
    <div id=""grid-container"">
        <!-- Grid items will be dynamically added here -->
    </div>    ","null","","","","","","","","","","","",""
"","null","html-keyboard-response","271","269397","0.0-13.0-0.20","Ay0j73sa3E","5f724539c03c5415829579a6","6617fad957f7c6a12ea16e26","6622c93faef7ae31af983887","fixation cross","null","","","","","","","","","","","",""
"","939","html-keyboard-response","272","270337","0.0-13.0-1.20","Ay0j73sa3E","5f724539c03c5415829579a6","6617fad957f7c6a12ea16e26","6622c93faef7ae31af983887","image grid","p","","","","","Ontogenetic_Distractor_Nonthreat_target","2500","ongrid","p","9","Ontogenetic","true","experimental"
"","null","html-keyboard-response","273","270491","0.0-13.0-2.20","Ay0j73sa3E","5f724539c03c5415829579a6","6617fad957f7c6a12ea16e26","6622c93faef7ae31af983887","
    <div id=""grid-container"">
        <!-- Grid items will be dynamically added here -->
    </div>    ","null","","","","","","","","","","","",""
"","null","html-keyboard-response","274","271203","0.0-13.0-0.21","Ay0j73sa3E","5f724539c03c5415829579a6","6617fad957f7c6a12ea16e26","6622c93faef7ae31af983887","fixation cross","null","","","","","","","","","","","",""
"","877","html-keyboard-response","275","272081","0.0-13.0-1.21","Ay0j73sa3E","5f724539c03c5415829579a6","6617fad957f7c6a12ea16e26","6622c93faef7ae31af983887","image grid"," ","","","","","Ontogenetic_Distractor_Nonthreat_target","2500","ongrid","p","8","Ontogenetic","false","experimental"
"","null","html-keyboard-response","276","272244","0.0-13.0-2.21","Ay0j73sa3E","5f724539c03c5415829579a6","6617fad957f7c6a12ea16e26","6622c93faef7ae31af983887","
    <div id=""grid-container"">
        <!-- Grid items will be dynamically added here -->
    </div>    ","null","","","","","","","","","","","",""
"","null","html-keyboard-response","277","272955","0.0-13.0-0.22","Ay0j73sa3E","5f724539c03c5415829579a6","6617fad957f7c6a12ea16e26","6622c93faef7ae31af983887","fixation cross","null","","","","","","","","","","","",""
"","1119","html-keyboard-response","278","274075","0.0-13.0-1.22","Ay0j73sa3E","5f724539c03c5415829579a6","6617fad957f7c6a12ea16e26","6622c93faef7ae31af983887","image grid","q","","","","","Ontogenetic_Distractor_Threat_target","2500","ongrid","q","3","Ontogenetic","true","experimental"
"","null","html-keyboard-response","279","274234","0.0-13.0-2.22","Ay0j73sa3E","5f724539c03c5415829579a6","6617fad957f7c6a12ea16e26","6622c93faef7ae31af983887","
    <div id=""grid-container"">
        <!-- Grid items will be dynamically added here -->
    </div>    ","null","","","","","","","","","","","",""
"","null","html-keyboard-response","280","274946","0.0-13.0-0.23","Ay0j73sa3E","5f724539c03c5415829579a6","6617fad957f7c6a12ea16e26","6622c93faef7ae31af983887","fixation cross","null","","","","","","","","","","","",""
"","824","html-keyboard-response","281","275770","0.0-13.0-1.23","Ay0j73sa3E","5f724539c03c5415829579a6","6617fad957f7c6a12ea16e26","6622c93faef7ae31af983887","image grid","q","","","","","Ontogenetic_Distractor_Threat_target","2500","ongrid","q","7","Ontogenetic","true","experimental"
"","null","html-keyboard-response","282","275926","0.0-13.0-2.23","Ay0j73sa3E","5f724539c03c5415829579a6","6617fad957f7c6a12ea16e26","6622c93faef7ae31af983887","
    <div id=""grid-container"">
        <!-- Grid items will be dynamically added here -->
    </div>    ","null","","","","","","","","","","","",""
"","null","html-keyboard-response","283","276640","0.0-13.0-0.24","Ay0j73sa3E","5f724539c03c5415829579a6","6617fad957f7c6a12ea16e26","6622c93faef7ae31af983887","fixation cross","null","","","","","","","","","","","",""
"","837","html-keyboard-response","284","277478","0.0-13.0-1.24","Ay0j73sa3E","5f724539c03c5415829579a6","6617fad957f7c6a12ea16e26","6622c93faef7ae31af983887","image grid","p","","","","","Ontogenetic_Distractor_Nonthreat_target","2500","ongrid","p","7","Ontogenetic","true","experimental"
"","null","html-keyboard-response","285","277639","0.0-13.0-2.24","Ay0j73sa3E","5f724539c03c5415829579a6","6617fad957f7c6a12ea16e26","6622c93faef7ae31af983887","
    <div id=""grid-container"">
        <!-- Grid items will be dynamically added here -->
    </div>    ","null","","","","","","","","","","","",""
"","null","html-keyboard-response","286","278348","0.0-13.0-0.25","Ay0j73sa3E","5f724539c03c5415829579a6","6617fad957f7c6a12ea16e26","6622c93faef7ae31af983887","fixation cross","null","","","","","","","","","","","",""
"","738","html-keyboard-response","287","279088","0.0-13.0-1.25","Ay0j73sa3E","5f724539c03c5415829579a6","6617fad957f7c6a12ea16e26","6622c93faef7ae31af983887","image grid","p","","","","","Ontogenetic_Distractor_Nonthreat_target","2500","ongrid","p","9","Ontogenetic","true","experimental"
"","null","html-keyboard-response","288","279239","0.0-13.0-2.25","Ay0j73sa3E","5f724539c03c5415829579a6","6617fad957f7c6a12ea16e26","6622c93faef7ae31af983887","
    <div id=""grid-container"">
        <!-- Grid items will be dynamically added here -->
    </div>    ","null","","","","","","","","","","","",""
"","null","html-keyboard-response","289","279950","0.0-13.0-0.26","Ay0j73sa3E","5f724539c03c5415829579a6","6617fad957f7c6a12ea16e26","6622c93faef7ae31af983887","fixation cross","null","","","","","","","","","","","",""
"","874","html-keyboard-response","290","280827","0.0-13.0-1.26","Ay0j73sa3E","5f724539c03c5415829579a6","6617fad957f7c6a12ea16e26","6622c93faef7ae31af983887","image grid","q","","","","","Ontogenetic_Distractor_Nonthreat_target","2500","ongrid","p","1","Ontogenetic","false","experimental"
"","null","html-keyboard-response","291","280991","0.0-13.0-2.26","Ay0j73sa3E","5f724539c03c5415829579a6","6617fad957f7c6a12ea16e26","6622c93faef7ae31af983887","
    <div id=""grid-container"">
        <!-- Grid items will be dynamically added here -->
    </div>    ","null","","","","","","","","","","","",""
"","null","html-keyboard-response","292","281701","0.0-13.0-0.27","Ay0j73sa3E","5f724539c03c5415829579a6","6617fad957f7c6a12ea16e26","6622c93faef7ae31af983887","fixation cross","null","","","","","","","","","","","",""
"","983","html-keyboard-response","293","282686","0.0-13.0-1.27","Ay0j73sa3E","5f724539c03c5415829579a6","6617fad957f7c6a12ea16e26","6622c93faef7ae31af983887","image grid"," ","","","","","Ontogenetic_Distractor_Nonthreat_target","2500","ongrid","p","7","Ontogenetic","false","experimental"
"","null","html-keyboard-response","294","282843","0.0-13.0-2.27","Ay0j73sa3E","5f724539c03c5415829579a6","6617fad957f7c6a12ea16e26","6622c93faef7ae31af983887","
    <div id=""grid-container"">
        <!-- Grid items will be dynamically added here -->
    </div>    ","null","","","","","","","","","","","",""
"","null","html-keyboard-response","295","283562","0.0-13.0-0.28","Ay0j73sa3E","5f724539c03c5415829579a6","6617fad957f7c6a12ea16e26","6622c93faef7ae31af983887","fixation cross","null","","","","","","","","","","","",""
"","857","html-keyboard-response","296","284419","0.0-13.0-1.28","Ay0j73sa3E","5f724539c03c5415829579a6","6617fad957f7c6a12ea16e26","6622c93faef7ae31af983887","image grid","p","","","","","Ontogenetic_Distractor_Nonthreat_target","2500","ongrid","p","7","Ontogenetic","true","experimental"
"","null","html-keyboard-response","297","284586","0.0-13.0-2.28","Ay0j73sa3E","5f724539c03c5415829579a6","6617fad957f7c6a12ea16e26","6622c93faef7ae31af983887","
    <div id=""grid-container"">
        <!-- Grid items will be dynamically added here -->
    </div>    ","null","","","","","","","","","","","",""
"","null","html-keyboard-response","298","285304","0.0-13.0-0.29","Ay0j73sa3E","5f724539c03c5415829579a6","6617fad957f7c6a12ea16e26","6622c93faef7ae31af983887","fixation cross","null","","","","","","","","","","","",""
"","1256","html-keyboard-response","299","286559","0.0-13.0-1.29","Ay0j73sa3E","5f724539c03c5415829579a6","6617fad957f7c6a12ea16e26","6622c93faef7ae31af983887","image grid","q","","","","","Ontogenetic_Distractor_Threat_target","2500","ongrid","q","3","Ontogenetic","true","experimental"
"","null","html-keyboard-response","300","286725","0.0-13.0-2.29","Ay0j73sa3E","5f724539c03c5415829579a6","6617fad957f7c6a12ea16e26","6622c93faef7ae31af983887","
    <div id=""grid-container"">
        <!-- Grid items will be dynamically added here -->
    </div>    ","null","","","","","","","","","","","",""
"","null","html-keyboard-response","301","287435","0.0-13.0-0.30","Ay0j73sa3E","5f724539c03c5415829579a6","6617fad957f7c6a12ea16e26","6622c93faef7ae31af983887","fixation cross","null","","","","","","","","","","","",""
"","774","html-keyboard-response","302","288210","0.0-13.0-1.30","Ay0j73sa3E","5f724539c03c5415829579a6","6617fad957f7c6a12ea16e26","6622c93faef7ae31af983887","image grid","q","","","","","Ontogenetic_Distractor_Threat_target","2500","ongrid","q","9","Ontogenetic","true","experimental"
"","null","html-keyboard-response","303","288376","0.0-13.0-2.30","Ay0j73sa3E","5f724539c03c5415829579a6","6617fad957f7c6a12ea16e26","6622c93faef7ae31af983887","
    <div id=""grid-container"">
        <!-- Grid items will be dynamically added here -->
    </div>    ","null","","","","","","","","","","","",""
"","null","html-keyboard-response","304","289088","0.0-13.0-0.31","Ay0j73sa3E","5f724539c03c5415829579a6","6617fad957f7c6a12ea16e26","6622c93faef7ae31af983887","fixation cross","null","","","","","","","","","","","",""
"","908","html-keyboard-response","305","289996","0.0-13.0-1.31","Ay0j73sa3E","5f724539c03c5415829579a6","6617fad957f7c6a12ea16e26","6622c93faef7ae31af983887","image grid"," ","","","","","Ontogenetic_Distractor_Threat_target","2500","ongrid","q","3","Ontogenetic","false","experimental"
"","null","html-keyboard-response","306","290154","0.0-13.0-2.31","Ay0j73sa3E","5f724539c03c5415829579a6","6617fad957f7c6a12ea16e26","6622c93faef7ae31af983887","
    <div id=""grid-container"">
        <!-- Grid items will be dynamically added here -->
    </div>    ","null","","","","","","","","","","","",""
"","null","html-keyboard-response","307","290857","0.0-13.0-0.32","Ay0j73sa3E","5f724539c03c5415829579a6","6617fad957f7c6a12ea16e26","6622c93faef7ae31af983887","fixation cross","null","","","","","","","","","","","",""
"","974","html-keyboard-response","308","291831","0.0-13.0-1.32","Ay0j73sa3E","5f724539c03c5415829579a6","6617fad957f7c6a12ea16e26","6622c93faef7ae31af983887","image grid","p","","","","","Ontogenetic_Distractor_Nonthreat_target","2500","ongrid","p","7","Ontogenetic","true","experimental"
"","null","html-keyboard-response","309","291994","0.0-13.0-2.32","Ay0j73sa3E","5f724539c03c5415829579a6","6617fad957f7c6a12ea16e26","6622c93faef7ae31af983887","
    <div id=""grid-container"">
        <!-- Grid items will be dynamically added here -->
    </div>    ","null","","","","","","","","","","","",""
"","null","html-keyboard-response","310","292701","0.0-13.0-0.33","Ay0j73sa3E","5f724539c03c5415829579a6","6617fad957f7c6a12ea16e26","6622c93faef7ae31af983887","fixation cross","null","","","","","","","","","","","",""
"","794","html-keyboard-response","311","293496","0.0-13.0-1.33","Ay0j73sa3E","5f724539c03c5415829579a6","6617fad957f7c6a12ea16e26","6622c93faef7ae31af983887","image grid","q","","","","","Ontogenetic_Distractor_Threat_target","2500","ongrid","q","5","Ontogenetic","true","experimental"
"","null","html-keyboard-response","312","293648","0.0-13.0-2.33","Ay0j73sa3E","5f724539c03c5415829579a6","6617fad957f7c6a12ea16e26","6622c93faef7ae31af983887","
    <div id=""grid-container"">
        <!-- Grid items will be dynamically added here -->
    </div>    ","null","","","","","","","","","","","",""
"","null","html-keyboard-response","313","294356","0.0-13.0-0.34","Ay0j73sa3E","5f724539c03c5415829579a6","6617fad957f7c6a12ea16e26","6622c93faef7ae31af983887","fixation cross","null","","","","","","","","","","","",""
"","813","html-keyboard-response","314","295170","0.0-13.0-1.34","Ay0j73sa3E","5f724539c03c5415829579a6","6617fad957f7c6a12ea16e26","6622c93faef7ae31af983887","image grid","p","","","","","Ontogenetic_Distractor_Nonthreat_target","2500","ongrid","p","8","Ontogenetic","true","experimental"
"","null","html-keyboard-response","315","295324","0.0-13.0-2.34","Ay0j73sa3E","5f724539c03c5415829579a6","6617fad957f7c6a12ea16e26","6622c93faef7ae31af983887","
    <div id=""grid-container"">
        <!-- Grid items will be dynamically added here -->
    </div>    ","null","","","","","","","","","","","",""
"","null","html-keyboard-response","316","296037","0.0-13.0-0.35","Ay0j73sa3E","5f724539c03c5415829579a6","6617fad957f7c6a12ea16e26","6622c93faef7ae31af983887","fixation cross","null","","","","","","","","","","","",""
"","780","html-keyboard-response","317","296819","0.0-13.0-1.35","Ay0j73sa3E","5f724539c03c5415829579a6","6617fad957f7c6a12ea16e26","6622c93faef7ae31af983887","image grid","p","","","","","Ontogenetic_Distractor_Nonthreat_target","2500","ongrid","p","5","Ontogenetic","true","experimental"
"","null","html-keyboard-response","318","296982","0.0-13.0-2.35","Ay0j73sa3E","5f724539c03c5415829579a6","6617fad957f7c6a12ea16e26","6622c93faef7ae31af983887","
    <div id=""grid-container"">
        <!-- Grid items will be dynamically added here -->
    </div>    ","null","","","","","","","","","","","",""
"","null","html-keyboard-response","319","297696","0.0-13.0-0.36","Ay0j73sa3E","5f724539c03c5415829579a6","6617fad957f7c6a12ea16e26","6622c93faef7ae31af983887","fixation cross","null","","","","","","","","","","","",""
"","760","html-keyboard-response","320","298456","0.0-13.0-1.36","Ay0j73sa3E","5f724539c03c5415829579a6","6617fad957f7c6a12ea16e26","6622c93faef7ae31af983887","image grid","q","","","","","Ontogenetic_Distractor_Nonthreat_target","2500","ongrid","p","1","Ontogenetic","false","experimental"
"","null","html-keyboard-response","321","298612","0.0-13.0-2.36","Ay0j73sa3E","5f724539c03c5415829579a6","6617fad957f7c6a12ea16e26","6622c93faef7ae31af983887","
    <div id=""grid-container"">
        <!-- Grid items will be dynamically added here -->
    </div>    ","null","","","","","","","","","","","",""
"","null","html-keyboard-response","322","299316","0.0-13.0-0.37","Ay0j73sa3E","5f724539c03c5415829579a6","6617fad957f7c6a12ea16e26","6622c93faef7ae31af983887","fixation cross","null","","","","","","","","","","","",""
"","811","html-keyboard-response","323","300126","0.0-13.0-1.37","Ay0j73sa3E","5f724539c03c5415829579a6","6617fad957f7c6a12ea16e26","6622c93faef7ae31af983887","image grid","q","","","","","Ontogenetic_Distractor_Threat_target","2500","ongrid","q","3","Ontogenetic","true","experimental"
"","null","html-keyboard-response","324","300278","0.0-13.0-2.37","Ay0j73sa3E","5f724539c03c5415829579a6","6617fad957f7c6a12ea16e26","6622c93faef7ae31af983887","
    <div id=""grid-container"">
        <!-- Grid items will be dynamically added here -->
    </div>    ","null","","","","","","","","","","","",""
"","null","html-keyboard-response","325","300990","0.0-13.0-0.38","Ay0j73sa3E","5f724539c03c5415829579a6","6617fad957f7c6a12ea16e26","6622c93faef7ae31af983887","fixation cross","null","","","","","","","","","","","",""
"","878","html-keyboard-response","326","301867","0.0-13.0-1.38","Ay0j73sa3E","5f724539c03c5415829579a6","6617fad957f7c6a12ea16e26","6622c93faef7ae31af983887","image grid","q","","","","","Ontogenetic_Distractor_Threat_target","2500","ongrid","q","1","Ontogenetic","true","experimental"
"","null","html-keyboard-response","327","302019","0.0-13.0-2.38","Ay0j73sa3E","5f724539c03c5415829579a6","6617fad957f7c6a12ea16e26","6622c93faef7ae31af983887","
    <div id=""grid-container"">
        <!-- Grid items will be dynamically added here -->
    </div>    ","null","","","","","","","","","","","",""
"","null","html-keyboard-response","328","302726","0.0-13.0-0.39","Ay0j73sa3E","5f724539c03c5415829579a6","6617fad957f7c6a12ea16e26","6622c93faef7ae31af983887","fixation cross","null","","","","","","","","","","","",""
"","1017","html-keyboard-response","329","303743","0.0-13.0-1.39","Ay0j73sa3E","5f724539c03c5415829579a6","6617fad957f7c6a12ea16e26","6622c93faef7ae31af983887","image grid"," ","","","","","Ontogenetic_Distractor_Threat_target","2500","ongrid","q","2","Ontogenetic","false","experimental"
"","null","html-keyboard-response","330","303903","0.0-13.0-2.39","Ay0j73sa3E","5f724539c03c5415829579a6","6617fad957f7c6a12ea16e26","6622c93faef7ae31af983887","
    <div id=""grid-container"">
        <!-- Grid items will be dynamically added here -->
    </div>    ","null","","","","","","","","","","","",""
"","2728","html-keyboard-response","331","306836","0.0-14.0","Ay0j73sa3E","5f724539c03c5415829579a6","6617fad957f7c6a12ea16e26","6622c93faef7ae31af983887","break screen"," ","","","","","","","","","","","",""
"","null","html-keyboard-response","332","309351","0.0-15.0-0.0","Ay0j73sa3E","5f724539c03c5415829579a6","6617fad957f7c6a12ea16e26","6622c93faef7ae31af983887","fixation cross","null","","","","","","","","","","","",""
"","null","html-keyboard-response","333","310158","0.0-15.0-1.0","Ay0j73sa3E","5f724539c03c5415829579a6","6617fad957f7c6a12ea16e26","6622c93faef7ae31af983887","
        <div id=""grid-container"">
        <!-- Grid items will be dynamically added here -->
    </div>    ","null","","","","","","","","","","","",""
"","939","html-keyboard-response","334","310296","0.0-15.0-2.0","Ay0j73sa3E","5f724539c03c5415829579a6","6617fad957f7c6a12ea16e26","6622c93faef7ae31af983887","mask grid","p","","","","","Phylogenetic_Distractor_Nonthreat_target","800","onmask","p","1","Phylogenetic","true","experimental"
"","null","html-keyboard-response","335","311011","0.0-15.0-0.1","Ay0j73sa3E","5f724539c03c5415829579a6","6617fad957f7c6a12ea16e26","6622c93faef7ae31af983887","fixation cross","null","","","","","","","","","","","",""
"","760","html-keyboard-response","336","311772","0.0-15.0-1.1","Ay0j73sa3E","5f724539c03c5415829579a6","6617fad957f7c6a12ea16e26","6622c93faef7ae31af983887","image grid","q","","","","","Phylogenetic_Distractor_Threat_target","800","ongrid","q","6","Phylogenetic","true","experimental"
"","null","html-keyboard-response","337","311923","0.0-15.0-2.1","Ay0j73sa3E","5f724539c03c5415829579a6","6617fad957f7c6a12ea16e26","6622c93faef7ae31af983887","
    <div id=""grid-container"">
        <!-- Grid items will be dynamically added here -->
    </div>    ","null","","","","","","","","","","","",""
"","null","html-keyboard-response","338","312641","0.0-15.0-0.2","Ay0j73sa3E","5f724539c03c5415829579a6","6617fad957f7c6a12ea16e26","6622c93faef7ae31af983887","fixation cross","null","","","","","","","","","","","",""
"","null","html-keyboard-response","339","313456","0.0-15.0-1.2","Ay0j73sa3E","5f724539c03c5415829579a6","6617fad957f7c6a12ea16e26","6622c93faef7ae31af983887","
        <div id=""grid-container"">
        <!-- Grid items will be dynamically added here -->
    </div>    ","null","","","","","","","","","","","",""
"","868","html-keyboard-response","340","313525","0.0-15.0-2.2","Ay0j73sa3E","5f724539c03c5415829579a6","6617fad957f7c6a12ea16e26","6622c93faef7ae31af983887","mask grid","p","","","","","Phylogenetic_Distractor_Nonthreat_target","800","onmask","p","5","Phylogenetic","true","experimental"
"","null","html-keyboard-response","341","314238","0.0-15.0-0.3","Ay0j73sa3E","5f724539c03c5415829579a6","6617fad957f7c6a12ea16e26","6622c93faef7ae31af983887","fixation cross","null","","","","","","","","","","","",""
"","null","html-keyboard-response","342","315047","0.0-15.0-1.3","Ay0j73sa3E","5f724539c03c5415829579a6","6617fad957f7c6a12ea16e26","6622c93faef7ae31af983887","
        <div id=""grid-container"">
        <!-- Grid items will be dynamically added here -->
    </div>    ","null","","","","","","","","","","","",""
"","981","html-keyboard-response","343","315230","0.0-15.0-2.3","Ay0j73sa3E","5f724539c03c5415829579a6","6617fad957f7c6a12ea16e26","6622c93faef7ae31af983887","mask grid"," ","","","","","Phylogenetic_Distractor_notarget","800","onmask"," ","8","Phylogenetic","true","experimental"
"","null","html-keyboard-response","344","315943","0.0-15.0-0.4","Ay0j73sa3E","5f724539c03c5415829579a6","6617fad957f7c6a12ea16e26","6622c93faef7ae31af983887","fixation cross","null","","","","","","","","","","","",""
"","709","html-keyboard-response","345","316653","0.0-15.0-1.4","Ay0j73sa3E","5f724539c03c5415829579a6","6617fad957f7c6a12ea16e26","6622c93faef7ae31af983887","image grid","q","","","","","Phylogenetic_Distractor_Threat_target","800","ongrid","q","5","Phylogenetic","true","experimental"
"","null","html-keyboard-response","346","316812","0.0-15.0-2.4","Ay0j73sa3E","5f724539c03c5415829579a6","6617fad957f7c6a12ea16e26","6622c93faef7ae31af983887","
    <div id=""grid-container"">
        <!-- Grid items will be dynamically added here -->
    </div>    ","null","","","","","","","","","","","",""
"","null","html-keyboard-response","347","317527","0.0-15.0-0.5","Ay0j73sa3E","5f724539c03c5415829579a6","6617fad957f7c6a12ea16e26","6622c93faef7ae31af983887","fixation cross","null","","","","","","","","","","","",""
"","null","html-keyboard-response","348","318343","0.0-15.0-1.5","Ay0j73sa3E","5f724539c03c5415829579a6","6617fad957f7c6a12ea16e26","6622c93faef7ae31af983887","
        <div id=""grid-container"">
        <!-- Grid items will be dynamically added here -->
    </div>    ","null","","","","","","","","","","","",""
"","812","html-keyboard-response","349","318354","0.0-15.0-2.5","Ay0j73sa3E","5f724539c03c5415829579a6","6617fad957f7c6a12ea16e26","6622c93faef7ae31af983887","mask grid","q","","","","","Phylogenetic_Distractor_Threat_target","800","onmask","q","9","Phylogenetic","true","experimental"
"","null","html-keyboard-response","350","319071","0.0-15.0-0.6","Ay0j73sa3E","5f724539c03c5415829579a6","6617fad957f7c6a12ea16e26","6622c93faef7ae31af983887","fixation cross","null","","","","","","","","","","","",""
"","563","html-keyboard-response","351","319635","0.0-15.0-1.6","Ay0j73sa3E","5f724539c03c5415829579a6","6617fad957f7c6a12ea16e26","6622c93faef7ae31af983887","image grid","q","","","","","Phylogenetic_Distractor_Threat_target","800","ongrid","q","2","Phylogenetic","true","experimental"
"","null","html-keyboard-response","352","319791","0.0-15.0-2.6","Ay0j73sa3E","5f724539c03c5415829579a6","6617fad957f7c6a12ea16e26","6622c93faef7ae31af983887","
    <div id=""grid-container"">
        <!-- Grid items will be dynamically added here -->
    </div>    ","null","","","","","","","","","","","",""
"","null","html-keyboard-response","353","320506","0.0-15.0-0.7","Ay0j73sa3E","5f724539c03c5415829579a6","6617fad957f7c6a12ea16e26","6622c93faef7ae31af983887","fixation cross","null","","","","","","","","","","","",""
"","788","html-keyboard-response","354","321294","0.0-15.0-1.7","Ay0j73sa3E","5f724539c03c5415829579a6","6617fad957f7c6a12ea16e26","6622c93faef7ae31af983887","image grid","p","","","","","Phylogenetic_Distractor_Threat_target","800","ongrid","q","8","Phylogenetic","false","experimental"
"","115","html-keyboard-response","355","321456","0.0-15.0-2.7","Ay0j73sa3E","5f724539c03c5415829579a6","6617fad957f7c6a12ea16e26","6622c93faef7ae31af983887","
    <div id=""grid-container"">
        <!-- Grid items will be dynamically added here -->
    </div>    ","q","","","","","","","","","","","",""
"","null","html-keyboard-response","356","322217","0.0-15.0-0.8","Ay0j73sa3E","5f724539c03c5415829579a6","6617fad957f7c6a12ea16e26","6622c93faef7ae31af983887","fixation cross","null","","","","","","","","","","","",""
"","null","html-keyboard-response","357","323027","0.0-15.0-1.8","Ay0j73sa3E","5f724539c03c5415829579a6","6617fad957f7c6a12ea16e26","6622c93faef7ae31af983887","
        <div id=""grid-container"">
        <!-- Grid items will be dynamically added here -->
    </div>    ","null","","","","","","","","","","","",""
"","844","html-keyboard-response","358","323071","0.0-15.0-2.8","Ay0j73sa3E","5f724539c03c5415829579a6","6617fad957f7c6a12ea16e26","6622c93faef7ae31af983887","mask grid","p","","","","","Phylogenetic_Distractor_Nonthreat_target","800","onmask","p","3","Phylogenetic","true","experimental"
"","null","html-keyboard-response","359","323790","0.0-15.0-0.9","Ay0j73sa3E","5f724539c03c5415829579a6","6617fad957f7c6a12ea16e26","6622c93faef7ae31af983887","fixation cross","null","","","","","","","","","","","",""
"","826","html-keyboard-response","360","324615","0.0-15.0-1.9","Ay0j73sa3E","5f724539c03c5415829579a6","6617fad957f7c6a12ea16e26","6622c93faef7ae31af983887","image grid"," ","","","","","Phylogenetic_Distractor_Threat_target","800","ongrid","q","7","Phylogenetic","false","experimental"
"","146","html-keyboard-response","361","324780","0.0-15.0-2.9","Ay0j73sa3E","5f724539c03c5415829579a6","6617fad957f7c6a12ea16e26","6622c93faef7ae31af983887","
    <div id=""grid-container"">
        <!-- Grid items will be dynamically added here -->
    </div>    ","q","","","","","","","","","","","",""
"","null","html-keyboard-response","362","325498","0.0-15.0-0.10","Ay0j73sa3E","5f724539c03c5415829579a6","6617fad957f7c6a12ea16e26","6622c93faef7ae31af983887","fixation cross","null","","","","","","","","","","","",""
"","null","html-keyboard-response","363","326313","0.0-15.0-1.10","Ay0j73sa3E","5f724539c03c5415829579a6","6617fad957f7c6a12ea16e26","6622c93faef7ae31af983887","
        <div id=""grid-container"">
        <!-- Grid items will be dynamically added here -->
    </div>    ","null","","","","","","","","","","","",""
"","828","html-keyboard-response","364","326342","0.0-15.0-2.10","Ay0j73sa3E","5f724539c03c5415829579a6","6617fad957f7c6a12ea16e26","6622c93faef7ae31af983887","mask grid"," ","","","","","Phylogenetic_Distractor_Nonthreat_target","800","onmask","p","5","Phylogenetic","false","experimental"
"","null","html-keyboard-response","365","327048","0.0-15.0-0.11","Ay0j73sa3E","5f724539c03c5415829579a6","6617fad957f7c6a12ea16e26","6622c93faef7ae31af983887","fixation cross","null","","","","","","","","","","","",""
"","null","html-keyboard-response","366","327853","0.0-15.0-1.11","Ay0j73sa3E","5f724539c03c5415829579a6","6617fad957f7c6a12ea16e26","6622c93faef7ae31af983887","
        <div id=""grid-container"">
        <!-- Grid items will be dynamically added here -->
    </div>    ","null","","","","","","","","","","","",""
"","931","html-keyboard-response","367","327983","0.0-15.0-2.11","Ay0j73sa3E","5f724539c03c5415829579a6","6617fad957f7c6a12ea16e26","6622c93faef7ae31af983887","mask grid"," ","","","","","Phylogenetic_Distractor_Nonthreat_target","800","onmask","p","1","Phylogenetic","false","experimental"
"","null","html-keyboard-response","368","328721","0.0-15.0-0.12","Ay0j73sa3E","5f724539c03c5415829579a6","6617fad957f7c6a12ea16e26","6622c93faef7ae31af983887","fixation cross","null","","","","","","","","","","","",""
"","null","html-keyboard-response","369","329525","0.0-15.0-1.12","Ay0j73sa3E","5f724539c03c5415829579a6","6617fad957f7c6a12ea16e26","6622c93faef7ae31af983887","
        <div id=""grid-container"">
        <!-- Grid items will be dynamically added here -->
    </div>    ","null","","","","","","","","","","","",""
