"success","rt","trial_type","trial_index","time_elapsed","internal_node_id","unique_identifier","subject_id","study_id","session_id","stimulus","response","timeout","failed_images","failed_audio","failed_video","task","time_manipulation","respondedwhen","correctresponse","targetimagelocation","blocktype","correct","roundtype"
"true","2302","fullscreen","0","3307","0.0-0.0","26UAcj2Kv4","6549c4b452f49429c69865e0","6617fad957f7c6a12ea16e26","6622caef51ece09e134972e1","","","","","","","","","","","","","",""
"","12318","html-keyboard-response","1","15629","0.0-1.0","26UAcj2Kv4","6549c4b452f49429c69865e0","6617fad957f7c6a12ea16e26","6622caef51ece09e134972e1","instruction screen 0"," ","","","","","","","","","","","",""
"true","","preload","2","17479","0.0-2.0","26UAcj2Kv4","6549c4b452f49429c69865e0","6617fad957f7c6a12ea16e26","6622caef51ece09e134972e1","","","false","[]","[]","[]","","","","","","","",""
"","9422","html-keyboard-response","3","26903","0.0-3.0","26UAcj2Kv4","6549c4b452f49429c69865e0","6617fad957f7c6a12ea16e26","6622caef51ece09e134972e1","instruction screen 1"," ","","","","","","","","","","","",""
"","14554","html-keyboard-response","4","41469","0.0-4.0","26UAcj2Kv4","6549c4b452f49429c69865e0","6617fad957f7c6a12ea16e26","6622caef51ece09e134972e1","instruction screen 2","q","","","","","","","","","","","",""
"","4139","html-keyboard-response","5","45618","0.0-5.0","26UAcj2Kv4","6549c4b452f49429c69865e0","6617fad957f7c6a12ea16e26","6622caef51ece09e134972e1","instruction screen 3","p","","","","","","","","","","","",""
"","4103","html-keyboard-response","6","49724","0.0-6.0","26UAcj2Kv4","6549c4b452f49429c69865e0","6617fad957f7c6a12ea16e26","6622caef51ece09e134972e1","instruction screen 4"," ","","","","","","","","","","","",""
"","22752","html-keyboard-response","7","72481","0.0-7.0","26UAcj2Kv4","6549c4b452f49429c69865e0","6617fad957f7c6a12ea16e26","6622caef51ece09e134972e1","instruction screen 5"," ","","","","","","","","","","","",""
"","null","html-keyboard-response","8","72992","0.0-8.0","26UAcj2Kv4","6549c4b452f49429c69865e0","6617fad957f7c6a12ea16e26","6622caef51ece09e134972e1","fixation cross","null","","","","","","","","","","","",""
"","null","html-keyboard-response","9","73495","0.0-9.0-0.0","26UAcj2Kv4","6549c4b452f49429c69865e0","6617fad957f7c6a12ea16e26","6622caef51ece09e134972e1","fixation cross","null","","","","","","","","","","","",""
"","2755","html-keyboard-response","10","76252","0.0-9.0-1.0","26UAcj2Kv4","6549c4b452f49429c69865e0","6617fad957f7c6a12ea16e26","6622caef51ece09e134972e1","image grid","p","","","","","Ontogenetic_Distractor_Nonthreat_target","3000","ongrid","p","6","Ontogenetic","true","practice"
"","null","html-keyboard-response","11","76405","0.0-9.0-2.0","26UAcj2Kv4","6549c4b452f49429c69865e0","6617fad957f7c6a12ea16e26","6622caef51ece09e134972e1","
    <div id=""grid-container"">
        <!-- Grid items will be dynamically added here -->
    </div>    ","null","","","","","","","","","","","",""
"","null","html-keyboard-response","12","77610","0.0-9.0-3.0","26UAcj2Kv4","6549c4b452f49429c69865e0","6617fad957f7c6a12ea16e26","6622caef51ece09e134972e1","feedback screen","null","","","","","","","","","","","",""
"","null","html-keyboard-response","13","78115","0.0-9.0-0.1","26UAcj2Kv4","6549c4b452f49429c69865e0","6617fad957f7c6a12ea16e26","6622caef51ece09e134972e1","fixation cross","null","","","","","","","","","","","",""
"","2237","html-keyboard-response","14","80354","0.0-9.0-1.1","26UAcj2Kv4","6549c4b452f49429c69865e0","6617fad957f7c6a12ea16e26","6622caef51ece09e134972e1","image grid","p","","","","","Ontogenetic_Distractor_Nonthreat_target","2900","ongrid","p","2","Ontogenetic","true","practice"
"","null","html-keyboard-response","15","80508","0.0-9.0-2.1","26UAcj2Kv4","6549c4b452f49429c69865e0","6617fad957f7c6a12ea16e26","6622caef51ece09e134972e1","
    <div id=""grid-container"">
        <!-- Grid items will be dynamically added here -->
    </div>    ","null","","","","","","","","","","","",""
"","null","html-keyboard-response","16","81712","0.0-9.0-3.1","26UAcj2Kv4","6549c4b452f49429c69865e0","6617fad957f7c6a12ea16e26","6622caef51ece09e134972e1","feedback screen","null","","","","","","","","","","","",""
"","null","html-keyboard-response","17","82217","0.0-9.0-0.2","26UAcj2Kv4","6549c4b452f49429c69865e0","6617fad957f7c6a12ea16e26","6622caef51ece09e134972e1","fixation cross","null","","","","","","","","","","","",""
"","2066","html-keyboard-response","18","84285","0.0-9.0-1.2","26UAcj2Kv4","6549c4b452f49429c69865e0","6617fad957f7c6a12ea16e26","6622caef51ece09e134972e1","image grid"," ","","","","","Phylogenetic_Distractor_Threat_target","2800","ongrid","q","8","Ontogenetic","false","practice"
"","null","html-keyboard-response","19","84437","0.0-9.0-2.2","26UAcj2Kv4","6549c4b452f49429c69865e0","6617fad957f7c6a12ea16e26","6622caef51ece09e134972e1","
    <div id=""grid-container"">
        <!-- Grid items will be dynamically added here -->
    </div>    ","null","","","","","","","","","","","",""
"","null","html-keyboard-response","20","85642","0.0-9.0-3.2","26UAcj2Kv4","6549c4b452f49429c69865e0","6617fad957f7c6a12ea16e26","6622caef51ece09e134972e1","feedback screen","null","","","","","","","","","","","",""
"","null","html-keyboard-response","21","86147","0.0-9.0-0.3","26UAcj2Kv4","6549c4b452f49429c69865e0","6617fad957f7c6a12ea16e26","6622caef51ece09e134972e1","fixation cross","null","","","","","","","","","","","",""
"","1332","html-keyboard-response","22","87481","0.0-9.0-1.3","26UAcj2Kv4","6549c4b452f49429c69865e0","6617fad957f7c6a12ea16e26","6622caef51ece09e134972e1","image grid","q","","","","","Ontogenetic_Distractor_Threat_target","2700","ongrid","q","9","Ontogenetic","true","practice"
"","null","html-keyboard-response","23","87634","0.0-9.0-2.3","26UAcj2Kv4","6549c4b452f49429c69865e0","6617fad957f7c6a12ea16e26","6622caef51ece09e134972e1","
    <div id=""grid-container"">
        <!-- Grid items will be dynamically added here -->
    </div>    ","null","","","","","","","","","","","",""
"","null","html-keyboard-response","24","88838","0.0-9.0-3.3","26UAcj2Kv4","6549c4b452f49429c69865e0","6617fad957f7c6a12ea16e26","6622caef51ece09e134972e1","feedback screen","null","","","","","","","","","","","",""
"","null","html-keyboard-response","25","89343","0.0-9.0-0.4","26UAcj2Kv4","6549c4b452f49429c69865e0","6617fad957f7c6a12ea16e26","6622caef51ece09e134972e1","fixation cross","null","","","","","","","","","","","",""
"","1996","html-keyboard-response","26","91342","0.0-9.0-1.4","26UAcj2Kv4","6549c4b452f49429c69865e0","6617fad957f7c6a12ea16e26","6622caef51ece09e134972e1","image grid","p","","","","","Phylogenetic_Distractor_Nonthreat_target","2600","ongrid","p","2","Ontogenetic","true","practice"
"","null","html-keyboard-response","27","91496","0.0-9.0-2.4","26UAcj2Kv4","6549c4b452f49429c69865e0","6617fad957f7c6a12ea16e26","6622caef51ece09e134972e1","
    <div id=""grid-container"">
        <!-- Grid items will be dynamically added here -->
    </div>    ","null","","","","","","","","","","","",""
"","null","html-keyboard-response","28","92700","0.0-9.0-3.4","26UAcj2Kv4","6549c4b452f49429c69865e0","6617fad957f7c6a12ea16e26","6622caef51ece09e134972e1","feedback screen","null","","","","","","","","","","","",""
"","null","html-keyboard-response","29","93204","0.0-9.0-0.5","26UAcj2Kv4","6549c4b452f49429c69865e0","6617fad957f7c6a12ea16e26","6622caef51ece09e134972e1","fixation cross","null","","","","","","","","","","","",""
"","2237","html-keyboard-response","30","95444","0.0-9.0-1.5","26UAcj2Kv4","6549c4b452f49429c69865e0","6617fad957f7c6a12ea16e26","6622caef51ece09e134972e1","image grid","q","","","","","Phylogenetic_Distractor_Threat_target","2500","ongrid","q","7","Ontogenetic","true","practice"
"","null","html-keyboard-response","31","95597","0.0-9.0-2.5","26UAcj2Kv4","6549c4b452f49429c69865e0","6617fad957f7c6a12ea16e26","6622caef51ece09e134972e1","
    <div id=""grid-container"">
        <!-- Grid items will be dynamically added here -->
    </div>    ","null","","","","","","","","","","","",""
"","null","html-keyboard-response","32","96802","0.0-9.0-3.5","26UAcj2Kv4","6549c4b452f49429c69865e0","6617fad957f7c6a12ea16e26","6622caef51ece09e134972e1","feedback screen","null","","","","","","","","","","","",""
"","null","html-keyboard-response","33","97307","0.0-9.0-0.6","26UAcj2Kv4","6549c4b452f49429c69865e0","6617fad957f7c6a12ea16e26","6622caef51ece09e134972e1","fixation cross","null","","","","","","","","","","","",""
"","1994","html-keyboard-response","34","99303","0.0-9.0-1.6","26UAcj2Kv4","6549c4b452f49429c69865e0","6617fad957f7c6a12ea16e26","6622caef51ece09e134972e1","image grid"," ","","","","","Phylogenetic_Distractor_notarget","2400","ongrid"," ","1","Ontogenetic","true","practice"
"","null","html-keyboard-response","35","99456","0.0-9.0-2.6","26UAcj2Kv4","6549c4b452f49429c69865e0","6617fad957f7c6a12ea16e26","6622caef51ece09e134972e1","
    <div id=""grid-container"">
        <!-- Grid items will be dynamically added here -->
    </div>    ","null","","","","","","","","","","","",""
"","null","html-keyboard-response","36","100661","0.0-9.0-3.6","26UAcj2Kv4","6549c4b452f49429c69865e0","6617fad957f7c6a12ea16e26","6622caef51ece09e134972e1","feedback screen","null","","","","","","","","","","","",""
"","null","html-keyboard-response","37","101167","0.0-9.0-0.7","26UAcj2Kv4","6549c4b452f49429c69865e0","6617fad957f7c6a12ea16e26","6622caef51ece09e134972e1","fixation cross","null","","","","","","","","","","","",""
"","1861","html-keyboard-response","38","103029","0.0-9.0-1.7","26UAcj2Kv4","6549c4b452f49429c69865e0","6617fad957f7c6a12ea16e26","6622caef51ece09e134972e1","image grid","q","","","","","Phylogenetic_Distractor_Threat_target","2300","ongrid","q","1","Ontogenetic","true","practice"
"","null","html-keyboard-response","39","103182","0.0-9.0-2.7","26UAcj2Kv4","6549c4b452f49429c69865e0","6617fad957f7c6a12ea16e26","6622caef51ece09e134972e1","
    <div id=""grid-container"">
        <!-- Grid items will be dynamically added here -->
    </div>    ","null","","","","","","","","","","","",""
"","null","html-keyboard-response","40","104388","0.0-9.0-3.7","26UAcj2Kv4","6549c4b452f49429c69865e0","6617fad957f7c6a12ea16e26","6622caef51ece09e134972e1","feedback screen","null","","","","","","","","","","","",""
"","null","html-keyboard-response","41","104893","0.0-9.0-0.8","26UAcj2Kv4","6549c4b452f49429c69865e0","6617fad957f7c6a12ea16e26","6622caef51ece09e134972e1","fixation cross","null","","","","","","","","","","","",""
"","2049","html-keyboard-response","42","106945","0.0-9.0-1.8","26UAcj2Kv4","6549c4b452f49429c69865e0","6617fad957f7c6a12ea16e26","6622caef51ece09e134972e1","image grid"," ","","","","","Phylogenetic_Distractor_Nonthreat_target","2200","ongrid","p","8","Ontogenetic","false","practice"
"","null","html-keyboard-response","43","107098","0.0-9.0-2.8","26UAcj2Kv4","6549c4b452f49429c69865e0","6617fad957f7c6a12ea16e26","6622caef51ece09e134972e1","
    <div id=""grid-container"">
        <!-- Grid items will be dynamically added here -->
    </div>    ","null","","","","","","","","","","","",""
"","null","html-keyboard-response","44","108303","0.0-9.0-3.8","26UAcj2Kv4","6549c4b452f49429c69865e0","6617fad957f7c6a12ea16e26","6622caef51ece09e134972e1","feedback screen","null","","","","","","","","","","","",""
"","null","html-keyboard-response","45","108807","0.0-9.0-0.9","26UAcj2Kv4","6549c4b452f49429c69865e0","6617fad957f7c6a12ea16e26","6622caef51ece09e134972e1","fixation cross","null","","","","","","","","","","","",""
"","1540","html-keyboard-response","46","110349","0.0-9.0-1.9","26UAcj2Kv4","6549c4b452f49429c69865e0","6617fad957f7c6a12ea16e26","6622caef51ece09e134972e1","image grid"," ","","","","","Ontogenetic_Distractor_notarget","2100","ongrid"," ","4","Ontogenetic","true","practice"
"","null","html-keyboard-response","47","110503","0.0-9.0-2.9","26UAcj2Kv4","6549c4b452f49429c69865e0","6617fad957f7c6a12ea16e26","6622caef51ece09e134972e1","
    <div id=""grid-container"">
        <!-- Grid items will be dynamically added here -->
    </div>    ","null","","","","","","","","","","","",""
"","null","html-keyboard-response","48","111708","0.0-9.0-3.9","26UAcj2Kv4","6549c4b452f49429c69865e0","6617fad957f7c6a12ea16e26","6622caef51ece09e134972e1","feedback screen","null","","","","","","","","","","","",""
"","null","html-keyboard-response","49","112213","0.0-9.0-0.10","26UAcj2Kv4","6549c4b452f49429c69865e0","6617fad957f7c6a12ea16e26","6622caef51ece09e134972e1","fixation cross","null","","","","","","","","","","","",""
"","1319","html-keyboard-response","50","113535","0.0-9.0-1.10","26UAcj2Kv4","6549c4b452f49429c69865e0","6617fad957f7c6a12ea16e26","6622caef51ece09e134972e1","image grid"," ","","","","","Ontogenetic_Distractor_notarget","2000","ongrid"," ","7","Ontogenetic","true","practice"
"","null","html-keyboard-response","51","113688","0.0-9.0-2.10","26UAcj2Kv4","6549c4b452f49429c69865e0","6617fad957f7c6a12ea16e26","6622caef51ece09e134972e1","
    <div id=""grid-container"">
        <!-- Grid items will be dynamically added here -->
    </div>    ","null","","","","","","","","","","","",""
"","null","html-keyboard-response","52","114893","0.0-9.0-3.10","26UAcj2Kv4","6549c4b452f49429c69865e0","6617fad957f7c6a12ea16e26","6622caef51ece09e134972e1","feedback screen","null","","","","","","","","","","","",""
"","null","html-keyboard-response","53","115398","0.0-9.0-0.11","26UAcj2Kv4","6549c4b452f49429c69865e0","6617fad957f7c6a12ea16e26","6622caef51ece09e134972e1","fixation cross","null","","","","","","","","","","","",""
"","841","html-keyboard-response","54","116242","0.0-9.0-1.11","26UAcj2Kv4","6549c4b452f49429c69865e0","6617fad957f7c6a12ea16e26","6622caef51ece09e134972e1","image grid","q","","","","","Ontogenetic_Distractor_Threat_target","1900","ongrid","q","2","Ontogenetic","true","practice"
"","null","html-keyboard-response","55","116396","0.0-9.0-2.11","26UAcj2Kv4","6549c4b452f49429c69865e0","6617fad957f7c6a12ea16e26","6622caef51ece09e134972e1","
    <div id=""grid-container"">
        <!-- Grid items will be dynamically added here -->
    </div>    ","null","","","","","","","","","","","",""
"","null","html-keyboard-response","56","117600","0.0-9.0-3.11","26UAcj2Kv4","6549c4b452f49429c69865e0","6617fad957f7c6a12ea16e26","6622caef51ece09e134972e1","feedback screen","null","","","","","","","","","","","",""
"","null","html-keyboard-response","57","118105","0.0-9.0-0.12","26UAcj2Kv4","6549c4b452f49429c69865e0","6617fad957f7c6a12ea16e26","6622caef51ece09e134972e1","fixation cross","null","","","","","","","","","","","",""
"","1436","html-keyboard-response","58","119544","0.0-9.0-1.12","26UAcj2Kv4","6549c4b452f49429c69865e0","6617fad957f7c6a12ea16e26","6622caef51ece09e134972e1","image grid","q","","","","","Phylogenetic_Distractor_Threat_target","1800","ongrid","q","1","Ontogenetic","true","practice"
"","null","html-keyboard-response","59","119697","0.0-9.0-2.12","26UAcj2Kv4","6549c4b452f49429c69865e0","6617fad957f7c6a12ea16e26","6622caef51ece09e134972e1","
    <div id=""grid-container"">
        <!-- Grid items will be dynamically added here -->
    </div>    ","null","","","","","","","","","","","",""
"","null","html-keyboard-response","60","120902","0.0-9.0-3.12","26UAcj2Kv4","6549c4b452f49429c69865e0","6617fad957f7c6a12ea16e26","6622caef51ece09e134972e1","feedback screen","null","","","","","","","","","","","",""
"","null","html-keyboard-response","61","121407","0.0-9.0-0.13","26UAcj2Kv4","6549c4b452f49429c69865e0","6617fad957f7c6a12ea16e26","6622caef51ece09e134972e1","fixation cross","null","","","","","","","","","","","",""
"","null","html-keyboard-response","62","123112","0.0-9.0-1.13","26UAcj2Kv4","6549c4b452f49429c69865e0","6617fad957f7c6a12ea16e26","6622caef51ece09e134972e1","
        <div id=""grid-container"">
        <!-- Grid items will be dynamically added here -->
    </div>    ","null","","","","","","","","","","","",""
"","1909","html-keyboard-response","63","123323","0.0-9.0-2.13","26UAcj2Kv4","6549c4b452f49429c69865e0","6617fad957f7c6a12ea16e26","6622caef51ece09e134972e1","mask grid","q","","","","","Ontogenetic_Distractor_Threat_target","1700","onmask","q","9","Ontogenetic","true","practice"
"","null","html-keyboard-response","64","124528","0.0-9.0-3.13","26UAcj2Kv4","6549c4b452f49429c69865e0","6617fad957f7c6a12ea16e26","6622caef51ece09e134972e1","feedback screen","null","","","","","","","","","","","",""
"","null","html-keyboard-response","65","125034","0.0-9.0-0.14","26UAcj2Kv4","6549c4b452f49429c69865e0","6617fad957f7c6a12ea16e26","6622caef51ece09e134972e1","fixation cross","null","","","","","","","","","","","",""
"","710","html-keyboard-response","66","125745","0.0-9.0-1.14","26UAcj2Kv4","6549c4b452f49429c69865e0","6617fad957f7c6a12ea16e26","6622caef51ece09e134972e1","image grid","q","","","","","Ontogenetic_Distractor_Threat_target","1600","ongrid","q","6","Ontogenetic","true","practice"
"","null","html-keyboard-response","67","125900","0.0-9.0-2.14","26UAcj2Kv4","6549c4b452f49429c69865e0","6617fad957f7c6a12ea16e26","6622caef51ece09e134972e1","
    <div id=""grid-container"">
        <!-- Grid items will be dynamically added here -->
    </div>    ","null","","","","","","","","","","","",""
"","null","html-keyboard-response","68","127105","0.0-9.0-3.14","26UAcj2Kv4","6549c4b452f49429c69865e0","6617fad957f7c6a12ea16e26","6622caef51ece09e134972e1","feedback screen","null","","","","","","","","","","","",""
"","null","html-keyboard-response","69","127609","0.0-9.0-0.15","26UAcj2Kv4","6549c4b452f49429c69865e0","6617fad957f7c6a12ea16e26","6622caef51ece09e134972e1","fixation cross","null","","","","","","","","","","","",""
"","null","html-keyboard-response","70","129113","0.0-9.0-1.15","26UAcj2Kv4","6549c4b452f49429c69865e0","6617fad957f7c6a12ea16e26","6622caef51ece09e134972e1","
        <div id=""grid-container"">
        <!-- Grid items will be dynamically added here -->
    </div>    ","null","","","","","","","","","","","",""
"","3064","html-keyboard-response","71","130679","0.0-9.0-2.15","26UAcj2Kv4","6549c4b452f49429c69865e0","6617fad957f7c6a12ea16e26","6622caef51ece09e134972e1","mask grid"," ","","","","","Phylogenetic_Distractor_notarget","1500","onmask"," ","6","Ontogenetic","true","practice"
"","null","html-keyboard-response","72","131884","0.0-9.0-3.15","26UAcj2Kv4","6549c4b452f49429c69865e0","6617fad957f7c6a12ea16e26","6622caef51ece09e134972e1","feedback screen","null","","","","","","","","","","","",""
"","null","html-keyboard-response","73","132389","0.0-9.0-0.16","26UAcj2Kv4","6549c4b452f49429c69865e0","6617fad957f7c6a12ea16e26","6622caef51ece09e134972e1","fixation cross","null","","","","","","","","","","","",""
"","1297","html-keyboard-response","74","133689","0.0-9.0-1.16","26UAcj2Kv4","6549c4b452f49429c69865e0","6617fad957f7c6a12ea16e26","6622caef51ece09e134972e1","image grid","p","","","","","Phylogenetic_Distractor_Nonthreat_target","1400","ongrid","p","8","Ontogenetic","true","practice"
"","null","html-keyboard-response","75","133843","0.0-9.0-2.16","26UAcj2Kv4","6549c4b452f49429c69865e0","6617fad957f7c6a12ea16e26","6622caef51ece09e134972e1","
    <div id=""grid-container"">
        <!-- Grid items will be dynamically added here -->
    </div>    ","null","","","","","","","","","","","",""
"","null","html-keyboard-response","76","135045","0.0-9.0-3.16","26UAcj2Kv4","6549c4b452f49429c69865e0","6617fad957f7c6a12ea16e26","6622caef51ece09e134972e1","feedback screen","null","","","","","","","","","","","",""
"","null","html-keyboard-response","77","135548","0.0-9.0-0.17","26UAcj2Kv4","6549c4b452f49429c69865e0","6617fad957f7c6a12ea16e26","6622caef51ece09e134972e1","fixation cross","null","","","","","","","","","","","",""
"","932","html-keyboard-response","78","136482","0.0-9.0-1.17","26UAcj2Kv4","6549c4b452f49429c69865e0","6617fad957f7c6a12ea16e26","6622caef51ece09e134972e1","image grid"," ","","","","","Ontogenetic_Distractor_Nonthreat_target","1300","ongrid","p","9","Ontogenetic","false","practice"
"","null","html-keyboard-response","79","136635","0.0-9.0-2.17","26UAcj2Kv4","6549c4b452f49429c69865e0","6617fad957f7c6a12ea16e26","6622caef51ece09e134972e1","
    <div id=""grid-container"">
        <!-- Grid items will be dynamically added here -->
    </div>    ","null","","","","","","","","","","","",""
"","null","html-keyboard-response","80","137840","0.0-9.0-3.17","26UAcj2Kv4","6549c4b452f49429c69865e0","6617fad957f7c6a12ea16e26","6622caef51ece09e134972e1","feedback screen","null","","","","","","","","","","","",""
"","null","html-keyboard-response","81","138345","0.0-9.0-0.18","26UAcj2Kv4","6549c4b452f49429c69865e0","6617fad957f7c6a12ea16e26","6622caef51ece09e134972e1","fixation cross","null","","","","","","","","","","","",""
"","null","html-keyboard-response","82","139548","0.0-9.0-1.18","26UAcj2Kv4","6549c4b452f49429c69865e0","6617fad957f7c6a12ea16e26","6622caef51ece09e134972e1","
        <div id=""grid-container"">
        <!-- Grid items will be dynamically added here -->
    </div>    ","null","","","","","","","","","","","",""
"","1281","html-keyboard-response","83","139631","0.0-9.0-2.18","26UAcj2Kv4","6549c4b452f49429c69865e0","6617fad957f7c6a12ea16e26","6622caef51ece09e134972e1","mask grid","p","","","","","Phylogenetic_Distractor_Nonthreat_target","1200","onmask","p","7","Ontogenetic","true","practice"
"","null","html-keyboard-response","84","140836","0.0-9.0-3.18","26UAcj2Kv4","6549c4b452f49429c69865e0","6617fad957f7c6a12ea16e26","6622caef51ece09e134972e1","feedback screen","null","","","","","","","","","","","",""
"","null","html-keyboard-response","85","141341","0.0-9.0-0.19","26UAcj2Kv4","6549c4b452f49429c69865e0","6617fad957f7c6a12ea16e26","6622caef51ece09e134972e1","fixation cross","null","","","","","","","","","","","",""
"","899","html-keyboard-response","86","142242","0.0-9.0-1.19","26UAcj2Kv4","6549c4b452f49429c69865e0","6617fad957f7c6a12ea16e26","6622caef51ece09e134972e1","image grid","p","","","","","Ontogenetic_Distractor_Nonthreat_target","1100","ongrid","p","9","Ontogenetic","true","practice"
"","null","html-keyboard-response","87","142395","0.0-9.0-2.19","26UAcj2Kv4","6549c4b452f49429c69865e0","6617fad957f7c6a12ea16e26","6622caef51ece09e134972e1","
    <div id=""grid-container"">
        <!-- Grid items will be dynamically added here -->
    </div>    ","null","","","","","","","","","","","",""
"","null","html-keyboard-response","88","143599","0.0-9.0-3.19","26UAcj2Kv4","6549c4b452f49429c69865e0","6617fad957f7c6a12ea16e26","6622caef51ece09e134972e1","feedback screen","null","","","","","","","","","","","",""
"","10525","html-keyboard-response","89","154137","0.0-10.0","26UAcj2Kv4","6549c4b452f49429c69865e0","6617fad957f7c6a12ea16e26","6622caef51ece09e134972e1","pre-experimental_briefing"," ","","","","","","","","","","","",""
"","null","html-keyboard-response","90","156649","0.0-11.0-0.0","26UAcj2Kv4","6549c4b452f49429c69865e0","6617fad957f7c6a12ea16e26","6622caef51ece09e134972e1","fixation cross","null","","","","","","","","","","","",""
"","1302","html-keyboard-response","91","157953","0.0-11.0-1.0","26UAcj2Kv4","6549c4b452f49429c69865e0","6617fad957f7c6a12ea16e26","6622caef51ece09e134972e1","image grid","p","","","","","Ontogenetic_Distractor_notarget","2500","ongrid"," ","4","Ontogenetic","false","experimental"
"","null","html-keyboard-response","92","158105","0.0-11.0-2.0","26UAcj2Kv4","6549c4b452f49429c69865e0","6617fad957f7c6a12ea16e26","6622caef51ece09e134972e1","
    <div id=""grid-container"">
        <!-- Grid items will be dynamically added here -->
    </div>    ","null","","","","","","","","","","","",""
"","null","html-keyboard-response","93","158809","0.0-11.0-0.1","26UAcj2Kv4","6549c4b452f49429c69865e0","6617fad957f7c6a12ea16e26","6622caef51ece09e134972e1","fixation cross","null","","","","","","","","","","","",""
"","1409","html-keyboard-response","94","160221","0.0-11.0-1.1","26UAcj2Kv4","6549c4b452f49429c69865e0","6617fad957f7c6a12ea16e26","6622caef51ece09e134972e1","image grid","q","","","","","Ontogenetic_Distractor_Threat_target","2500","ongrid","q","9","Ontogenetic","true","experimental"
"","null","html-keyboard-response","95","160376","0.0-11.0-2.1","26UAcj2Kv4","6549c4b452f49429c69865e0","6617fad957f7c6a12ea16e26","6622caef51ece09e134972e1","
    <div id=""grid-container"">
        <!-- Grid items will be dynamically added here -->
    </div>    ","null","","","","","","","","","","","",""
"","null","html-keyboard-response","96","161079","0.0-11.0-0.2","26UAcj2Kv4","6549c4b452f49429c69865e0","6617fad957f7c6a12ea16e26","6622caef51ece09e134972e1","fixation cross","null","","","","","","","","","","","",""
"","1330","html-keyboard-response","97","162410","0.0-11.0-1.2","26UAcj2Kv4","6549c4b452f49429c69865e0","6617fad957f7c6a12ea16e26","6622caef51ece09e134972e1","image grid"," ","","","","","Ontogenetic_Distractor_Nonthreat_target","2500","ongrid","p","8","Ontogenetic","false","experimental"
"","null","html-keyboard-response","98","162563","0.0-11.0-2.2","26UAcj2Kv4","6549c4b452f49429c69865e0","6617fad957f7c6a12ea16e26","6622caef51ece09e134972e1","
    <div id=""grid-container"">
        <!-- Grid items will be dynamically added here -->
    </div>    ","null","","","","","","","","","","","",""
"","null","html-keyboard-response","99","163267","0.0-11.0-0.3","26UAcj2Kv4","6549c4b452f49429c69865e0","6617fad957f7c6a12ea16e26","6622caef51ece09e134972e1","fixation cross","null","","","","","","","","","","","",""
"","1371","html-keyboard-response","100","164640","0.0-11.0-1.3","26UAcj2Kv4","6549c4b452f49429c69865e0","6617fad957f7c6a12ea16e26","6622caef51ece09e134972e1","image grid","p","","","","","Ontogenetic_Distractor_Nonthreat_target","2500","ongrid","p","5","Ontogenetic","true","experimental"
"","null","html-keyboard-response","101","164793","0.0-11.0-2.3","26UAcj2Kv4","6549c4b452f49429c69865e0","6617fad957f7c6a12ea16e26","6622caef51ece09e134972e1","
    <div id=""grid-container"">
        <!-- Grid items will be dynamically added here -->
    </div>    ","null","","","","","","","","","","","",""
"","null","html-keyboard-response","102","165497","0.0-11.0-0.4","26UAcj2Kv4","6549c4b452f49429c69865e0","6617fad957f7c6a12ea16e26","6622caef51ece09e134972e1","fixation cross","null","","","","","","","","","","","",""
"","1199","html-keyboard-response","103","166698","0.0-11.0-1.4","26UAcj2Kv4","6549c4b452f49429c69865e0","6617fad957f7c6a12ea16e26","6622caef51ece09e134972e1","image grid"," ","","","","","Ontogenetic_Distractor_Threat_target","2500","ongrid","q","3","Ontogenetic","false","experimental"
"","null","html-keyboard-response","104","166851","0.0-11.0-2.4","26UAcj2Kv4","6549c4b452f49429c69865e0","6617fad957f7c6a12ea16e26","6622caef51ece09e134972e1","
    <div id=""grid-container"">
        <!-- Grid items will be dynamically added here -->
    </div>    ","null","","","","","","","","","","","",""
"","null","html-keyboard-response","105","167554","0.0-11.0-0.5","26UAcj2Kv4","6549c4b452f49429c69865e0","6617fad957f7c6a12ea16e26","6622caef51ece09e134972e1","fixation cross","null","","","","","","","","","","","",""
"","931","html-keyboard-response","106","168488","0.0-11.0-1.5","26UAcj2Kv4","6549c4b452f49429c69865e0","6617fad957f7c6a12ea16e26","6622caef51ece09e134972e1","image grid","q","","","","","Ontogenetic_Distractor_Threat_target","2500","ongrid","q","2","Ontogenetic","true","experimental"
"","null","html-keyboard-response","107","168641","0.0-11.0-2.5","26UAcj2Kv4","6549c4b452f49429c69865e0","6617fad957f7c6a12ea16e26","6622caef51ece09e134972e1","
    <div id=""grid-container"">
        <!-- Grid items will be dynamically added here -->
    </div>    ","null","","","","","","","","","","","",""
"","null","html-keyboard-response","108","169345","0.0-11.0-0.6","26UAcj2Kv4","6549c4b452f49429c69865e0","6617fad957f7c6a12ea16e26","6622caef51ece09e134972e1","fixation cross","null","","","","","","","","","","","",""
"","1482","html-keyboard-response","109","170829","0.0-11.0-1.6","26UAcj2Kv4","6549c4b452f49429c69865e0","6617fad957f7c6a12ea16e26","6622caef51ece09e134972e1","image grid","q","","","","","Ontogenetic_Distractor_Threat_target","2500","ongrid","q","7","Ontogenetic","true","experimental"
"","null","html-keyboard-response","110","170982","0.0-11.0-2.6","26UAcj2Kv4","6549c4b452f49429c69865e0","6617fad957f7c6a12ea16e26","6622caef51ece09e134972e1","
    <div id=""grid-container"">
        <!-- Grid items will be dynamically added here -->
    </div>    ","null","","","","","","","","","","","",""
"","null","html-keyboard-response","111","171686","0.0-11.0-0.7","26UAcj2Kv4","6549c4b452f49429c69865e0","6617fad957f7c6a12ea16e26","6622caef51ece09e134972e1","fixation cross","null","","","","","","","","","","","",""
"","1093","html-keyboard-response","112","172782","0.0-11.0-1.7","26UAcj2Kv4","6549c4b452f49429c69865e0","6617fad957f7c6a12ea16e26","6622caef51ece09e134972e1","image grid","q","","","","","Ontogenetic_Distractor_Threat_target","2500","ongrid","q","8","Ontogenetic","true","experimental"
"","null","html-keyboard-response","113","172936","0.0-11.0-2.7","26UAcj2Kv4","6549c4b452f49429c69865e0","6617fad957f7c6a12ea16e26","6622caef51ece09e134972e1","
    <div id=""grid-container"">
        <!-- Grid items will be dynamically added here -->
    </div>    ","null","","","","","","","","","","","",""
"","null","html-keyboard-response","114","173639","0.0-11.0-0.8","26UAcj2Kv4","6549c4b452f49429c69865e0","6617fad957f7c6a12ea16e26","6622caef51ece09e134972e1","fixation cross","null","","","","","","","","","","","",""
"","1751","html-keyboard-response","115","175392","0.0-11.0-1.8","26UAcj2Kv4","6549c4b452f49429c69865e0","6617fad957f7c6a12ea16e26","6622caef51ece09e134972e1","image grid"," ","","","","","Ontogenetic_Distractor_notarget","2500","ongrid"," ","2","Ontogenetic","true","experimental"
"","null","html-keyboard-response","116","175544","0.0-11.0-2.8","26UAcj2Kv4","6549c4b452f49429c69865e0","6617fad957f7c6a12ea16e26","6622caef51ece09e134972e1","
    <div id=""grid-container"">
        <!-- Grid items will be dynamically added here -->
    </div>    ","null","","","","","","","","","","","",""
"","null","html-keyboard-response","117","176248","0.0-11.0-0.9","26UAcj2Kv4","6549c4b452f49429c69865e0","6617fad957f7c6a12ea16e26","6622caef51ece09e134972e1","fixation cross","null","","","","","","","","","","","",""
"","1027","html-keyboard-response","118","177278","0.0-11.0-1.9","26UAcj2Kv4","6549c4b452f49429c69865e0","6617fad957f7c6a12ea16e26","6622caef51ece09e134972e1","image grid","q","","","","","Ontogenetic_Distractor_Threat_target","2500","ongrid","q","1","Ontogenetic","true","experimental"
"","null","html-keyboard-response","119","177431","0.0-11.0-2.9","26UAcj2Kv4","6549c4b452f49429c69865e0","6617fad957f7c6a12ea16e26","6622caef51ece09e134972e1","
    <div id=""grid-container"">
        <!-- Grid items will be dynamically added here -->
    </div>    ","null","","","","","","","","","","","",""
"","null","html-keyboard-response","120","178135","0.0-11.0-0.10","26UAcj2Kv4","6549c4b452f49429c69865e0","6617fad957f7c6a12ea16e26","6622caef51ece09e134972e1","fixation cross","null","","","","","","","","","","","",""
"","1639","html-keyboard-response","121","179776","0.0-11.0-1.10","26UAcj2Kv4","6549c4b452f49429c69865e0","6617fad957f7c6a12ea16e26","6622caef51ece09e134972e1","image grid","p","","","","","Ontogenetic_Distractor_Nonthreat_target","2500","ongrid","p","9","Ontogenetic","true","experimental"
"","null","html-keyboard-response","122","179931","0.0-11.0-2.10","26UAcj2Kv4","6549c4b452f49429c69865e0","6617fad957f7c6a12ea16e26","6622caef51ece09e134972e1","
    <div id=""grid-container"">
        <!-- Grid items will be dynamically added here -->
    </div>    ","null","","","","","","","","","","","",""
"","null","html-keyboard-response","123","180635","0.0-11.0-0.11","26UAcj2Kv4","6549c4b452f49429c69865e0","6617fad957f7c6a12ea16e26","6622caef51ece09e134972e1","fixation cross","null","","","","","","","","","","","",""
"","1334","html-keyboard-response","124","181970","0.0-11.0-1.11","26UAcj2Kv4","6549c4b452f49429c69865e0","6617fad957f7c6a12ea16e26","6622caef51ece09e134972e1","image grid","q","","","","","Ontogenetic_Distractor_Threat_target","2500","ongrid","q","5","Ontogenetic","true","experimental"
"","null","html-keyboard-response","125","182123","0.0-11.0-2.11","26UAcj2Kv4","6549c4b452f49429c69865e0","6617fad957f7c6a12ea16e26","6622caef51ece09e134972e1","
    <div id=""grid-container"">
        <!-- Grid items will be dynamically added here -->
    </div>    ","null","","","","","","","","","","","",""
"","null","html-keyboard-response","126","182826","0.0-11.0-0.12","26UAcj2Kv4","6549c4b452f49429c69865e0","6617fad957f7c6a12ea16e26","6622caef51ece09e134972e1","fixation cross","null","","","","","","","","","","","",""
"","1208","html-keyboard-response","127","184036","0.0-11.0-1.12","26UAcj2Kv4","6549c4b452f49429c69865e0","6617fad957f7c6a12ea16e26","6622caef51ece09e134972e1","image grid","p","","","","","Ontogenetic_Distractor_Nonthreat_target","2500","ongrid","p","3","Ontogenetic","true","experimental"
"","null","html-keyboard-response","128","184188","0.0-11.0-2.12","26UAcj2Kv4","6549c4b452f49429c69865e0","6617fad957f7c6a12ea16e26","6622caef51ece09e134972e1","
    <div id=""grid-container"">
        <!-- Grid items will be dynamically added here -->
    </div>    ","null","","","","","","","","","","","",""
"","null","html-keyboard-response","129","184891","0.0-11.0-0.13","26UAcj2Kv4","6549c4b452f49429c69865e0","6617fad957f7c6a12ea16e26","6622caef51ece09e134972e1","fixation cross","null","","","","","","","","","","","",""
"","1222","html-keyboard-response","130","186114","0.0-11.0-1.13","26UAcj2Kv4","6549c4b452f49429c69865e0","6617fad957f7c6a12ea16e26","6622caef51ece09e134972e1","image grid","q","","","","","Ontogenetic_Distractor_Threat_target","2500","ongrid","q","3","Ontogenetic","true","experimental"
"","null","html-keyboard-response","131","186268","0.0-11.0-2.13","26UAcj2Kv4","6549c4b452f49429c69865e0","6617fad957f7c6a12ea16e26","6622caef51ece09e134972e1","
    <div id=""grid-container"">
        <!-- Grid items will be dynamically added here -->
    </div>    ","null","","","","","","","","","","","",""
"","null","html-keyboard-response","132","186971","0.0-11.0-0.14","26UAcj2Kv4","6549c4b452f49429c69865e0","6617fad957f7c6a12ea16e26","6622caef51ece09e134972e1","fixation cross","null","","","","","","","","","","","",""
"","1115","html-keyboard-response","133","188088","0.0-11.0-1.14","26UAcj2Kv4","6549c4b452f49429c69865e0","6617fad957f7c6a12ea16e26","6622caef51ece09e134972e1","image grid","p","","","","","Ontogenetic_Distractor_Nonthreat_target","2500","ongrid","p","5","Ontogenetic","true","experimental"
"","null","html-keyboard-response","134","188241","0.0-11.0-2.14","26UAcj2Kv4","6549c4b452f49429c69865e0","6617fad957f7c6a12ea16e26","6622caef51ece09e134972e1","
    <div id=""grid-container"">
        <!-- Grid items will be dynamically added here -->
    </div>    ","null","","","","","","","","","","","",""
"","null","html-keyboard-response","135","188944","0.0-11.0-0.15","26UAcj2Kv4","6549c4b452f49429c69865e0","6617fad957f7c6a12ea16e26","6622caef51ece09e134972e1","fixation cross","null","","","","","","","","","","","",""
"","2066","html-keyboard-response","136","191011","0.0-11.0-1.15","26UAcj2Kv4","6549c4b452f49429c69865e0","6617fad957f7c6a12ea16e26","6622caef51ece09e134972e1","image grid"," ","","","","","Ontogenetic_Distractor_notarget","2500","ongrid"," ","1","Ontogenetic","true","experimental"
"","null","html-keyboard-response","137","191165","0.0-11.0-2.15","26UAcj2Kv4","6549c4b452f49429c69865e0","6617fad957f7c6a12ea16e26","6622caef51ece09e134972e1","
    <div id=""grid-container"">
        <!-- Grid items will be dynamically added here -->
    </div>    ","null","","","","","","","","","","","",""
"","null","html-keyboard-response","138","191869","0.0-11.0-0.16","26UAcj2Kv4","6549c4b452f49429c69865e0","6617fad957f7c6a12ea16e26","6622caef51ece09e134972e1","fixation cross","null","","","","","","","","","","","",""
"","999","html-keyboard-response","139","192870","0.0-11.0-1.16","26UAcj2Kv4","6549c4b452f49429c69865e0","6617fad957f7c6a12ea16e26","6622caef51ece09e134972e1","image grid","q","","","","","Ontogenetic_Distractor_Threat_target","2500","ongrid","q","2","Ontogenetic","true","experimental"
"","null","html-keyboard-response","140","193023","0.0-11.0-2.16","26UAcj2Kv4","6549c4b452f49429c69865e0","6617fad957f7c6a12ea16e26","6622caef51ece09e134972e1","
    <div id=""grid-container"">
        <!-- Grid items will be dynamically added here -->
    </div>    ","null","","","","","","","","","","","",""
"","null","html-keyboard-response","141","193727","0.0-11.0-0.17","26UAcj2Kv4","6549c4b452f49429c69865e0","6617fad957f7c6a12ea16e26","6622caef51ece09e134972e1","fixation cross","null","","","","","","","","","","","",""
"","1528","html-keyboard-response","142","195257","0.0-11.0-1.17","26UAcj2Kv4","6549c4b452f49429c69865e0","6617fad957f7c6a12ea16e26","6622caef51ece09e134972e1","image grid","p","","","","","Ontogenetic_Distractor_Nonthreat_target","2500","ongrid","p","7","Ontogenetic","true","experimental"
"","null","html-keyboard-response","143","195410","0.0-11.0-2.17","26UAcj2Kv4","6549c4b452f49429c69865e0","6617fad957f7c6a12ea16e26","6622caef51ece09e134972e1","
    <div id=""grid-container"">
        <!-- Grid items will be dynamically added here -->
    </div>    ","null","","","","","","","","","","","",""
"","null","html-keyboard-response","144","196114","0.0-11.0-0.18","26UAcj2Kv4","6549c4b452f49429c69865e0","6617fad957f7c6a12ea16e26","6622caef51ece09e134972e1","fixation cross","null","","","","","","","","","","","",""
"","749","html-keyboard-response","145","196865","0.0-11.0-1.18","26UAcj2Kv4","6549c4b452f49429c69865e0","6617fad957f7c6a12ea16e26","6622caef51ece09e134972e1","image grid","p","","","","","Ontogenetic_Distractor_Nonthreat_target","2500","ongrid","p","7","Ontogenetic","true","experimental"
"","null","html-keyboard-response","146","197017","0.0-11.0-2.18","26UAcj2Kv4","6549c4b452f49429c69865e0","6617fad957f7c6a12ea16e26","6622caef51ece09e134972e1","
    <div id=""grid-container"">
        <!-- Grid items will be dynamically added here -->
    </div>    ","null","","","","","","","","","","","",""
"","null","html-keyboard-response","147","197721","0.0-11.0-0.19","26UAcj2Kv4","6549c4b452f49429c69865e0","6617fad957f7c6a12ea16e26","6622caef51ece09e134972e1","fixation cross","null","","","","","","","","","","","",""
"","903","html-keyboard-response","148","198626","0.0-11.0-1.19","26UAcj2Kv4","6549c4b452f49429c69865e0","6617fad957f7c6a12ea16e26","6622caef51ece09e134972e1","image grid","p","","","","","Ontogenetic_Distractor_Nonthreat_target","2500","ongrid","p","9","Ontogenetic","true","experimental"
"","null","html-keyboard-response","149","198778","0.0-11.0-2.19","26UAcj2Kv4","6549c4b452f49429c69865e0","6617fad957f7c6a12ea16e26","6622caef51ece09e134972e1","
    <div id=""grid-container"">
        <!-- Grid items will be dynamically added here -->
    </div>    ","null","","","","","","","","","","","",""
"","null","html-keyboard-response","150","199483","0.0-11.0-0.20","26UAcj2Kv4","6549c4b452f49429c69865e0","6617fad957f7c6a12ea16e26","6622caef51ece09e134972e1","fixation cross","null","","","","","","","","","","","",""
"","790","html-keyboard-response","151","200276","0.0-11.0-1.20","26UAcj2Kv4","6549c4b452f49429c69865e0","6617fad957f7c6a12ea16e26","6622caef51ece09e134972e1","image grid","q","","","","","Ontogenetic_Distractor_Threat_target","2500","ongrid","q","4","Ontogenetic","true","experimental"
"","null","html-keyboard-response","152","200428","0.0-11.0-2.20","26UAcj2Kv4","6549c4b452f49429c69865e0","6617fad957f7c6a12ea16e26","6622caef51ece09e134972e1","
    <div id=""grid-container"">
        <!-- Grid items will be dynamically added here -->
    </div>    ","null","","","","","","","","","","","",""
"","null","html-keyboard-response","153","201133","0.0-11.0-0.21","26UAcj2Kv4","6549c4b452f49429c69865e0","6617fad957f7c6a12ea16e26","6622caef51ece09e134972e1","fixation cross","null","","","","","","","","","","","",""
"","718","html-keyboard-response","154","201853","0.0-11.0-1.21","26UAcj2Kv4","6549c4b452f49429c69865e0","6617fad957f7c6a12ea16e26","6622caef51ece09e134972e1","image grid","p","","","","","Ontogenetic_Distractor_Nonthreat_target","2500","ongrid","p","4","Ontogenetic","true","experimental"
"","null","html-keyboard-response","155","202006","0.0-11.0-2.21","26UAcj2Kv4","6549c4b452f49429c69865e0","6617fad957f7c6a12ea16e26","6622caef51ece09e134972e1","
    <div id=""grid-container"">
        <!-- Grid items will be dynamically added here -->
    </div>    ","null","","","","","","","","","","","",""
"","null","html-keyboard-response","156","202710","0.0-11.0-0.22","26UAcj2Kv4","6549c4b452f49429c69865e0","6617fad957f7c6a12ea16e26","6622caef51ece09e134972e1","fixation cross","null","","","","","","","","","","","",""
"","2105","html-keyboard-response","157","204818","0.0-11.0-1.22","26UAcj2Kv4","6549c4b452f49429c69865e0","6617fad957f7c6a12ea16e26","6622caef51ece09e134972e1","image grid"," ","","","","","Ontogenetic_Distractor_Nonthreat_target","2500","ongrid","p","3","Ontogenetic","false","experimental"
"","null","html-keyboard-response","158","204970","0.0-11.0-2.22","26UAcj2Kv4","6549c4b452f49429c69865e0","6617fad957f7c6a12ea16e26","6622caef51ece09e134972e1","
    <div id=""grid-container"">
        <!-- Grid items will be dynamically added here -->
    </div>    ","null","","","","","","","","","","","",""
"","null","html-keyboard-response","159","205673","0.0-11.0-0.23","26UAcj2Kv4","6549c4b452f49429c69865e0","6617fad957f7c6a12ea16e26","6622caef51ece09e134972e1","fixation cross","null","","","","","","","","","","","",""
"","866","html-keyboard-response","160","206541","0.0-11.0-1.23","26UAcj2Kv4","6549c4b452f49429c69865e0","6617fad957f7c6a12ea16e26","6622caef51ece09e134972e1","image grid","p","","","","","Ontogenetic_Distractor_Nonthreat_target","2500","ongrid","p","9","Ontogenetic","true","experimental"
"","null","html-keyboard-response","161","206694","0.0-11.0-2.23","26UAcj2Kv4","6549c4b452f49429c69865e0","6617fad957f7c6a12ea16e26","6622caef51ece09e134972e1","
    <div id=""grid-container"">
        <!-- Grid items will be dynamically added here -->
    </div>    ","null","","","","","","","","","","","",""
"","null","html-keyboard-response","162","207397","0.0-11.0-0.24","26UAcj2Kv4","6549c4b452f49429c69865e0","6617fad957f7c6a12ea16e26","6622caef51ece09e134972e1","fixation cross","null","","","","","","","","","","","",""
"","980","html-keyboard-response","163","208379","0.0-11.0-1.24","26UAcj2Kv4","6549c4b452f49429c69865e0","6617fad957f7c6a12ea16e26","6622caef51ece09e134972e1","image grid","q","","","","","Ontogenetic_Distractor_Threat_target","2500","ongrid","q","5","Ontogenetic","true","experimental"
"","null","html-keyboard-response","164","208533","0.0-11.0-2.24","26UAcj2Kv4","6549c4b452f49429c69865e0","6617fad957f7c6a12ea16e26","6622caef51ece09e134972e1","
    <div id=""grid-container"">
        <!-- Grid items will be dynamically added here -->
    </div>    ","null","","","","","","","","","","","",""
"","null","html-keyboard-response","165","209237","0.0-11.0-0.25","26UAcj2Kv4","6549c4b452f49429c69865e0","6617fad957f7c6a12ea16e26","6622caef51ece09e134972e1","fixation cross","null","","","","","","","","","","","",""
"","1044","html-keyboard-response","166","210282","0.0-11.0-1.25","26UAcj2Kv4","6549c4b452f49429c69865e0","6617fad957f7c6a12ea16e26","6622caef51ece09e134972e1","image grid","q","","","","","Ontogenetic_Distractor_Threat_target","2500","ongrid","q","1","Ontogenetic","true","experimental"
"","null","html-keyboard-response","167","210435","0.0-11.0-2.25","26UAcj2Kv4","6549c4b452f49429c69865e0","6617fad957f7c6a12ea16e26","6622caef51ece09e134972e1","
    <div id=""grid-container"">
        <!-- Grid items will be dynamically added here -->
    </div>    ","null","","","","","","","","","","","",""
"","null","html-keyboard-response","168","211139","0.0-11.0-0.26","26UAcj2Kv4","6549c4b452f49429c69865e0","6617fad957f7c6a12ea16e26","6622caef51ece09e134972e1","fixation cross","null","","","","","","","","","","","",""
"","863","html-keyboard-response","169","212004","0.0-11.0-1.26","26UAcj2Kv4","6549c4b452f49429c69865e0","6617fad957f7c6a12ea16e26","6622caef51ece09e134972e1","image grid","p","","","","","Ontogenetic_Distractor_Nonthreat_target","2500","ongrid","p","5","Ontogenetic","true","experimental"
"","null","html-keyboard-response","170","212159","0.0-11.0-2.26","26UAcj2Kv4","6549c4b452f49429c69865e0","6617fad957f7c6a12ea16e26","6622caef51ece09e134972e1","
    <div id=""grid-container"">
        <!-- Grid items will be dynamically added here -->
    </div>    ","null","","","","","","","","","","","",""
"","null","html-keyboard-response","171","212863","0.0-11.0-0.27","26UAcj2Kv4","6549c4b452f49429c69865e0","6617fad957f7c6a12ea16e26","6622caef51ece09e134972e1","fixation cross","null","","","","","","","","","","","",""
"","1414","html-keyboard-response","172","214279","0.0-11.0-1.27","26UAcj2Kv4","6549c4b452f49429c69865e0","6617fad957f7c6a12ea16e26","6622caef51ece09e134972e1","image grid","p","","","","","Ontogenetic_Distractor_Nonthreat_target","2500","ongrid","p","1","Ontogenetic","true","experimental"
"","null","html-keyboard-response","173","214432","0.0-11.0-2.27","26UAcj2Kv4","6549c4b452f49429c69865e0","6617fad957f7c6a12ea16e26","6622caef51ece09e134972e1","
    <div id=""grid-container"">
        <!-- Grid items will be dynamically added here -->
    </div>    ","null","","","","","","","","","","","",""
"","null","html-keyboard-response","174","215135","0.0-11.0-0.28","26UAcj2Kv4","6549c4b452f49429c69865e0","6617fad957f7c6a12ea16e26","6622caef51ece09e134972e1","fixation cross","null","","","","","","","","","","","",""
"","1295","html-keyboard-response","175","216431","0.0-11.0-1.28","26UAcj2Kv4","6549c4b452f49429c69865e0","6617fad957f7c6a12ea16e26","6622caef51ece09e134972e1","image grid","q","","","","","Ontogenetic_Distractor_Threat_target","2500","ongrid","q","9","Ontogenetic","true","experimental"
"","null","html-keyboard-response","176","216586","0.0-11.0-2.28","26UAcj2Kv4","6549c4b452f49429c69865e0","6617fad957f7c6a12ea16e26","6622caef51ece09e134972e1","
    <div id=""grid-container"">
        <!-- Grid items will be dynamically added here -->
    </div>    ","null","","","","","","","","","","","",""
"","null","html-keyboard-response","177","217290","0.0-11.0-0.29","26UAcj2Kv4","6549c4b452f49429c69865e0","6617fad957f7c6a12ea16e26","6622caef51ece09e134972e1","fixation cross","null","","","","","","","","","","","",""
"","1354","html-keyboard-response","178","218647","0.0-11.0-1.29","26UAcj2Kv4","6549c4b452f49429c69865e0","6617fad957f7c6a12ea16e26","6622caef51ece09e134972e1","image grid","p","","","","","Ontogenetic_Distractor_Nonthreat_target","2500","ongrid","p","3","Ontogenetic","true","experimental"
"","null","html-keyboard-response","179","218800","0.0-11.0-2.29","26UAcj2Kv4","6549c4b452f49429c69865e0","6617fad957f7c6a12ea16e26","6622caef51ece09e134972e1","
    <div id=""grid-container"">
        <!-- Grid items will be dynamically added here -->
    </div>    ","null","","","","","","","","","","","",""
"","null","html-keyboard-response","180","219503","0.0-11.0-0.30","26UAcj2Kv4","6549c4b452f49429c69865e0","6617fad957f7c6a12ea16e26","6622caef51ece09e134972e1","fixation cross","null","","","","","","","","","","","",""
"","923","html-keyboard-response","181","220428","0.0-11.0-1.30","26UAcj2Kv4","6549c4b452f49429c69865e0","6617fad957f7c6a12ea16e26","6622caef51ece09e134972e1","image grid","p","","","","","Ontogenetic_Distractor_Nonthreat_target","2500","ongrid","p","9","Ontogenetic","true","experimental"
"","null","html-keyboard-response","182","220582","0.0-11.0-2.30","26UAcj2Kv4","6549c4b452f49429c69865e0","6617fad957f7c6a12ea16e26","6622caef51ece09e134972e1","
    <div id=""grid-container"">
        <!-- Grid items will be dynamically added here -->
    </div>    ","null","","","","","","","","","","","",""
"","null","html-keyboard-response","183","221286","0.0-11.0-0.31","26UAcj2Kv4","6549c4b452f49429c69865e0","6617fad957f7c6a12ea16e26","6622caef51ece09e134972e1","fixation cross","null","","","","","","","","","","","",""
"","1850","html-keyboard-response","184","223138","0.0-11.0-1.31","26UAcj2Kv4","6549c4b452f49429c69865e0","6617fad957f7c6a12ea16e26","6622caef51ece09e134972e1","image grid","q","","","","","Ontogenetic_Distractor_Threat_target","2500","ongrid","q","8","Ontogenetic","true","experimental"
"","null","html-keyboard-response","185","223289","0.0-11.0-2.31","26UAcj2Kv4","6549c4b452f49429c69865e0","6617fad957f7c6a12ea16e26","6622caef51ece09e134972e1","
    <div id=""grid-container"">
        <!-- Grid items will be dynamically added here -->
    </div>    ","null","","","","","","","","","","","",""
"","null","html-keyboard-response","186","223993","0.0-11.0-0.32","26UAcj2Kv4","6549c4b452f49429c69865e0","6617fad957f7c6a12ea16e26","6622caef51ece09e134972e1","fixation cross","null","","","","","","","","","","","",""
"","886","html-keyboard-response","187","224881","0.0-11.0-1.32","26UAcj2Kv4","6549c4b452f49429c69865e0","6617fad957f7c6a12ea16e26","6622caef51ece09e134972e1","image grid","p","","","","","Ontogenetic_Distractor_Nonthreat_target","2500","ongrid","p","8","Ontogenetic","true","experimental"
"","null","html-keyboard-response","188","225033","0.0-11.0-2.32","26UAcj2Kv4","6549c4b452f49429c69865e0","6617fad957f7c6a12ea16e26","6622caef51ece09e134972e1","
    <div id=""grid-container"">
        <!-- Grid items will be dynamically added here -->
    </div>    ","null","","","","","","","","","","","",""
"","null","html-keyboard-response","189","225737","0.0-11.0-0.33","26UAcj2Kv4","6549c4b452f49429c69865e0","6617fad957f7c6a12ea16e26","6622caef51ece09e134972e1","fixation cross","null","","","","","","","","","","","",""
"","1485","html-keyboard-response","190","227224","0.0-11.0-1.33","26UAcj2Kv4","6549c4b452f49429c69865e0","6617fad957f7c6a12ea16e26","6622caef51ece09e134972e1","image grid"," ","","","","","Ontogenetic_Distractor_notarget","2500","ongrid"," ","7","Ontogenetic","true","experimental"
"","null","html-keyboard-response","191","227377","0.0-11.0-2.33","26UAcj2Kv4","6549c4b452f49429c69865e0","6617fad957f7c6a12ea16e26","6622caef51ece09e134972e1","
    <div id=""grid-container"">
        <!-- Grid items will be dynamically added here -->
    </div>    ","null","","","","","","","","","","","",""
"","null","html-keyboard-response","192","228080","0.0-11.0-0.34","26UAcj2Kv4","6549c4b452f49429c69865e0","6617fad957f7c6a12ea16e26","6622caef51ece09e134972e1","fixation cross","null","","","","","","","","","","","",""
"","970","html-keyboard-response","193","229051","0.0-11.0-1.34","26UAcj2Kv4","6549c4b452f49429c69865e0","6617fad957f7c6a12ea16e26","6622caef51ece09e134972e1","image grid","q","","","","","Ontogenetic_Distractor_Threat_target","2500","ongrid","q","4","Ontogenetic","true","experimental"
"","null","html-keyboard-response","194","229203","0.0-11.0-2.34","26UAcj2Kv4","6549c4b452f49429c69865e0","6617fad957f7c6a12ea16e26","6622caef51ece09e134972e1","
    <div id=""grid-container"">
        <!-- Grid items will be dynamically added here -->
    </div>    ","null","","","","","","","","","","","",""
"","null","html-keyboard-response","195","229906","0.0-11.0-0.35","26UAcj2Kv4","6549c4b452f49429c69865e0","6617fad957f7c6a12ea16e26","6622caef51ece09e134972e1","fixation cross","null","","","","","","","","","","","",""
"","1059","html-keyboard-response","196","230966","0.0-11.0-1.35","26UAcj2Kv4","6549c4b452f49429c69865e0","6617fad957f7c6a12ea16e26","6622caef51ece09e134972e1","image grid","p","","","","","Ontogenetic_Distractor_Nonthreat_target","2500","ongrid","p","5","Ontogenetic","true","experimental"
"","null","html-keyboard-response","197","231118","0.0-11.0-2.35","26UAcj2Kv4","6549c4b452f49429c69865e0","6617fad957f7c6a12ea16e26","6622caef51ece09e134972e1","
    <div id=""grid-container"">
        <!-- Grid items will be dynamically added here -->
    </div>    ","null","","","","","","","","","","","",""
"","null","html-keyboard-response","198","231822","0.0-11.0-0.36","26UAcj2Kv4","6549c4b452f49429c69865e0","6617fad957f7c6a12ea16e26","6622caef51ece09e134972e1","fixation cross","null","","","","","","","","","","","",""
"","790","html-keyboard-response","199","232613","0.0-11.0-1.36","26UAcj2Kv4","6549c4b452f49429c69865e0","6617fad957f7c6a12ea16e26","6622caef51ece09e134972e1","image grid","p","","","","","Ontogenetic_Distractor_Nonthreat_target","2500","ongrid","p","2","Ontogenetic","true","experimental"
"","null","html-keyboard-response","200","232768","0.0-11.0-2.36","26UAcj2Kv4","6549c4b452f49429c69865e0","6617fad957f7c6a12ea16e26","6622caef51ece09e134972e1","
    <div id=""grid-container"">
        <!-- Grid items will be dynamically added here -->
    </div>    ","null","","","","","","","","","","","",""
"","null","html-keyboard-response","201","233471","0.0-11.0-0.37","26UAcj2Kv4","6549c4b452f49429c69865e0","6617fad957f7c6a12ea16e26","6622caef51ece09e134972e1","fixation cross","null","","","","","","","","","","","",""
"","1603","html-keyboard-response","202","235075","0.0-11.0-1.37","26UAcj2Kv4","6549c4b452f49429c69865e0","6617fad957f7c6a12ea16e26","6622caef51ece09e134972e1","image grid","q","","","","","Ontogenetic_Distractor_Threat_target","2500","ongrid","q","1","Ontogenetic","true","experimental"
"","null","html-keyboard-response","203","235229","0.0-11.0-2.37","26UAcj2Kv4","6549c4b452f49429c69865e0","6617fad957f7c6a12ea16e26","6622caef51ece09e134972e1","
    <div id=""grid-container"">
        <!-- Grid items will be dynamically added here -->
    </div>    ","null","","","","","","","","","","","",""
"","null","html-keyboard-response","204","235932","0.0-11.0-0.38","26UAcj2Kv4","6549c4b452f49429c69865e0","6617fad957f7c6a12ea16e26","6622caef51ece09e134972e1","fixation cross","null","","","","","","","","","","","",""
"","1003","html-keyboard-response","205","236937","0.0-11.0-1.38","26UAcj2Kv4","6549c4b452f49429c69865e0","6617fad957f7c6a12ea16e26","6622caef51ece09e134972e1","image grid","q","","","","","Ontogenetic_Distractor_Threat_target","2500","ongrid","q","3","Ontogenetic","true","experimental"
"","null","html-keyboard-response","206","237090","0.0-11.0-2.38","26UAcj2Kv4","6549c4b452f49429c69865e0","6617fad957f7c6a12ea16e26","6622caef51ece09e134972e1","
    <div id=""grid-container"">
        <!-- Grid items will be dynamically added here -->
    </div>    ","null","","","","","","","","","","","",""
"","null","html-keyboard-response","207","237796","0.0-11.0-0.39","26UAcj2Kv4","6549c4b452f49429c69865e0","6617fad957f7c6a12ea16e26","6622caef51ece09e134972e1","fixation cross","null","","","","","","","","","","","",""
"","900","html-keyboard-response","208","238700","0.0-11.0-1.39","26UAcj2Kv4","6549c4b452f49429c69865e0","6617fad957f7c6a12ea16e26","6622caef51ece09e134972e1","image grid","q","","","","","Ontogenetic_Distractor_Threat_target","2500","ongrid","q","3","Ontogenetic","true","experimental"
"","null","html-keyboard-response","209","238854","0.0-11.0-2.39","26UAcj2Kv4","6549c4b452f49429c69865e0","6617fad957f7c6a12ea16e26","6622caef51ece09e134972e1","
    <div id=""grid-container"">
        <!-- Grid items will be dynamically added here -->
    </div>    ","null","","","","","","","","","","","",""
"","28143","html-keyboard-response","210","267203","0.0-12.0","26UAcj2Kv4","6549c4b452f49429c69865e0","6617fad957f7c6a12ea16e26","6622caef51ece09e134972e1","break screen"," ","","","","","","","","","","","",""
"","null","html-keyboard-response","211","269715","0.0-13.0-0.0","26UAcj2Kv4","6549c4b452f49429c69865e0","6617fad957f7c6a12ea16e26","6622caef51ece09e134972e1","fixation cross","null","","","","","","","","","","","",""
"","1777","html-keyboard-response","212","271495","0.0-13.0-1.0","26UAcj2Kv4","6549c4b452f49429c69865e0","6617fad957f7c6a12ea16e26","6622caef51ece09e134972e1","image grid","q","","","","","Phylogenetic_Distractor_Threat_target","2500","ongrid","q","8","Phylogenetic","true","experimental"
"","null","html-keyboard-response","213","271651","0.0-13.0-2.0","26UAcj2Kv4","6549c4b452f49429c69865e0","6617fad957f7c6a12ea16e26","6622caef51ece09e134972e1","
    <div id=""grid-container"">
        <!-- Grid items will be dynamically added here -->
    </div>    ","null","","","","","","","","","","","",""
"","null","html-keyboard-response","214","272355","0.0-13.0-0.1","26UAcj2Kv4","6549c4b452f49429c69865e0","6617fad957f7c6a12ea16e26","6622caef51ece09e134972e1","fixation cross","null","","","","","","","","","","","",""
"","1952","html-keyboard-response","215","274309","0.0-13.0-1.1","26UAcj2Kv4","6549c4b452f49429c69865e0","6617fad957f7c6a12ea16e26","6622caef51ece09e134972e1","image grid"," ","","","","","Phylogenetic_Distractor_Nonthreat_target","2500","ongrid","p","5","Phylogenetic","false","experimental"
"","null","html-keyboard-response","216","274463","0.0-13.0-2.1","26UAcj2Kv4","6549c4b452f49429c69865e0","6617fad957f7c6a12ea16e26","6622caef51ece09e134972e1","
    <div id=""grid-container"">
        <!-- Grid items will be dynamically added here -->
    </div>    ","null","","","","","","","","","","","",""
"","null","html-keyboard-response","217","275166","0.0-13.0-0.2","26UAcj2Kv4","6549c4b452f49429c69865e0","6617fad957f7c6a12ea16e26","6622caef51ece09e134972e1","fixation cross","null","","","","","","","","","","","",""
"","1793","html-keyboard-response","218","276961","0.0-13.0-1.2","26UAcj2Kv4","6549c4b452f49429c69865e0","6617fad957f7c6a12ea16e26","6622caef51ece09e134972e1","image grid","p","","","","","Phylogenetic_Distractor_Nonthreat_target","2500","ongrid","p","7","Phylogenetic","true","experimental"
"","null","html-keyboard-response","219","277116","0.0-13.0-2.2","26UAcj2Kv4","6549c4b452f49429c69865e0","6617fad957f7c6a12ea16e26","6622caef51ece09e134972e1","
    <div id=""grid-container"">
        <!-- Grid items will be dynamically added here -->
    </div>    ","null","","","","","","","","","","","",""
"","null","html-keyboard-response","220","277819","0.0-13.0-0.3","26UAcj2Kv4","6549c4b452f49429c69865e0","6617fad957f7c6a12ea16e26","6622caef51ece09e134972e1","fixation cross","null","","","","","","","","","","","",""
"","1174","html-keyboard-response","221","278995","0.0-13.0-1.3","26UAcj2Kv4","6549c4b452f49429c69865e0","6617fad957f7c6a12ea16e26","6622caef51ece09e134972e1","image grid","p","","","","","Phylogenetic_Distractor_Nonthreat_target","2500","ongrid","p","6","Phylogenetic","true","experimental"
"","null","html-keyboard-response","222","279150","0.0-13.0-2.3","26UAcj2Kv4","6549c4b452f49429c69865e0","6617fad957f7c6a12ea16e26","6622caef51ece09e134972e1","
    <div id=""grid-container"">
        <!-- Grid items will be dynamically added here -->
    </div>    ","null","","","","","","","","","","","",""
"","null","html-keyboard-response","223","279852","0.0-13.0-0.4","26UAcj2Kv4","6549c4b452f49429c69865e0","6617fad957f7c6a12ea16e26","6622caef51ece09e134972e1","fixation cross","null","","","","","","","","","","","",""
"","1923","html-keyboard-response","224","281777","0.0-13.0-1.4","26UAcj2Kv4","6549c4b452f49429c69865e0","6617fad957f7c6a12ea16e26","6622caef51ece09e134972e1","image grid","p","","","","","Phylogenetic_Distractor_Nonthreat_target","2500","ongrid","p","3","Phylogenetic","true","experimental"
"","null","html-keyboard-response","225","281932","0.0-13.0-2.4","26UAcj2Kv4","6549c4b452f49429c69865e0","6617fad957f7c6a12ea16e26","6622caef51ece09e134972e1","
    <div id=""grid-container"">
        <!-- Grid items will be dynamically added here -->
    </div>    ","null","","","","","","","","","","","",""
"","null","html-keyboard-response","226","282635","0.0-13.0-0.5","26UAcj2Kv4","6549c4b452f49429c69865e0","6617fad957f7c6a12ea16e26","6622caef51ece09e134972e1","fixation cross","null","","","","","","","","","","","",""
"","1029","html-keyboard-response","227","283666","0.0-13.0-1.5","26UAcj2Kv4","6549c4b452f49429c69865e0","6617fad957f7c6a12ea16e26","6622caef51ece09e134972e1","image grid","q","","","","","Phylogenetic_Distractor_Threat_target","2500","ongrid","q","4","Phylogenetic","true","experimental"
"","null","html-keyboard-response","228","283817","0.0-13.0-2.5","26UAcj2Kv4","6549c4b452f49429c69865e0","6617fad957f7c6a12ea16e26","6622caef51ece09e134972e1","
    <div id=""grid-container"">
        <!-- Grid items will be dynamically added here -->
    </div>    ","null","","","","","","","","","","","",""
"","null","html-keyboard-response","229","284521","0.0-13.0-0.6","26UAcj2Kv4","6549c4b452f49429c69865e0","6617fad957f7c6a12ea16e26","6622caef51ece09e134972e1","fixation cross","null","","","","","","","","","","","",""
"","982","html-keyboard-response","230","285505","0.0-13.0-1.6","26UAcj2Kv4","6549c4b452f49429c69865e0","6617fad957f7c6a12ea16e26","6622caef51ece09e134972e1","image grid","p","","","","","Phylogenetic_Distractor_Nonthreat_target","2500","ongrid","p","8","Phylogenetic","true","experimental"
"","null","html-keyboard-response","231","285658","0.0-13.0-2.6","26UAcj2Kv4","6549c4b452f49429c69865e0","6617fad957f7c6a12ea16e26","6622caef51ece09e134972e1","
    <div id=""grid-container"">
        <!-- Grid items will be dynamically added here -->
    </div>    ","null","","","","","","","","","","","",""
"","null","html-keyboard-response","232","286361","0.0-13.0-0.7","26UAcj2Kv4","6549c4b452f49429c69865e0","6617fad957f7c6a12ea16e26","6622caef51ece09e134972e1","fixation cross","null","","","","","","","","","","","",""
"","630","html-keyboard-response","233","286993","0.0-13.0-1.7","26UAcj2Kv4","6549c4b452f49429c69865e0","6617fad957f7c6a12ea16e26","6622caef51ece09e134972e1","image grid","q","","","","","Phylogenetic_Distractor_Threat_target","2500","ongrid","q","8","Phylogenetic","true","experimental"
"","null","html-keyboard-response","234","287146","0.0-13.0-2.7","26UAcj2Kv4","6549c4b452f49429c69865e0","6617fad957f7c6a12ea16e26","6622caef51ece09e134972e1","
    <div id=""grid-container"">
        <!-- Grid items will be dynamically added here -->
    </div>    ","null","","","","","","","","","","","",""
"","null","html-keyboard-response","235","287848","0.0-13.0-0.8","26UAcj2Kv4","6549c4b452f49429c69865e0","6617fad957f7c6a12ea16e26","6622caef51ece09e134972e1","fixation cross","null","","","","","","","","","","","",""
"","1054","html-keyboard-response","236","288904","0.0-13.0-1.8","26UAcj2Kv4","6549c4b452f49429c69865e0","6617fad957f7c6a12ea16e26","6622caef51ece09e134972e1","image grid","q","","","","","Phylogenetic_Distractor_Threat_target","2500","ongrid","q","2","Phylogenetic","true","experimental"
"","null","html-keyboard-response","237","289057","0.0-13.0-2.8","26UAcj2Kv4","6549c4b452f49429c69865e0","6617fad957f7c6a12ea16e26","6622caef51ece09e134972e1","
    <div id=""grid-container"">
        <!-- Grid items will be dynamically added here -->
    </div>    ","null","","","","","","","","","","","",""
"","null","html-keyboard-response","238","289761","0.0-13.0-0.9","26UAcj2Kv4","6549c4b452f49429c69865e0","6617fad957f7c6a12ea16e26","6622caef51ece09e134972e1","fixation cross","null","","","","","","","","","","","",""
"","697","html-keyboard-response","239","290460","0.0-13.0-1.9","26UAcj2Kv4","6549c4b452f49429c69865e0","6617fad957f7c6a12ea16e26","6622caef51ece09e134972e1","image grid","q","","","","","Phylogenetic_Distractor_Threat_target","2500","ongrid","q","9","Phylogenetic","true","experimental"
"","null","html-keyboard-response","240","290615","0.0-13.0-2.9","26UAcj2Kv4","6549c4b452f49429c69865e0","6617fad957f7c6a12ea16e26","6622caef51ece09e134972e1","
    <div id=""grid-container"">
        <!-- Grid items will be dynamically added here -->
    </div>    ","null","","","","","","","","","","","",""
"","null","html-keyboard-response","241","291318","0.0-13.0-0.10","26UAcj2Kv4","6549c4b452f49429c69865e0","6617fad957f7c6a12ea16e26","6622caef51ece09e134972e1","fixation cross","null","","","","","","","","","","","",""
"","2003","html-keyboard-response","242","293323","0.0-13.0-1.10","26UAcj2Kv4","6549c4b452f49429c69865e0","6617fad957f7c6a12ea16e26","6622caef51ece09e134972e1","image grid"," ","","","","","Phylogenetic_Distractor_notarget","2500","ongrid"," ","9","Phylogenetic","true","experimental"
"","null","html-keyboard-response","243","293477","0.0-13.0-2.10","26UAcj2Kv4","6549c4b452f49429c69865e0","6617fad957f7c6a12ea16e26","6622caef51ece09e134972e1","
    <div id=""grid-container"">
        <!-- Grid items will be dynamically added here -->
    </div>    ","null","","","","","","","","","","","",""
"","null","html-keyboard-response","244","294180","0.0-13.0-0.11","26UAcj2Kv4","6549c4b452f49429c69865e0","6617fad957f7c6a12ea16e26","6622caef51ece09e134972e1","fixation cross","null","","","","","","","","","","","",""
"","938","html-keyboard-response","245","295120","0.0-13.0-1.11","26UAcj2Kv4","6549c4b452f49429c69865e0","6617fad957f7c6a12ea16e26","6622caef51ece09e134972e1","image grid","q","","","","","Phylogenetic_Distractor_Threat_target","2500","ongrid","q","4","Phylogenetic","true","experimental"
"","null","html-keyboard-response","246","295275","0.0-13.0-2.11","26UAcj2Kv4","6549c4b452f49429c69865e0","6617fad957f7c6a12ea16e26","6622caef51ece09e134972e1","
    <div id=""grid-container"">
        <!-- Grid items will be dynamically added here -->
    </div>    ","null","","","","","","","","","","","",""
"","null","html-keyboard-response","247","295979","0.0-13.0-0.12","26UAcj2Kv4","6549c4b452f49429c69865e0","6617fad957f7c6a12ea16e26","6622caef51ece09e134972e1","fixation cross","null","","","","","","","","","","","",""
"","686","html-keyboard-response","248","296666","0.0-13.0-1.12","26UAcj2Kv4","6549c4b452f49429c69865e0","6617fad957f7c6a12ea16e26","6622caef51ece09e134972e1","image grid","q","","","","","Phylogenetic_Distractor_Threat_target","2500","ongrid","q","4","Phylogenetic","true","experimental"
"","null","html-keyboard-response","249","296821","0.0-13.0-2.12","26UAcj2Kv4","6549c4b452f49429c69865e0","6617fad957f7c6a12ea16e26","6622caef51ece09e134972e1","
    <div id=""grid-container"">
        <!-- Grid items will be dynamically added here -->
    </div>    ","null","","","","","","","","","","","",""
"","null","html-keyboard-response","250","297526","0.0-13.0-0.13","26UAcj2Kv4","6549c4b452f49429c69865e0","6617fad957f7c6a12ea16e26","6622caef51ece09e134972e1","fixation cross","null","","","","","","","","","","","",""
"","1321","html-keyboard-response","251","298849","0.0-13.0-1.13","26UAcj2Kv4","6549c4b452f49429c69865e0","6617fad957f7c6a12ea16e26","6622caef51ece09e134972e1","image grid","q","","","","","Phylogenetic_Distractor_Threat_target","2500","ongrid","q","3","Phylogenetic","true","experimental"
"","null","html-keyboard-response","252","299004","0.0-13.0-2.13","26UAcj2Kv4","6549c4b452f49429c69865e0","6617fad957f7c6a12ea16e26","6622caef51ece09e134972e1","
    <div id=""grid-container"">
        <!-- Grid items will be dynamically added here -->
    </div>    ","null","","","","","","","","","","","",""
"","null","html-keyboard-response","253","299708","0.0-13.0-0.14","26UAcj2Kv4","6549c4b452f49429c69865e0","6617fad957f7c6a12ea16e26","6622caef51ece09e134972e1","fixation cross","null","","","","","","","","","","","",""
"","926","html-keyboard-response","254","300636","0.0-13.0-1.14","26UAcj2Kv4","6549c4b452f49429c69865e0","6617fad957f7c6a12ea16e26","6622caef51ece09e134972e1","image grid","p","","","","","Phylogenetic_Distractor_Nonthreat_target","2500","ongrid","p","5","Phylogenetic","true","experimental"
"","null","html-keyboard-response","255","300788","0.0-13.0-2.14","26UAcj2Kv4","6549c4b452f49429c69865e0","6617fad957f7c6a12ea16e26","6622caef51ece09e134972e1","
    <div id=""grid-container"">
        <!-- Grid items will be dynamically added here -->
    </div>    ","null","","","","","","","","","","","",""
"","null","html-keyboard-response","256","301493","0.0-13.0-0.15","26UAcj2Kv4","6549c4b452f49429c69865e0","6617fad957f7c6a12ea16e26","6622caef51ece09e134972e1","fixation cross","null","","","","","","","","","","","",""
"","659","html-keyboard-response","257","302154","0.0-13.0-1.15","26UAcj2Kv4","6549c4b452f49429c69865e0","6617fad957f7c6a12ea16e26","6622caef51ece09e134972e1","image grid","q","","","","","Phylogenetic_Distractor_Threat_target","2500","ongrid","q","5","Phylogenetic","true","experimental"
"","null","html-keyboard-response","258","302308","0.0-13.0-2.15","26UAcj2Kv4","6549c4b452f49429c69865e0","6617fad957f7c6a12ea16e26","6622caef51ece09e134972e1","
    <div id=""grid-container"">
        <!-- Grid items will be dynamically added here -->
    </div>    ","null","","","","","","","","","","","",""
"","null","html-keyboard-response","259","303012","0.0-13.0-0.16","26UAcj2Kv4","6549c4b452f49429c69865e0","6617fad957f7c6a12ea16e26","6622caef51ece09e134972e1","fixation cross","null","","","","","","","","","","","",""
"","751","html-keyboard-response","260","303765","0.0-13.0-1.16","26UAcj2Kv4","6549c4b452f49429c69865e0","6617fad957f7c6a12ea16e26","6622caef51ece09e134972e1","image grid","p","","","","","Phylogenetic_Distractor_Nonthreat_target","2500","ongrid","p","5","Phylogenetic","true","experimental"
"","null","html-keyboard-response","261","303918","0.0-13.0-2.16","26UAcj2Kv4","6549c4b452f49429c69865e0","6617fad957f7c6a12ea16e26","6622caef51ece09e134972e1","
    <div id=""grid-container"">
        <!-- Grid items will be dynamically added here -->
    </div>    ","null","","","","","","","","","","","",""
"","null","html-keyboard-response","262","304621","0.0-13.0-0.17","26UAcj2Kv4","6549c4b452f49429c69865e0","6617fad957f7c6a12ea16e26","6622caef51ece09e134972e1","fixation cross","null","","","","","","","","","","","",""
"","896","html-keyboard-response","263","305518","0.0-13.0-1.17","26UAcj2Kv4","6549c4b452f49429c69865e0","6617fad957f7c6a12ea16e26","6622caef51ece09e134972e1","image grid","q","","","","","Phylogenetic_Distractor_Threat_target","2500","ongrid","q","1","Phylogenetic","true","experimental"
"","null","html-keyboard-response","264","305671","0.0-13.0-2.17","26UAcj2Kv4","6549c4b452f49429c69865e0","6617fad957f7c6a12ea16e26","6622caef51ece09e134972e1","
    <div id=""grid-container"">
        <!-- Grid items will be dynamically added here -->
    </div>    ","null","","","","","","","","","","","",""
"","null","html-keyboard-response","265","306374","0.0-13.0-0.18","26UAcj2Kv4","6549c4b452f49429c69865e0","6617fad957f7c6a12ea16e26","6622caef51ece09e134972e1","fixation cross","null","","","","","","","","","","","",""
"","747","html-keyboard-response","266","307123","0.0-13.0-1.18","26UAcj2Kv4","6549c4b452f49429c69865e0","6617fad957f7c6a12ea16e26","6622caef51ece09e134972e1","image grid","q","","","","","Phylogenetic_Distractor_Threat_target","2500","ongrid","q","9","Phylogenetic","true","experimental"
"","null","html-keyboard-response","267","307276","0.0-13.0-2.18","26UAcj2Kv4","6549c4b452f49429c69865e0","6617fad957f7c6a12ea16e26","6622caef51ece09e134972e1","
    <div id=""grid-container"">
        <!-- Grid items will be dynamically added here -->
    </div>    ","null","","","","","","","","","","","",""
"","null","html-keyboard-response","268","307980","0.0-13.0-0.19","26UAcj2Kv4","6549c4b452f49429c69865e0","6617fad957f7c6a12ea16e26","6622caef51ece09e134972e1","fixation cross","null","","","","","","","","","","","",""
"","927","html-keyboard-response","269","308909","0.0-13.0-1.19","26UAcj2Kv4","6549c4b452f49429c69865e0","6617fad957f7c6a12ea16e26","6622caef51ece09e134972e1","image grid","q","","","","","Phylogenetic_Distractor_Threat_target","2500","ongrid","q","5","Phylogenetic","true","experimental"
"","null","html-keyboard-response","270","309062","0.0-13.0-2.19","26UAcj2Kv4","6549c4b452f49429c69865e0","6617fad957f7c6a12ea16e26","6622caef51ece09e134972e1","
    <div id=""grid-container"">
        <!-- Grid items will be dynamically added here -->
    </div>    ","null","","","","","","","","","","","",""
"","null","html-keyboard-response","271","309765","0.0-13.0-0.20","26UAcj2Kv4","6549c4b452f49429c69865e0","6617fad957f7c6a12ea16e26","6622caef51ece09e134972e1","fixation cross","null","","","","","","","","","","","",""
"","756","html-keyboard-response","272","310523","0.0-13.0-1.20","26UAcj2Kv4","6549c4b452f49429c69865e0","6617fad957f7c6a12ea16e26","6622caef51ece09e134972e1","image grid","p","","","","","Phylogenetic_Distractor_Nonthreat_target","2500","ongrid","p","5","Phylogenetic","true","experimental"
"","null","html-keyboard-response","273","310675","0.0-13.0-2.20","26UAcj2Kv4","6549c4b452f49429c69865e0","6617fad957f7c6a12ea16e26","6622caef51ece09e134972e1","
    <div id=""grid-container"">
        <!-- Grid items will be dynamically added here -->
    </div>    ","null","","","","","","","","","","","",""
"","null","html-keyboard-response","274","311378","0.0-13.0-0.21","26UAcj2Kv4","6549c4b452f49429c69865e0","6617fad957f7c6a12ea16e26","6622caef51ece09e134972e1","fixation cross","null","","","","","","","","","","","",""
"","961","html-keyboard-response","275","312341","0.0-13.0-1.21","26UAcj2Kv4","6549c4b452f49429c69865e0","6617fad957f7c6a12ea16e26","6622caef51ece09e134972e1","image grid","q","","","","","Phylogenetic_Distractor_Threat_target","2500","ongrid","q","1","Phylogenetic","true","experimental"
"","null","html-keyboard-response","276","312494","0.0-13.0-2.21","26UAcj2Kv4","6549c4b452f49429c69865e0","6617fad957f7c6a12ea16e26","6622caef51ece09e134972e1","
    <div id=""grid-container"">
        <!-- Grid items will be dynamically added here -->
    </div>    ","null","","","","","","","","","","","",""
"","null","html-keyboard-response","277","313197","0.0-13.0-0.22","26UAcj2Kv4","6549c4b452f49429c69865e0","6617fad957f7c6a12ea16e26","6622caef51ece09e134972e1","fixation cross","null","","","","","","","","","","","",""
"","1097","html-keyboard-response","278","314297","0.0-13.0-1.22","26UAcj2Kv4","6549c4b452f49429c69865e0","6617fad957f7c6a12ea16e26","6622caef51ece09e134972e1","image grid","p","","","","","Phylogenetic_Distractor_Nonthreat_target","2500","ongrid","p","1","Phylogenetic","true","experimental"
"","null","html-keyboard-response","279","314449","0.0-13.0-2.22","26UAcj2Kv4","6549c4b452f49429c69865e0","6617fad957f7c6a12ea16e26","6622caef51ece09e134972e1","
    <div id=""grid-container"">
        <!-- Grid items will be dynamically added here -->
    </div>    ","null","","","","","","","","","","","",""
"","null","html-keyboard-response","280","315153","0.0-13.0-0.23","26UAcj2Kv4","6549c4b452f49429c69865e0","6617fad957f7c6a12ea16e26","6622caef51ece09e134972e1","fixation cross","null","","","","","","","","","","","",""
"","685","html-keyboard-response","281","315840","0.0-13.0-1.23","26UAcj2Kv4","6549c4b452f49429c69865e0","6617fad957f7c6a12ea16e26","6622caef51ece09e134972e1","image grid","q","","","","","Phylogenetic_Distractor_Threat_target","2500","ongrid","q","3","Phylogenetic","true","experimental"
"","null","html-keyboard-response","282","315993","0.0-13.0-2.23","26UAcj2Kv4","6549c4b452f49429c69865e0","6617fad957f7c6a12ea16e26","6622caef51ece09e134972e1","
    <div id=""grid-container"">
        <!-- Grid items will be dynamically added here -->
    </div>    ","null","","","","","","","","","","","",""
"","null","html-keyboard-response","283","316697","0.0-13.0-0.24","26UAcj2Kv4","6549c4b452f49429c69865e0","6617fad957f7c6a12ea16e26","6622caef51ece09e134972e1","fixation cross","null","","","","","","","","","","","",""
"","970","html-keyboard-response","284","317669","0.0-13.0-1.24","26UAcj2Kv4","6549c4b452f49429c69865e0","6617fad957f7c6a12ea16e26","6622caef51ece09e134972e1","image grid","p","","","","","Phylogenetic_Distractor_Nonthreat_target","2500","ongrid","p","9","Phylogenetic","true","experimental"
"","null","html-keyboard-response","285","317822","0.0-13.0-2.24","26UAcj2Kv4","6549c4b452f49429c69865e0","6617fad957f7c6a12ea16e26","6622caef51ece09e134972e1","
    <div id=""grid-container"">
        <!-- Grid items will be dynamically added here -->
    </div>    ","null","","","","","","","","","","","",""
"","null","html-keyboard-response","286","318525","0.0-13.0-0.25","26UAcj2Kv4","6549c4b452f49429c69865e0","6617fad957f7c6a12ea16e26","6622caef51ece09e134972e1","fixation cross","null","","","","","","","","","","","",""
"","1143","html-keyboard-response","287","319670","0.0-13.0-1.25","26UAcj2Kv4","6549c4b452f49429c69865e0","6617fad957f7c6a12ea16e26","6622caef51ece09e134972e1","image grid","q","","","","","Phylogenetic_Distractor_Threat_target","2500","ongrid","q","7","Phylogenetic","true","experimental"
"","null","html-keyboard-response","288","319825","0.0-13.0-2.25","26UAcj2Kv4","6549c4b452f49429c69865e0","6617fad957f7c6a12ea16e26","6622caef51ece09e134972e1","
    <div id=""grid-container"">
        <!-- Grid items will be dynamically added here -->
    </div>    ","null","","","","","","","","","","","",""
"","null","html-keyboard-response","289","320527","0.0-13.0-0.26","26UAcj2Kv4","6549c4b452f49429c69865e0","6617fad957f7c6a12ea16e26","6622caef51ece09e134972e1","fixation cross","null","","","","","","","","","","","",""
"","1884","html-keyboard-response","290","322413","0.0-13.0-1.26","26UAcj2Kv4","6549c4b452f49429c69865e0","6617fad957f7c6a12ea16e26","6622caef51ece09e134972e1","image grid","p","","","","","Phylogenetic_Distractor_Nonthreat_target","2500","ongrid","p","9","Phylogenetic","true","experimental"
"","null","html-keyboard-response","291","322566","0.0-13.0-2.26","26UAcj2Kv4","6549c4b452f49429c69865e0","6617fad957f7c6a12ea16e26","6622caef51ece09e134972e1","
    <div id=""grid-container"">
        <!-- Grid items will be dynamically added here -->
    </div>    ","null","","","","","","","","","","","",""
"","null","html-keyboard-response","292","323270","0.0-13.0-0.27","26UAcj2Kv4","6549c4b452f49429c69865e0","6617fad957f7c6a12ea16e26","6622caef51ece09e134972e1","fixation cross","null","","","","","","","","","","","",""
"","886","html-keyboard-response","293","324158","0.0-13.0-1.27","26UAcj2Kv4","6549c4b452f49429c69865e0","6617fad957f7c6a12ea16e26","6622caef51ece09e134972e1","image grid","p","","","","","Phylogenetic_Distractor_Nonthreat_target","2500","ongrid","p","2","Phylogenetic","true","experimental"
"","null","html-keyboard-response","294","324313","0.0-13.0-2.27","26UAcj2Kv4","6549c4b452f49429c69865e0","6617fad957f7c6a12ea16e26","6622caef51ece09e134972e1","
    <div id=""grid-container"">
        <!-- Grid items will be dynamically added here -->
    </div>    ","null","","","","","","","","","","","",""
"","null","html-keyboard-response","295","325016","0.0-13.0-0.28","26UAcj2Kv4","6549c4b452f49429c69865e0","6617fad957f7c6a12ea16e26","6622caef51ece09e134972e1","fixation cross","null","","","","","","","","","","","",""
"","809","html-keyboard-response","296","325827","0.0-13.0-1.28","26UAcj2Kv4","6549c4b452f49429c69865e0","6617fad957f7c6a12ea16e26","6622caef51ece09e134972e1","image grid","q","","","","","Phylogenetic_Distractor_Threat_target","2500","ongrid","q","6","Phylogenetic","true","experimental"
"","null","html-keyboard-response","297","325980","0.0-13.0-2.28","26UAcj2Kv4","6549c4b452f49429c69865e0","6617fad957f7c6a12ea16e26","6622caef51ece09e134972e1","
    <div id=""grid-container"">
        <!-- Grid items will be dynamically added here -->
    </div>    ","null","","","","","","","","","","","",""
"","null","html-keyboard-response","298","326684","0.0-13.0-0.29","26UAcj2Kv4","6549c4b452f49429c69865e0","6617fad957f7c6a12ea16e26","6622caef51ece09e134972e1","fixation cross","null","","","","","","","","","","","",""
"","2240","html-keyboard-response","299","328926","0.0-13.0-1.29","26UAcj2Kv4","6549c4b452f49429c69865e0","6617fad957f7c6a12ea16e26","6622caef51ece09e134972e1","image grid"," ","","","","","Phylogenetic_Distractor_notarget","2500","ongrid"," ","4","Phylogenetic","true","experimental"
"","null","html-keyboard-response","300","329080","0.0-13.0-2.29","26UAcj2Kv4","6549c4b452f49429c69865e0","6617fad957f7c6a12ea16e26","6622caef51ece09e134972e1","
    <div id=""grid-container"">
        <!-- Grid items will be dynamically added here -->
    </div>    ","null","","","","","","","","","","","",""
"","null","html-keyboard-response","301","329784","0.0-13.0-0.30","26UAcj2Kv4","6549c4b452f49429c69865e0","6617fad957f7c6a12ea16e26","6622caef51ece09e134972e1","fixation cross","null","","","","","","","","","","","",""
"","952","html-keyboard-response","302","330740","0.0-13.0-1.30","26UAcj2Kv4","6549c4b452f49429c69865e0","6617fad957f7c6a12ea16e26","6622caef51ece09e134972e1","image grid","p","","","","","Phylogenetic_Distractor_Nonthreat_target","2500","ongrid","p","8","Phylogenetic","true","experimental"
"","null","html-keyboard-response","303","330895","0.0-13.0-2.30","26UAcj2Kv4","6549c4b452f49429c69865e0","6617fad957f7c6a12ea16e26","6622caef51ece09e134972e1","
    <div id=""grid-container"">
        <!-- Grid items will be dynamically added here -->
    </div>    ","null","","","","","","","","","","","",""
"","null","html-keyboard-response","304","331598","0.0-13.0-0.31","26UAcj2Kv4","6549c4b452f49429c69865e0","6617fad957f7c6a12ea16e26","6622caef51ece09e134972e1","fixation cross","null","","","","","","","","","","","",""
"","1746","html-keyboard-response","305","333346","0.0-13.0-1.31","26UAcj2Kv4","6549c4b452f49429c69865e0","6617fad957f7c6a12ea16e26","6622caef51ece09e134972e1","image grid","p","","","","","Phylogenetic_Distractor_Nonthreat_target","2500","ongrid","p","6","Phylogenetic","true","experimental"
"","null","html-keyboard-response","306","333500","0.0-13.0-2.31","26UAcj2Kv4","6549c4b452f49429c69865e0","6617fad957f7c6a12ea16e26","6622caef51ece09e134972e1","
    <div id=""grid-container"">
        <!-- Grid items will be dynamically added here -->
    </div>    ","null","","","","","","","","","","","",""
"","null","html-keyboard-response","307","334205","0.0-13.0-0.32","26UAcj2Kv4","6549c4b452f49429c69865e0","6617fad957f7c6a12ea16e26","6622caef51ece09e134972e1","fixation cross","null","","","","","","","","","","","",""
"","1933","html-keyboard-response","308","336141","0.0-13.0-1.32","26UAcj2Kv4","6549c4b452f49429c69865e0","6617fad957f7c6a12ea16e26","6622caef51ece09e134972e1","image grid"," ","","","","","Phylogenetic_Distractor_notarget","2500","ongrid"," ","2","Phylogenetic","true","experimental"
"","null","html-keyboard-response","309","336295","0.0-13.0-2.32","26UAcj2Kv4","6549c4b452f49429c69865e0","6617fad957f7c6a12ea16e26","6622caef51ece09e134972e1","
    <div id=""grid-container"">
        <!-- Grid items will be dynamically added here -->
    </div>    ","null","","","","","","","","","","","",""
"","null","html-keyboard-response","310","336999","0.0-13.0-0.33","26UAcj2Kv4","6549c4b452f49429c69865e0","6617fad957f7c6a12ea16e26","6622caef51ece09e134972e1","fixation cross","null","","","","","","","","","","","",""
"","718","html-keyboard-response","311","337719","0.0-13.0-1.33","26UAcj2Kv4","6549c4b452f49429c69865e0","6617fad957f7c6a12ea16e26","6622caef51ece09e134972e1","image grid","q","","","","","Phylogenetic_Distractor_Threat_target","2500","ongrid","q","5","Phylogenetic","true","experimental"
"","null","html-keyboard-response","312","337874","0.0-13.0-2.33","26UAcj2Kv4","6549c4b452f49429c69865e0","6617fad957f7c6a12ea16e26","6622caef51ece09e134972e1","
    <div id=""grid-container"">
        <!-- Grid items will be dynamically added here -->
    </div>    ","null","","","","","","","","","","","",""
"","null","html-keyboard-response","313","338577","0.0-13.0-0.34","26UAcj2Kv4","6549c4b452f49429c69865e0","6617fad957f7c6a12ea16e26","6622caef51ece09e134972e1","fixation cross","null","","","","","","","","","","","",""
"","1373","html-keyboard-response","314","339952","0.0-13.0-1.34","26UAcj2Kv4","6549c4b452f49429c69865e0","6617fad957f7c6a12ea16e26","6622caef51ece09e134972e1","image grid","q","","","","","Phylogenetic_Distractor_Threat_target","2500","ongrid","q","9","Phylogenetic","true","experimental"
"","null","html-keyboard-response","315","340105","0.0-13.0-2.34","26UAcj2Kv4","6549c4b452f49429c69865e0","6617fad957f7c6a12ea16e26","6622caef51ece09e134972e1","
    <div id=""grid-container"">
        <!-- Grid items will be dynamically added here -->
    </div>    ","null","","","","","","","","","","","",""
"","null","html-keyboard-response","316","340807","0.0-13.0-0.35","26UAcj2Kv4","6549c4b452f49429c69865e0","6617fad957f7c6a12ea16e26","6622caef51ece09e134972e1","fixation cross","null","","","","","","","","","","","",""
"","2211","html-keyboard-response","317","343019","0.0-13.0-1.35","26UAcj2Kv4","6549c4b452f49429c69865e0","6617fad957f7c6a12ea16e26","6622caef51ece09e134972e1","image grid"," ","","","","","Phylogenetic_Distractor_Nonthreat_target","2500","ongrid","p","3","Phylogenetic","false","experimental"
"","null","html-keyboard-response","318","343173","0.0-13.0-2.35","26UAcj2Kv4","6549c4b452f49429c69865e0","6617fad957f7c6a12ea16e26","6622caef51ece09e134972e1","
    <div id=""grid-container"">
        <!-- Grid items will be dynamically added here -->
    </div>    ","null","","","","","","","","","","","",""
"","null","html-keyboard-response","319","343877","0.0-13.0-0.36","26UAcj2Kv4","6549c4b452f49429c69865e0","6617fad957f7c6a12ea16e26","6622caef51ece09e134972e1","fixation cross","null","","","","","","","","","","","",""
"","816","html-keyboard-response","320","344695","0.0-13.0-1.36","26UAcj2Kv4","6549c4b452f49429c69865e0","6617fad957f7c6a12ea16e26","6622caef51ece09e134972e1","image grid","p","","","","","Phylogenetic_Distractor_Nonthreat_target","2500","ongrid","p","8","Phylogenetic","true","experimental"
"","null","html-keyboard-response","321","344848","0.0-13.0-2.36","26UAcj2Kv4","6549c4b452f49429c69865e0","6617fad957f7c6a12ea16e26","6622caef51ece09e134972e1","
    <div id=""grid-container"">
        <!-- Grid items will be dynamically added here -->
    </div>    ","null","","","","","","","","","","","",""
"","null","html-keyboard-response","322","345550","0.0-13.0-0.37","26UAcj2Kv4","6549c4b452f49429c69865e0","6617fad957f7c6a12ea16e26","6622caef51ece09e134972e1","fixation cross","null","","","","","","","","","","","",""
"","1799","html-keyboard-response","323","347351","0.0-13.0-1.37","26UAcj2Kv4","6549c4b452f49429c69865e0","6617fad957f7c6a12ea16e26","6622caef51ece09e134972e1","image grid","p","","","","","Phylogenetic_Distractor_Nonthreat_target","2500","ongrid","p","2","Phylogenetic","true","experimental"
"","null","html-keyboard-response","324","347505","0.0-13.0-2.37","26UAcj2Kv4","6549c4b452f49429c69865e0","6617fad957f7c6a12ea16e26","6622caef51ece09e134972e1","
    <div id=""grid-container"">
        <!-- Grid items will be dynamically added here -->
    </div>    ","null","","","","","","","","","","","",""
"","null","html-keyboard-response","325","348207","0.0-13.0-0.38","26UAcj2Kv4","6549c4b452f49429c69865e0","6617fad957f7c6a12ea16e26","6622caef51ece09e134972e1","fixation cross","null","","","","","","","","","","","",""
"","1583","html-keyboard-response","326","349792","0.0-13.0-1.38","26UAcj2Kv4","6549c4b452f49429c69865e0","6617fad957f7c6a12ea16e26","6622caef51ece09e134972e1","image grid"," ","","","","","Phylogenetic_Distractor_notarget","2500","ongrid"," ","5","Phylogenetic","true","experimental"
"","null","html-keyboard-response","327","349946","0.0-13.0-2.38","26UAcj2Kv4","6549c4b452f49429c69865e0","6617fad957f7c6a12ea16e26","6622caef51ece09e134972e1","
    <div id=""grid-container"">
        <!-- Grid items will be dynamically added here -->
    </div>    ","null","","","","","","","","","","","",""
"","null","html-keyboard-response","328","350650","0.0-13.0-0.39","26UAcj2Kv4","6549c4b452f49429c69865e0","6617fad957f7c6a12ea16e26","6622caef51ece09e134972e1","fixation cross","null","","","","","","","","","","","",""
"","971","html-keyboard-response","329","351623","0.0-13.0-1.39","26UAcj2Kv4","6549c4b452f49429c69865e0","6617fad957f7c6a12ea16e26","6622caef51ece09e134972e1","image grid","p","","","","","Phylogenetic_Distractor_Nonthreat_target","2500","ongrid","p","9","Phylogenetic","true","experimental"
"","null","html-keyboard-response","330","351777","0.0-13.0-2.39","26UAcj2Kv4","6549c4b452f49429c69865e0","6617fad957f7c6a12ea16e26","6622caef51ece09e134972e1","
    <div id=""grid-container"">
        <!-- Grid items will be dynamically added here -->
    </div>    ","null","","","","","","","","","","","",""
"","31584","html-keyboard-response","331","383565","0.0-14.0","26UAcj2Kv4","6549c4b452f49429c69865e0","6617fad957f7c6a12ea16e26","6622caef51ece09e134972e1","break screen"," ","","","","","","","","","","","",""
"","null","html-keyboard-response","332","386069","0.0-15.0-0.0","26UAcj2Kv4","6549c4b452f49429c69865e0","6617fad957f7c6a12ea16e26","6622caef51ece09e134972e1","fixation cross","null","","","","","","","","","","","",""
"","null","html-keyboard-response","333","386871","0.0-15.0-1.0","26UAcj2Kv4","6549c4b452f49429c69865e0","6617fad957f7c6a12ea16e26","6622caef51ece09e134972e1","
        <div id=""grid-container"">
        <!-- Grid items will be dynamically added here -->
    </div>    ","null","","","","","","","","","","","",""
"","1202","html-keyboard-response","334","387275","0.0-15.0-2.0","26UAcj2Kv4","6549c4b452f49429c69865e0","6617fad957f7c6a12ea16e26","6622caef51ece09e134972e1","mask grid","p","","","","","Ontogenetic_Distractor_Nonthreat_target","800","onmask","p","2","Ontogenetic","true","experimental"
"","null","html-keyboard-response","335","387980","0.0-15.0-0.1","26UAcj2Kv4","6549c4b452f49429c69865e0","6617fad957f7c6a12ea16e26","6622caef51ece09e134972e1","fixation cross","null","","","","","","","","","","","",""
"","765","html-keyboard-response","336","388746","0.0-15.0-1.1","26UAcj2Kv4","6549c4b452f49429c69865e0","6617fad957f7c6a12ea16e26","6622caef51ece09e134972e1","image grid","p","","","","","Ontogenetic_Distractor_Nonthreat_target","800","ongrid","p","1","Ontogenetic","true","experimental"
"","null","html-keyboard-response","337","388899","0.0-15.0-2.1","26UAcj2Kv4","6549c4b452f49429c69865e0","6617fad957f7c6a12ea16e26","6622caef51ece09e134972e1","
    <div id=""grid-container"">
        <!-- Grid items will be dynamically added here -->
    </div>    ","null","","","","","","","","","","","",""
"","null","html-keyboard-response","338","389605","0.0-15.0-0.2","26UAcj2Kv4","6549c4b452f49429c69865e0","6617fad957f7c6a12ea16e26","6622caef51ece09e134972e1","fixation cross","null","","","","","","","","","","","",""
"","546","html-keyboard-response","339","390153","0.0-15.0-1.2","26UAcj2Kv4","6549c4b452f49429c69865e0","6617fad957f7c6a12ea16e26","6622caef51ece09e134972e1","image grid","p","","","","","Ontogenetic_Distractor_Nonthreat_target","800","ongrid","p","2","Ontogenetic","true","experimental"
"","null","html-keyboard-response","340","390305","0.0-15.0-2.2","26UAcj2Kv4","6549c4b452f49429c69865e0","6617fad957f7c6a12ea16e26","6622caef51ece09e134972e1","
    <div id=""grid-container"">
        <!-- Grid items will be dynamically added here -->
    </div>    ","null","","","","","","","","","","","",""
"","null","html-keyboard-response","341","391010","0.0-15.0-0.3","26UAcj2Kv4","6549c4b452f49429c69865e0","6617fad957f7c6a12ea16e26","6622caef51ece09e134972e1","fixation cross","null","","","","","","","","","","","",""
"","547","html-keyboard-response","342","391559","0.0-15.0-1.3","26UAcj2Kv4","6549c4b452f49429c69865e0","6617fad957f7c6a12ea16e26","6622caef51ece09e134972e1","image grid","q","","","","","Ontogenetic_Distractor_Threat_target","800","ongrid","q","2","Ontogenetic","true","experimental"
"","null","html-keyboard-response","343","391711","0.0-15.0-2.3","26UAcj2Kv4","6549c4b452f49429c69865e0","6617fad957f7c6a12ea16e26","6622caef51ece09e134972e1","
    <div id=""grid-container"">
        <!-- Grid items will be dynamically added here -->
    </div>    ","null","","","","","","","","","","","",""
"","null","html-keyboard-response","344","392415","0.0-15.0-0.4","26UAcj2Kv4","6549c4b452f49429c69865e0","6617fad957f7c6a12ea16e26","6622caef51ece09e134972e1","fixation cross","null","","","","","","","","","","","",""
"","480","html-keyboard-response","345","392898","0.0-15.0-1.4","26UAcj2Kv4","6549c4b452f49429c69865e0","6617fad957f7c6a12ea16e26","6622caef51ece09e134972e1","image grid","p","","","","","Ontogenetic_Distractor_Nonthreat_target","800","ongrid","p","5","Ontogenetic","true","experimental"
"","null","html-keyboard-response","346","393050","0.0-15.0-2.4","26UAcj2Kv4","6549c4b452f49429c69865e0","6617fad957f7c6a12ea16e26","6622caef51ece09e134972e1","
    <div id=""grid-container"">
        <!-- Grid items will be dynamically added here -->
    </div>    ","null","","","","","","","","","","","",""
"","null","html-keyboard-response","347","393754","0.0-15.0-0.5","26UAcj2Kv4","6549c4b452f49429c69865e0","6617fad957f7c6a12ea16e26","6622caef51ece09e134972e1","fixation cross","null","","","","","","","","","","","",""
"","575","html-keyboard-response","348","394331","0.0-15.0-1.5","26UAcj2Kv4","6549c4b452f49429c69865e0","6617fad957f7c6a12ea16e26","6622caef51ece09e134972e1","image grid","p","","","","","Ontogenetic_Distractor_Threat_target","800","ongrid","q","8","Ontogenetic","false","experimental"
"","null","html-keyboard-response","349","394485","0.0-15.0-2.5","26UAcj2Kv4","6549c4b452f49429c69865e0","6617fad957f7c6a12ea16e26","6622caef51ece09e134972e1","
    <div id=""grid-container"">
        <!-- Grid items will be dynamically added here -->
    </div>    ","null","","","","","","","","","","","",""
"","null","html-keyboard-response","350","395188","0.0-15.0-0.6","26UAcj2Kv4","6549c4b452f49429c69865e0","6617fad957f7c6a12ea16e26","6622caef51ece09e134972e1","fixation cross","null","","","","","","","","","","","",""
"","756","html-keyboard-response","351","395947","0.0-15.0-1.6","26UAcj2Kv4","6549c4b452f49429c69865e0","6617fad957f7c6a12ea16e26","6622caef51ece09e134972e1","image grid","q","","","","","Ontogenetic_Distractor_Nonthreat_target","800","ongrid","p","1","Ontogenetic","false","experimental"
"","null","html-keyboard-response","352","396101","0.0-15.0-2.6","26UAcj2Kv4","6549c4b452f49429c69865e0","6617fad957f7c6a12ea16e26","6622caef51ece09e134972e1","
    <div id=""grid-container"">
        <!-- Grid items will be dynamically added here -->
    </div>    ","null","","","","","","","","","","","",""
"","null","html-keyboard-response","353","396804","0.0-15.0-0.7","26UAcj2Kv4","6549c4b452f49429c69865e0","6617fad957f7c6a12ea16e26","6622caef51ece09e134972e1","fixation cross","null","","","","","","","","","","","",""
"","null","html-keyboard-response","354","397606","0.0-15.0-1.7","26UAcj2Kv4","6549c4b452f49429c69865e0","6617fad957f7c6a12ea16e26","6622caef51ece09e134972e1","
        <div id=""grid-container"">
        <!-- Grid items will be dynamically added here -->
    </div>    ","null","","","","","","","","","","","",""
"","883","html-keyboard-response","355","397691","0.0-15.0-2.7","26UAcj2Kv4","6549c4b452f49429c69865e0","6617fad957f7c6a12ea16e26","6622caef51ece09e134972e1","mask grid","p","","","","","Ontogenetic_Distractor_Nonthreat_target","800","onmask","p","3","Ontogenetic","true","experimental"
"","null","html-keyboard-response","356","398395","0.0-15.0-0.8","26UAcj2Kv4","6549c4b452f49429c69865e0","6617fad957f7c6a12ea16e26","6622caef51ece09e134972e1","fixation cross","null","","","","","","","","","","","",""
"","null","html-keyboard-response","357","399199","0.0-15.0-1.8","26UAcj2Kv4","6549c4b452f49429c69865e0","6617fad957f7c6a12ea16e26","6622caef51ece09e134972e1","
        <div id=""grid-container"">
        <!-- Grid items will be dynamically added here -->
    </div>    ","null","","","","","","","","","","","",""
"","815","html-keyboard-response","358","399215","0.0-15.0-2.8","26UAcj2Kv4","6549c4b452f49429c69865e0","6617fad957f7c6a12ea16e26","6622caef51ece09e134972e1","mask grid"," ","","","","","Ontogenetic_Distractor_notarget","800","onmask"," ","2","Ontogenetic","true","experimental"
"","null","html-keyboard-response","359","399919","0.0-15.0-0.9","26UAcj2Kv4","6549c4b452f49429c69865e0","6617fad957f7c6a12ea16e26","6622caef51ece09e134972e1","fixation cross","null","","","","","","","","","","","",""
"","512","html-keyboard-response","360","400434","0.0-15.0-1.9","26UAcj2Kv4","6549c4b452f49429c69865e0","6617fad957f7c6a12ea16e26","6622caef51ece09e134972e1","image grid","q","","","","","Ontogenetic_Distractor_Threat_target","800","ongrid","q","1","Ontogenetic","true","experimental"
"","null","html-keyboard-response","361","400587","0.0-15.0-2.9","26UAcj2Kv4","6549c4b452f49429c69865e0","6617fad957f7c6a12ea16e26","6622caef51ece09e134972e1","
    <div id=""grid-container"">
        <!-- Grid items will be dynamically added here -->
    </div>    ","null","","","","","","","","","","","",""
"","null","html-keyboard-response","362","401290","0.0-15.0-0.10","26UAcj2Kv4","6549c4b452f49429c69865e0","6617fad957f7c6a12ea16e26","6622caef51ece09e134972e1","fixation cross","null","","","","","","","","","","","",""
"","null","html-keyboard-response","363","402093","0.0-15.0-1.10","26UAcj2Kv4","6549c4b452f49429c69865e0","6617fad957f7c6a12ea16e26","6622caef51ece09e134972e1","
        <div id=""grid-container"">
        <!-- Grid items will be dynamically added here -->
    </div>    ","null","","","","","","","","","","","",""
"","832","html-keyboard-response","364","402126","0.0-15.0-2.10","26UAcj2Kv4","6549c4b452f49429c69865e0","6617fad957f7c6a12ea16e26","6622caef51ece09e134972e1","mask grid"," ","","","","","Ontogenetic_Distractor_Threat_target","800","onmask","q","6","Ontogenetic","false","experimental"
"","null","html-keyboard-response","365","402830","0.0-15.0-0.11","26UAcj2Kv4","6549c4b452f49429c69865e0","6617fad957f7c6a12ea16e26","6622caef51ece09e134972e1","fixation cross","null","","","","","","","","","","","",""
"","779","html-keyboard-response","366","403611","0.0-15.0-1.11","26UAcj2Kv4","6549c4b452f49429c69865e0","6617fad957f7c6a12ea16e26","6622caef51ece09e134972e1","image grid","p","","","","","Ontogenetic_Distractor_Nonthreat_target","800","ongrid","p","6","Ontogenetic","true","experimental"
"","null","html-keyboard-response","367","403766","0.0-15.0-2.11","26UAcj2Kv4","6549c4b452f49429c69865e0","6617fad957f7c6a12ea16e26","6622caef51ece09e134972e1","
    <div id=""grid-container"">
        <!-- Grid items will be dynamically added here -->
    </div>    ","null","","","","","","","","","","","",""
"","null","html-keyboard-response","368","404469","0.0-15.0-0.12","26UAcj2Kv4","6549c4b452f49429c69865e0","6617fad957f7c6a12ea16e26","6622caef51ece09e134972e1","fixation cross","null","","","","","","","","","","","",""
"","661","html-keyboard-response","369","405132","0.0-15.0-1.12","26UAcj2Kv4","6549c4b452f49429c69865e0","6617fad957f7c6a12ea16e26","6622caef51ece09e134972e1","image grid","p","","","","","Ontogenetic_Distractor_Nonthreat_target","800","ongrid","p","8","Ontogenetic","true","experimental"
"","null","html-keyboard-response","370","405285","0.0-15.0-2.12","26UAcj2Kv4","6549c4b452f49429c69865e0","6617fad957f7c6a12ea16e26","6622caef51ece09e134972e1","
    <div id=""grid-container"">
        <!-- Grid items will be dynamically added here -->
