"success","rt","trial_type","trial_index","time_elapsed","internal_node_id","unique_identifier","subject_id","study_id","session_id","stimulus","response","timeout","failed_images","failed_audio","failed_video","task","time_manipulation","respondedwhen","correctresponse","targetimagelocation","blocktype","correct","roundtype"
"true","3223","fullscreen","0","4237","0.0-0.0","Jpg2lIUMtp","5dd31f8e7f1bbf33942dfcbf","6617fad957f7c6a12ea16e26","6622cf6e292d6e4f661088e5","","","","","","","","","","","","","",""
"","11323","html-keyboard-response","1","15562","0.0-1.0","Jpg2lIUMtp","5dd31f8e7f1bbf33942dfcbf","6617fad957f7c6a12ea16e26","6622cf6e292d6e4f661088e5","instruction screen 0","enter","","","","","","","","","","","",""
"true","","preload","2","25676","0.0-2.0","Jpg2lIUMtp","5dd31f8e7f1bbf33942dfcbf","6617fad957f7c6a12ea16e26","6622cf6e292d6e4f661088e5","","","false","[]","[]","[]","","","","","","","",""
"","18216","html-keyboard-response","3","43893","0.0-3.0","Jpg2lIUMtp","5dd31f8e7f1bbf33942dfcbf","6617fad957f7c6a12ea16e26","6622cf6e292d6e4f661088e5","instruction screen 1","enter","","","","","","","","","","","",""
"","10955","html-keyboard-response","4","54852","0.0-4.0","Jpg2lIUMtp","5dd31f8e7f1bbf33942dfcbf","6617fad957f7c6a12ea16e26","6622cf6e292d6e4f661088e5","instruction screen 2","q","","","","","","","","","","","",""
"","5799","html-keyboard-response","5","60653","0.0-5.0","Jpg2lIUMtp","5dd31f8e7f1bbf33942dfcbf","6617fad957f7c6a12ea16e26","6622cf6e292d6e4f661088e5","instruction screen 3","p","","","","","","","","","","","",""
"","5926","html-keyboard-response","6","66581","0.0-6.0","Jpg2lIUMtp","5dd31f8e7f1bbf33942dfcbf","6617fad957f7c6a12ea16e26","6622cf6e292d6e4f661088e5","instruction screen 4"," ","","","","","","","","","","","",""
"","17528","html-keyboard-response","7","84129","0.0-7.0","Jpg2lIUMtp","5dd31f8e7f1bbf33942dfcbf","6617fad957f7c6a12ea16e26","6622cf6e292d6e4f661088e5","instruction screen 5"," ","","","","","","","","","","","",""
"","null","html-keyboard-response","8","84674","0.0-8.0","Jpg2lIUMtp","5dd31f8e7f1bbf33942dfcbf","6617fad957f7c6a12ea16e26","6622cf6e292d6e4f661088e5","fixation cross","null","","","","","","","","","","","",""
"","null","html-keyboard-response","9","85188","0.0-9.0-0.0","Jpg2lIUMtp","5dd31f8e7f1bbf33942dfcbf","6617fad957f7c6a12ea16e26","6622cf6e292d6e4f661088e5","fixation cross","null","","","","","","","","","","","",""
"","1628","html-keyboard-response","10","86817","0.0-9.0-1.0","Jpg2lIUMtp","5dd31f8e7f1bbf33942dfcbf","6617fad957f7c6a12ea16e26","6622cf6e292d6e4f661088e5","image grid"," ","","","","","Phylogenetic_Distractor_notarget","3000","ongrid"," ","8","Phylogenetic","true","practice"
"","null","html-keyboard-response","11","86983","0.0-9.0-2.0","Jpg2lIUMtp","5dd31f8e7f1bbf33942dfcbf","6617fad957f7c6a12ea16e26","6622cf6e292d6e4f661088e5","
    <div id=""grid-container"">
        <!-- Grid items will be dynamically added here -->
    </div>    ","null","","","","","","","","","","","",""
"","null","html-keyboard-response","12","88190","0.0-9.0-3.0","Jpg2lIUMtp","5dd31f8e7f1bbf33942dfcbf","6617fad957f7c6a12ea16e26","6622cf6e292d6e4f661088e5","feedback screen","null","","","","","","","","","","","",""
"","null","html-keyboard-response","13","88708","0.0-9.0-0.1","Jpg2lIUMtp","5dd31f8e7f1bbf33942dfcbf","6617fad957f7c6a12ea16e26","6622cf6e292d6e4f661088e5","fixation cross","null","","","","","","","","","","","",""
"","1148","html-keyboard-response","14","89857","0.0-9.0-1.1","Jpg2lIUMtp","5dd31f8e7f1bbf33942dfcbf","6617fad957f7c6a12ea16e26","6622cf6e292d6e4f661088e5","image grid","p","","","","","Ontogenetic_Distractor_Threat_target","2900","ongrid","q","9","Phylogenetic","false","practice"
"","null","html-keyboard-response","15","90023","0.0-9.0-2.1","Jpg2lIUMtp","5dd31f8e7f1bbf33942dfcbf","6617fad957f7c6a12ea16e26","6622cf6e292d6e4f661088e5","
    <div id=""grid-container"">
        <!-- Grid items will be dynamically added here -->
    </div>    ","null","","","","","","","","","","","",""
"","null","html-keyboard-response","16","91230","0.0-9.0-3.1","Jpg2lIUMtp","5dd31f8e7f1bbf33942dfcbf","6617fad957f7c6a12ea16e26","6622cf6e292d6e4f661088e5","feedback screen","null","","","","","","","","","","","",""
"","null","html-keyboard-response","17","91741","0.0-9.0-0.2","Jpg2lIUMtp","5dd31f8e7f1bbf33942dfcbf","6617fad957f7c6a12ea16e26","6622cf6e292d6e4f661088e5","fixation cross","null","","","","","","","","","","","",""
"","1051","html-keyboard-response","18","92792","0.0-9.0-1.2","Jpg2lIUMtp","5dd31f8e7f1bbf33942dfcbf","6617fad957f7c6a12ea16e26","6622cf6e292d6e4f661088e5","image grid","p","","","","","Ontogenetic_Distractor_Nonthreat_target","2800","ongrid","p","4","Phylogenetic","true","practice"
"","null","html-keyboard-response","19","92947","0.0-9.0-2.2","Jpg2lIUMtp","5dd31f8e7f1bbf33942dfcbf","6617fad957f7c6a12ea16e26","6622cf6e292d6e4f661088e5","
    <div id=""grid-container"">
        <!-- Grid items will be dynamically added here -->
    </div>    ","null","","","","","","","","","","","",""
"","null","html-keyboard-response","20","94162","0.0-9.0-3.2","Jpg2lIUMtp","5dd31f8e7f1bbf33942dfcbf","6617fad957f7c6a12ea16e26","6622cf6e292d6e4f661088e5","feedback screen","null","","","","","","","","","","","",""
"","null","html-keyboard-response","21","94670","0.0-9.0-0.3","Jpg2lIUMtp","5dd31f8e7f1bbf33942dfcbf","6617fad957f7c6a12ea16e26","6622cf6e292d6e4f661088e5","fixation cross","null","","","","","","","","","","","",""
"","1211","html-keyboard-response","22","95881","0.0-9.0-1.3","Jpg2lIUMtp","5dd31f8e7f1bbf33942dfcbf","6617fad957f7c6a12ea16e26","6622cf6e292d6e4f661088e5","image grid"," ","","","","","Phylogenetic_Distractor_Threat_target","2700","ongrid","q","3","Phylogenetic","false","practice"
"","null","html-keyboard-response","23","96035","0.0-9.0-2.3","Jpg2lIUMtp","5dd31f8e7f1bbf33942dfcbf","6617fad957f7c6a12ea16e26","6622cf6e292d6e4f661088e5","
    <div id=""grid-container"">
        <!-- Grid items will be dynamically added here -->
    </div>    ","null","","","","","","","","","","","",""
"","null","html-keyboard-response","24","97240","0.0-9.0-3.3","Jpg2lIUMtp","5dd31f8e7f1bbf33942dfcbf","6617fad957f7c6a12ea16e26","6622cf6e292d6e4f661088e5","feedback screen","null","","","","","","","","","","","",""
"","null","html-keyboard-response","25","97753","0.0-9.0-0.4","Jpg2lIUMtp","5dd31f8e7f1bbf33942dfcbf","6617fad957f7c6a12ea16e26","6622cf6e292d6e4f661088e5","fixation cross","null","","","","","","","","","","","",""
"","953","html-keyboard-response","26","98707","0.0-9.0-1.4","Jpg2lIUMtp","5dd31f8e7f1bbf33942dfcbf","6617fad957f7c6a12ea16e26","6622cf6e292d6e4f661088e5","image grid","q","","","","","Ontogenetic_Distractor_Threat_target","2600","ongrid","q","1","Phylogenetic","true","practice"
"","null","html-keyboard-response","27","98871","0.0-9.0-2.4","Jpg2lIUMtp","5dd31f8e7f1bbf33942dfcbf","6617fad957f7c6a12ea16e26","6622cf6e292d6e4f661088e5","
    <div id=""grid-container"">
        <!-- Grid items will be dynamically added here -->
    </div>    ","null","","","","","","","","","","","",""
"","null","html-keyboard-response","28","100095","0.0-9.0-3.4","Jpg2lIUMtp","5dd31f8e7f1bbf33942dfcbf","6617fad957f7c6a12ea16e26","6622cf6e292d6e4f661088e5","feedback screen","null","","","","","","","","","","","",""
"","null","html-keyboard-response","29","100612","0.0-9.0-0.5","Jpg2lIUMtp","5dd31f8e7f1bbf33942dfcbf","6617fad957f7c6a12ea16e26","6622cf6e292d6e4f661088e5","fixation cross","null","","","","","","","","","","","",""
"","1016","html-keyboard-response","30","101629","0.0-9.0-1.5","Jpg2lIUMtp","5dd31f8e7f1bbf33942dfcbf","6617fad957f7c6a12ea16e26","6622cf6e292d6e4f661088e5","image grid","q","","","","","Ontogenetic_Distractor_Threat_target","2500","ongrid","q","6","Phylogenetic","true","practice"
"","null","html-keyboard-response","31","101787","0.0-9.0-2.5","Jpg2lIUMtp","5dd31f8e7f1bbf33942dfcbf","6617fad957f7c6a12ea16e26","6622cf6e292d6e4f661088e5","
    <div id=""grid-container"">
        <!-- Grid items will be dynamically added here -->
    </div>    ","null","","","","","","","","","","","",""
"","null","html-keyboard-response","32","103001","0.0-9.0-3.5","Jpg2lIUMtp","5dd31f8e7f1bbf33942dfcbf","6617fad957f7c6a12ea16e26","6622cf6e292d6e4f661088e5","feedback screen","null","","","","","","","","","","","",""
"","null","html-keyboard-response","33","103513","0.0-9.0-0.6","Jpg2lIUMtp","5dd31f8e7f1bbf33942dfcbf","6617fad957f7c6a12ea16e26","6622cf6e292d6e4f661088e5","fixation cross","null","","","","","","","","","","","",""
"","1380","html-keyboard-response","34","104893","0.0-9.0-1.6","Jpg2lIUMtp","5dd31f8e7f1bbf33942dfcbf","6617fad957f7c6a12ea16e26","6622cf6e292d6e4f661088e5","image grid","p","","","","","Phylogenetic_Distractor_Nonthreat_target","2400","ongrid","p","5","Phylogenetic","true","practice"
"","null","html-keyboard-response","35","105058","0.0-9.0-2.6","Jpg2lIUMtp","5dd31f8e7f1bbf33942dfcbf","6617fad957f7c6a12ea16e26","6622cf6e292d6e4f661088e5","
    <div id=""grid-container"">
        <!-- Grid items will be dynamically added here -->
    </div>    ","null","","","","","","","","","","","",""
"","null","html-keyboard-response","36","106279","0.0-9.0-3.6","Jpg2lIUMtp","5dd31f8e7f1bbf33942dfcbf","6617fad957f7c6a12ea16e26","6622cf6e292d6e4f661088e5","feedback screen","null","","","","","","","","","","","",""
"","null","html-keyboard-response","37","106789","0.0-9.0-0.7","Jpg2lIUMtp","5dd31f8e7f1bbf33942dfcbf","6617fad957f7c6a12ea16e26","6622cf6e292d6e4f661088e5","fixation cross","null","","","","","","","","","","","",""
"","null","html-keyboard-response","38","109098","0.0-9.0-1.7","Jpg2lIUMtp","5dd31f8e7f1bbf33942dfcbf","6617fad957f7c6a12ea16e26","6622cf6e292d6e4f661088e5","
        <div id=""grid-container"">
        <!-- Grid items will be dynamically added here -->
    </div>    ","null","","","","","","","","","","","",""
"","2495","html-keyboard-response","39","109293","0.0-9.0-2.7","Jpg2lIUMtp","5dd31f8e7f1bbf33942dfcbf","6617fad957f7c6a12ea16e26","6622cf6e292d6e4f661088e5","mask grid","q","","","","","Phylogenetic_Distractor_Threat_target","2300","onmask","q","2","Phylogenetic","true","practice"
"","null","html-keyboard-response","40","110508","0.0-9.0-3.7","Jpg2lIUMtp","5dd31f8e7f1bbf33942dfcbf","6617fad957f7c6a12ea16e26","6622cf6e292d6e4f661088e5","feedback screen","null","","","","","","","","","","","",""
"","null","html-keyboard-response","41","111018","0.0-9.0-0.8","Jpg2lIUMtp","5dd31f8e7f1bbf33942dfcbf","6617fad957f7c6a12ea16e26","6622cf6e292d6e4f661088e5","fixation cross","null","","","","","","","","","","","",""
"","1225","html-keyboard-response","42","112244","0.0-9.0-1.8","Jpg2lIUMtp","5dd31f8e7f1bbf33942dfcbf","6617fad957f7c6a12ea16e26","6622cf6e292d6e4f661088e5","image grid","q","","","","","Phylogenetic_Distractor_Threat_target","2200","ongrid","q","1","Phylogenetic","true","practice"
"","null","html-keyboard-response","43","112395","0.0-9.0-2.8","Jpg2lIUMtp","5dd31f8e7f1bbf33942dfcbf","6617fad957f7c6a12ea16e26","6622cf6e292d6e4f661088e5","
    <div id=""grid-container"">
        <!-- Grid items will be dynamically added here -->
    </div>    ","null","","","","","","","","","","","",""
"","null","html-keyboard-response","44","113617","0.0-9.0-3.8","Jpg2lIUMtp","5dd31f8e7f1bbf33942dfcbf","6617fad957f7c6a12ea16e26","6622cf6e292d6e4f661088e5","feedback screen","null","","","","","","","","","","","",""
"","null","html-keyboard-response","45","114129","0.0-9.0-0.9","Jpg2lIUMtp","5dd31f8e7f1bbf33942dfcbf","6617fad957f7c6a12ea16e26","6622cf6e292d6e4f661088e5","fixation cross","null","","","","","","","","","","","",""
"","1019","html-keyboard-response","46","115149","0.0-9.0-1.9","Jpg2lIUMtp","5dd31f8e7f1bbf33942dfcbf","6617fad957f7c6a12ea16e26","6622cf6e292d6e4f661088e5","image grid","q","","","","","Ontogenetic_Distractor_Threat_target","2100","ongrid","q","2","Phylogenetic","true","practice"
"","null","html-keyboard-response","47","115315","0.0-9.0-2.9","Jpg2lIUMtp","5dd31f8e7f1bbf33942dfcbf","6617fad957f7c6a12ea16e26","6622cf6e292d6e4f661088e5","
    <div id=""grid-container"">
        <!-- Grid items will be dynamically added here -->
    </div>    ","null","","","","","","","","","","","",""
"","null","html-keyboard-response","48","116523","0.0-9.0-3.9","Jpg2lIUMtp","5dd31f8e7f1bbf33942dfcbf","6617fad957f7c6a12ea16e26","6622cf6e292d6e4f661088e5","feedback screen","null","","","","","","","","","","","",""
"","null","html-keyboard-response","49","117033","0.0-9.0-0.10","Jpg2lIUMtp","5dd31f8e7f1bbf33942dfcbf","6617fad957f7c6a12ea16e26","6622cf6e292d6e4f661088e5","fixation cross","null","","","","","","","","","","","",""
"","1328","html-keyboard-response","50","118362","0.0-9.0-1.10","Jpg2lIUMtp","5dd31f8e7f1bbf33942dfcbf","6617fad957f7c6a12ea16e26","6622cf6e292d6e4f661088e5","image grid","q","","","","","Phylogenetic_Distractor_Nonthreat_target","2000","ongrid","p","1","Phylogenetic","false","practice"
"","null","html-keyboard-response","51","118522","0.0-9.0-2.10","Jpg2lIUMtp","5dd31f8e7f1bbf33942dfcbf","6617fad957f7c6a12ea16e26","6622cf6e292d6e4f661088e5","
    <div id=""grid-container"">
        <!-- Grid items will be dynamically added here -->
    </div>    ","null","","","","","","","","","","","",""
"","null","html-keyboard-response","52","119741","0.0-9.0-3.10","Jpg2lIUMtp","5dd31f8e7f1bbf33942dfcbf","6617fad957f7c6a12ea16e26","6622cf6e292d6e4f661088e5","feedback screen","null","","","","","","","","","","","",""
"","null","html-keyboard-response","53","120244","0.0-9.0-0.11","Jpg2lIUMtp","5dd31f8e7f1bbf33942dfcbf","6617fad957f7c6a12ea16e26","6622cf6e292d6e4f661088e5","fixation cross","null","","","","","","","","","","","",""
"","null","html-keyboard-response","54","122159","0.0-9.0-1.11","Jpg2lIUMtp","5dd31f8e7f1bbf33942dfcbf","6617fad957f7c6a12ea16e26","6622cf6e292d6e4f661088e5","
        <div id=""grid-container"">
        <!-- Grid items will be dynamically added here -->
    </div>    ","null","","","","","","","","","","","",""
"","2231","html-keyboard-response","55","122490","0.0-9.0-2.11","Jpg2lIUMtp","5dd31f8e7f1bbf33942dfcbf","6617fad957f7c6a12ea16e26","6622cf6e292d6e4f661088e5","mask grid","q","","","","","Phylogenetic_Distractor_Nonthreat_target","1900","onmask","p","8","Phylogenetic","false","practice"
"","null","html-keyboard-response","56","123711","0.0-9.0-3.11","Jpg2lIUMtp","5dd31f8e7f1bbf33942dfcbf","6617fad957f7c6a12ea16e26","6622cf6e292d6e4f661088e5","feedback screen","null","","","","","","","","","","","",""
"","null","html-keyboard-response","57","124221","0.0-9.0-0.12","Jpg2lIUMtp","5dd31f8e7f1bbf33942dfcbf","6617fad957f7c6a12ea16e26","6622cf6e292d6e4f661088e5","fixation cross","null","","","","","","","","","","","",""
"","1147","html-keyboard-response","58","125369","0.0-9.0-1.12","Jpg2lIUMtp","5dd31f8e7f1bbf33942dfcbf","6617fad957f7c6a12ea16e26","6622cf6e292d6e4f661088e5","image grid","p","","","","","Ontogenetic_Distractor_Nonthreat_target","1800","ongrid","p","2","Phylogenetic","true","practice"
"","null","html-keyboard-response","59","125523","0.0-9.0-2.12","Jpg2lIUMtp","5dd31f8e7f1bbf33942dfcbf","6617fad957f7c6a12ea16e26","6622cf6e292d6e4f661088e5","
    <div id=""grid-container"">
        <!-- Grid items will be dynamically added here -->
    </div>    ","null","","","","","","","","","","","",""
"","null","html-keyboard-response","60","126738","0.0-9.0-3.12","Jpg2lIUMtp","5dd31f8e7f1bbf33942dfcbf","6617fad957f7c6a12ea16e26","6622cf6e292d6e4f661088e5","feedback screen","null","","","","","","","","","","","",""
"","null","html-keyboard-response","61","127248","0.0-9.0-0.13","Jpg2lIUMtp","5dd31f8e7f1bbf33942dfcbf","6617fad957f7c6a12ea16e26","6622cf6e292d6e4f661088e5","fixation cross","null","","","","","","","","","","","",""
"","1008","html-keyboard-response","62","128257","0.0-9.0-1.13","Jpg2lIUMtp","5dd31f8e7f1bbf33942dfcbf","6617fad957f7c6a12ea16e26","6622cf6e292d6e4f661088e5","image grid","p","","","","","Ontogenetic_Distractor_Nonthreat_target","1700","ongrid","p","1","Phylogenetic","true","practice"
"","null","html-keyboard-response","63","128415","0.0-9.0-2.13","Jpg2lIUMtp","5dd31f8e7f1bbf33942dfcbf","6617fad957f7c6a12ea16e26","6622cf6e292d6e4f661088e5","
    <div id=""grid-container"">
        <!-- Grid items will be dynamically added here -->
    </div>    ","null","","","","","","","","","","","",""
"","null","html-keyboard-response","64","129641","0.0-9.0-3.13","Jpg2lIUMtp","5dd31f8e7f1bbf33942dfcbf","6617fad957f7c6a12ea16e26","6622cf6e292d6e4f661088e5","feedback screen","null","","","","","","","","","","","",""
"","null","html-keyboard-response","65","130147","0.0-9.0-0.14","Jpg2lIUMtp","5dd31f8e7f1bbf33942dfcbf","6617fad957f7c6a12ea16e26","6622cf6e292d6e4f661088e5","fixation cross","null","","","","","","","","","","","",""
"","1174","html-keyboard-response","66","131322","0.0-9.0-1.14","Jpg2lIUMtp","5dd31f8e7f1bbf33942dfcbf","6617fad957f7c6a12ea16e26","6622cf6e292d6e4f661088e5","image grid","p","","","","","Phylogenetic_Distractor_Nonthreat_target","1600","ongrid","p","2","Phylogenetic","true","practice"
"","null","html-keyboard-response","67","131481","0.0-9.0-2.14","Jpg2lIUMtp","5dd31f8e7f1bbf33942dfcbf","6617fad957f7c6a12ea16e26","6622cf6e292d6e4f661088e5","
    <div id=""grid-container"">
        <!-- Grid items will be dynamically added here -->
    </div>    ","null","","","","","","","","","","","",""
"","null","html-keyboard-response","68","132686","0.0-9.0-3.14","Jpg2lIUMtp","5dd31f8e7f1bbf33942dfcbf","6617fad957f7c6a12ea16e26","6622cf6e292d6e4f661088e5","feedback screen","null","","","","","","","","","","","",""
"","null","html-keyboard-response","69","133199","0.0-9.0-0.15","Jpg2lIUMtp","5dd31f8e7f1bbf33942dfcbf","6617fad957f7c6a12ea16e26","6622cf6e292d6e4f661088e5","fixation cross","null","","","","","","","","","","","",""
"","null","html-keyboard-response","70","134705","0.0-9.0-1.15","Jpg2lIUMtp","5dd31f8e7f1bbf33942dfcbf","6617fad957f7c6a12ea16e26","6622cf6e292d6e4f661088e5","
        <div id=""grid-container"">
        <!-- Grid items will be dynamically added here -->
    </div>    ","null","","","","","","","","","","","",""
"","2028","html-keyboard-response","71","135234","0.0-9.0-2.15","Jpg2lIUMtp","5dd31f8e7f1bbf33942dfcbf","6617fad957f7c6a12ea16e26","6622cf6e292d6e4f661088e5","mask grid"," ","","","","","Phylogenetic_Distractor_notarget","1500","onmask"," ","3","Phylogenetic","true","practice"
"","null","html-keyboard-response","72","136456","0.0-9.0-3.15","Jpg2lIUMtp","5dd31f8e7f1bbf33942dfcbf","6617fad957f7c6a12ea16e26","6622cf6e292d6e4f661088e5","feedback screen","null","","","","","","","","","","","",""
"","null","html-keyboard-response","73","136970","0.0-9.0-0.16","Jpg2lIUMtp","5dd31f8e7f1bbf33942dfcbf","6617fad957f7c6a12ea16e26","6622cf6e292d6e4f661088e5","fixation cross","null","","","","","","","","","","","",""
"","951","html-keyboard-response","74","137922","0.0-9.0-1.16","Jpg2lIUMtp","5dd31f8e7f1bbf33942dfcbf","6617fad957f7c6a12ea16e26","6622cf6e292d6e4f661088e5","image grid","q","","","","","Phylogenetic_Distractor_Threat_target","1400","ongrid","q","4","Phylogenetic","true","practice"
"","null","html-keyboard-response","75","138075","0.0-9.0-2.16","Jpg2lIUMtp","5dd31f8e7f1bbf33942dfcbf","6617fad957f7c6a12ea16e26","6622cf6e292d6e4f661088e5","
    <div id=""grid-container"">
        <!-- Grid items will be dynamically added here -->
    </div>    ","null","","","","","","","","","","","",""
"","null","html-keyboard-response","76","139282","0.0-9.0-3.16","Jpg2lIUMtp","5dd31f8e7f1bbf33942dfcbf","6617fad957f7c6a12ea16e26","6622cf6e292d6e4f661088e5","feedback screen","null","","","","","","","","","","","",""
"","null","html-keyboard-response","77","139793","0.0-9.0-0.17","Jpg2lIUMtp","5dd31f8e7f1bbf33942dfcbf","6617fad957f7c6a12ea16e26","6622cf6e292d6e4f661088e5","fixation cross","null","","","","","","","","","","","",""
"","735","html-keyboard-response","78","140528","0.0-9.0-1.17","Jpg2lIUMtp","5dd31f8e7f1bbf33942dfcbf","6617fad957f7c6a12ea16e26","6622cf6e292d6e4f661088e5","image grid","p","","","","","Ontogenetic_Distractor_Nonthreat_target","1300","ongrid","p","1","Phylogenetic","true","practice"
"","null","html-keyboard-response","79","140683","0.0-9.0-2.17","Jpg2lIUMtp","5dd31f8e7f1bbf33942dfcbf","6617fad957f7c6a12ea16e26","6622cf6e292d6e4f661088e5","
    <div id=""grid-container"">
        <!-- Grid items will be dynamically added here -->
    </div>    ","null","","","","","","","","","","","",""
"","null","html-keyboard-response","80","141888","0.0-9.0-3.17","Jpg2lIUMtp","5dd31f8e7f1bbf33942dfcbf","6617fad957f7c6a12ea16e26","6622cf6e292d6e4f661088e5","feedback screen","null","","","","","","","","","","","",""
"","null","html-keyboard-response","81","142406","0.0-9.0-0.18","Jpg2lIUMtp","5dd31f8e7f1bbf33942dfcbf","6617fad957f7c6a12ea16e26","6622cf6e292d6e4f661088e5","fixation cross","null","","","","","","","","","","","",""
"","null","html-keyboard-response","82","143614","0.0-9.0-1.18","Jpg2lIUMtp","5dd31f8e7f1bbf33942dfcbf","6617fad957f7c6a12ea16e26","6622cf6e292d6e4f661088e5","
        <div id=""grid-container"">
        <!-- Grid items will be dynamically added here -->
    </div>    ","null","","","","","","","","","","","",""
"","1347","html-keyboard-response","83","143762","0.0-9.0-2.18","Jpg2lIUMtp","5dd31f8e7f1bbf33942dfcbf","6617fad957f7c6a12ea16e26","6622cf6e292d6e4f661088e5","mask grid"," ","","","","","Ontogenetic_Distractor_notarget","1200","onmask"," ","7","Phylogenetic","true","practice"
"","null","html-keyboard-response","84","144978","0.0-9.0-3.18","Jpg2lIUMtp","5dd31f8e7f1bbf33942dfcbf","6617fad957f7c6a12ea16e26","6622cf6e292d6e4f661088e5","feedback screen","null","","","","","","","","","","","",""
"","null","html-keyboard-response","85","145487","0.0-9.0-0.19","Jpg2lIUMtp","5dd31f8e7f1bbf33942dfcbf","6617fad957f7c6a12ea16e26","6622cf6e292d6e4f661088e5","fixation cross","null","","","","","","","","","","","",""
"","1089","html-keyboard-response","86","146577","0.0-9.0-1.19","Jpg2lIUMtp","5dd31f8e7f1bbf33942dfcbf","6617fad957f7c6a12ea16e26","6622cf6e292d6e4f661088e5","image grid"," ","","","","","Ontogenetic_Distractor_notarget","1100","ongrid"," ","4","Phylogenetic","true","practice"
"","null","html-keyboard-response","87","146736","0.0-9.0-2.19","Jpg2lIUMtp","5dd31f8e7f1bbf33942dfcbf","6617fad957f7c6a12ea16e26","6622cf6e292d6e4f661088e5","
    <div id=""grid-container"">
        <!-- Grid items will be dynamically added here -->
    </div>    ","null","","","","","","","","","","","",""
"","null","html-keyboard-response","88","147950","0.0-9.0-3.19","Jpg2lIUMtp","5dd31f8e7f1bbf33942dfcbf","6617fad957f7c6a12ea16e26","6622cf6e292d6e4f661088e5","feedback screen","null","","","","","","","","","","","",""
"","18370","html-keyboard-response","89","166342","0.0-10.0","Jpg2lIUMtp","5dd31f8e7f1bbf33942dfcbf","6617fad957f7c6a12ea16e26","6622cf6e292d6e4f661088e5","pre-experimental_briefing"," ","","","","","","","","","","","",""
"","null","html-keyboard-response","90","168894","0.0-11.0-0.0","Jpg2lIUMtp","5dd31f8e7f1bbf33942dfcbf","6617fad957f7c6a12ea16e26","6622cf6e292d6e4f661088e5","fixation cross","null","","","","","","","","","","","",""
"","1341","html-keyboard-response","91","170236","0.0-11.0-1.0","Jpg2lIUMtp","5dd31f8e7f1bbf33942dfcbf","6617fad957f7c6a12ea16e26","6622cf6e292d6e4f661088e5","image grid","p","","","","","Phylogenetic_Distractor_Nonthreat_target","2500","ongrid","p","5","Phylogenetic","true","experimental"
"","null","html-keyboard-response","92","170388","0.0-11.0-2.0","Jpg2lIUMtp","5dd31f8e7f1bbf33942dfcbf","6617fad957f7c6a12ea16e26","6622cf6e292d6e4f661088e5","
    <div id=""grid-container"">
        <!-- Grid items will be dynamically added here -->
    </div>    ","null","","","","","","","","","","","",""
"","null","html-keyboard-response","93","171104","0.0-11.0-0.1","Jpg2lIUMtp","5dd31f8e7f1bbf33942dfcbf","6617fad957f7c6a12ea16e26","6622cf6e292d6e4f661088e5","fixation cross","null","","","","","","","","","","","",""
"","1244","html-keyboard-response","94","172348","0.0-11.0-1.1","Jpg2lIUMtp","5dd31f8e7f1bbf33942dfcbf","6617fad957f7c6a12ea16e26","6622cf6e292d6e4f661088e5","image grid","p","","","","","Phylogenetic_Distractor_Nonthreat_target","2500","ongrid","p","4","Phylogenetic","true","experimental"
"","null","html-keyboard-response","95","172504","0.0-11.0-2.1","Jpg2lIUMtp","5dd31f8e7f1bbf33942dfcbf","6617fad957f7c6a12ea16e26","6622cf6e292d6e4f661088e5","
    <div id=""grid-container"">
        <!-- Grid items will be dynamically added here -->
    </div>    ","null","","","","","","","","","","","",""
"","null","html-keyboard-response","96","173226","0.0-11.0-0.2","Jpg2lIUMtp","5dd31f8e7f1bbf33942dfcbf","6617fad957f7c6a12ea16e26","6622cf6e292d6e4f661088e5","fixation cross","null","","","","","","","","","","","",""
"","1321","html-keyboard-response","97","174548","0.0-11.0-1.2","Jpg2lIUMtp","5dd31f8e7f1bbf33942dfcbf","6617fad957f7c6a12ea16e26","6622cf6e292d6e4f661088e5","image grid","p","","","","","Phylogenetic_Distractor_Nonthreat_target","2500","ongrid","p","9","Phylogenetic","true","experimental"
"","null","html-keyboard-response","98","174708","0.0-11.0-2.2","Jpg2lIUMtp","5dd31f8e7f1bbf33942dfcbf","6617fad957f7c6a12ea16e26","6622cf6e292d6e4f661088e5","
    <div id=""grid-container"">
        <!-- Grid items will be dynamically added here -->
    </div>    ","null","","","","","","","","","","","",""
"","null","html-keyboard-response","99","175419","0.0-11.0-0.3","Jpg2lIUMtp","5dd31f8e7f1bbf33942dfcbf","6617fad957f7c6a12ea16e26","6622cf6e292d6e4f661088e5","fixation cross","null","","","","","","","","","","","",""
"","1377","html-keyboard-response","100","176796","0.0-11.0-1.3","Jpg2lIUMtp","5dd31f8e7f1bbf33942dfcbf","6617fad957f7c6a12ea16e26","6622cf6e292d6e4f661088e5","image grid"," ","","","","","Phylogenetic_Distractor_Nonthreat_target","2500","ongrid","p","1","Phylogenetic","false","experimental"
"","null","html-keyboard-response","101","176955","0.0-11.0-2.3","Jpg2lIUMtp","5dd31f8e7f1bbf33942dfcbf","6617fad957f7c6a12ea16e26","6622cf6e292d6e4f661088e5","
    <div id=""grid-container"">
        <!-- Grid items will be dynamically added here -->
    </div>    ","null","","","","","","","","","","","",""
"","null","html-keyboard-response","102","177668","0.0-11.0-0.4","Jpg2lIUMtp","5dd31f8e7f1bbf33942dfcbf","6617fad957f7c6a12ea16e26","6622cf6e292d6e4f661088e5","fixation cross","null","","","","","","","","","","","",""
"","1075","html-keyboard-response","103","178743","0.0-11.0-1.4","Jpg2lIUMtp","5dd31f8e7f1bbf33942dfcbf","6617fad957f7c6a12ea16e26","6622cf6e292d6e4f661088e5","image grid","q","","","","","Phylogenetic_Distractor_Threat_target","2500","ongrid","q","6","Phylogenetic","true","experimental"
"","null","html-keyboard-response","104","178904","0.0-11.0-2.4","Jpg2lIUMtp","5dd31f8e7f1bbf33942dfcbf","6617fad957f7c6a12ea16e26","6622cf6e292d6e4f661088e5","
    <div id=""grid-container"">
        <!-- Grid items will be dynamically added here -->
    </div>    ","null","","","","","","","","","","","",""
"","null","html-keyboard-response","105","179619","0.0-11.0-0.5","Jpg2lIUMtp","5dd31f8e7f1bbf33942dfcbf","6617fad957f7c6a12ea16e26","6622cf6e292d6e4f661088e5","fixation cross","null","","","","","","","","","","","",""
"","1452","html-keyboard-response","106","181071","0.0-11.0-1.5","Jpg2lIUMtp","5dd31f8e7f1bbf33942dfcbf","6617fad957f7c6a12ea16e26","6622cf6e292d6e4f661088e5","image grid"," ","","","","","Phylogenetic_Distractor_Nonthreat_target","2500","ongrid","p","8","Phylogenetic","false","experimental"
"","null","html-keyboard-response","107","181224","0.0-11.0-2.5","Jpg2lIUMtp","5dd31f8e7f1bbf33942dfcbf","6617fad957f7c6a12ea16e26","6622cf6e292d6e4f661088e5","
    <div id=""grid-container"">
        <!-- Grid items will be dynamically added here -->
    </div>    ","null","","","","","","","","","","","",""
"","null","html-keyboard-response","108","181940","0.0-11.0-0.6","Jpg2lIUMtp","5dd31f8e7f1bbf33942dfcbf","6617fad957f7c6a12ea16e26","6622cf6e292d6e4f661088e5","fixation cross","null","","","","","","","","","","","",""
"","1300","html-keyboard-response","109","183241","0.0-11.0-1.6","Jpg2lIUMtp","5dd31f8e7f1bbf33942dfcbf","6617fad957f7c6a12ea16e26","6622cf6e292d6e4f661088e5","image grid","q","","","","","Phylogenetic_Distractor_Threat_target","2500","ongrid","q","6","Phylogenetic","true","experimental"
"","null","html-keyboard-response","110","183392","0.0-11.0-2.6","Jpg2lIUMtp","5dd31f8e7f1bbf33942dfcbf","6617fad957f7c6a12ea16e26","6622cf6e292d6e4f661088e5","
    <div id=""grid-container"">
        <!-- Grid items will be dynamically added here -->
    </div>    ","null","","","","","","","","","","","",""
"","null","html-keyboard-response","111","184106","0.0-11.0-0.7","Jpg2lIUMtp","5dd31f8e7f1bbf33942dfcbf","6617fad957f7c6a12ea16e26","6622cf6e292d6e4f661088e5","fixation cross","null","","","","","","","","","","","",""
"","1125","html-keyboard-response","112","185232","0.0-11.0-1.7","Jpg2lIUMtp","5dd31f8e7f1bbf33942dfcbf","6617fad957f7c6a12ea16e26","6622cf6e292d6e4f661088e5","image grid","q","","","","","Phylogenetic_Distractor_Threat_target","2500","ongrid","q","1","Phylogenetic","true","experimental"
"","null","html-keyboard-response","113","185396","0.0-11.0-2.7","Jpg2lIUMtp","5dd31f8e7f1bbf33942dfcbf","6617fad957f7c6a12ea16e26","6622cf6e292d6e4f661088e5","
    <div id=""grid-container"">
        <!-- Grid items will be dynamically added here -->
    </div>    ","null","","","","","","","","","","","",""
"","null","html-keyboard-response","114","186106","0.0-11.0-0.8","Jpg2lIUMtp","5dd31f8e7f1bbf33942dfcbf","6617fad957f7c6a12ea16e26","6622cf6e292d6e4f661088e5","fixation cross","null","","","","","","","","","","","",""
"","906","html-keyboard-response","115","187012","0.0-11.0-1.8","Jpg2lIUMtp","5dd31f8e7f1bbf33942dfcbf","6617fad957f7c6a12ea16e26","6622cf6e292d6e4f661088e5","image grid","q","","","","","Phylogenetic_Distractor_Threat_target","2500","ongrid","q","3","Phylogenetic","true","experimental"
"","null","html-keyboard-response","116","187176","0.0-11.0-2.8","Jpg2lIUMtp","5dd31f8e7f1bbf33942dfcbf","6617fad957f7c6a12ea16e26","6622cf6e292d6e4f661088e5","
    <div id=""grid-container"">
        <!-- Grid items will be dynamically added here -->
    </div>    ","null","","","","","","","","","","","",""
"","null","html-keyboard-response","117","187890","0.0-11.0-0.9","Jpg2lIUMtp","5dd31f8e7f1bbf33942dfcbf","6617fad957f7c6a12ea16e26","6622cf6e292d6e4f661088e5","fixation cross","null","","","","","","","","","","","",""
"","1505","html-keyboard-response","118","189396","0.0-11.0-1.9","Jpg2lIUMtp","5dd31f8e7f1bbf33942dfcbf","6617fad957f7c6a12ea16e26","6622cf6e292d6e4f661088e5","image grid"," ","","","","","Phylogenetic_Distractor_notarget","2500","ongrid"," ","4","Phylogenetic","true","experimental"
"","null","html-keyboard-response","119","189552","0.0-11.0-2.9","Jpg2lIUMtp","5dd31f8e7f1bbf33942dfcbf","6617fad957f7c6a12ea16e26","6622cf6e292d6e4f661088e5","
    <div id=""grid-container"">
        <!-- Grid items will be dynamically added here -->
    </div>    ","null","","","","","","","","","","","",""
"","null","html-keyboard-response","120","190268","0.0-11.0-0.10","Jpg2lIUMtp","5dd31f8e7f1bbf33942dfcbf","6617fad957f7c6a12ea16e26","6622cf6e292d6e4f661088e5","fixation cross","null","","","","","","","","","","","",""
"","1289","html-keyboard-response","121","191557","0.0-11.0-1.10","Jpg2lIUMtp","5dd31f8e7f1bbf33942dfcbf","6617fad957f7c6a12ea16e26","6622cf6e292d6e4f661088e5","image grid","q","","","","","Phylogenetic_Distractor_Threat_target","2500","ongrid","q","9","Phylogenetic","true","experimental"
"","null","html-keyboard-response","122","191710","0.0-11.0-2.10","Jpg2lIUMtp","5dd31f8e7f1bbf33942dfcbf","6617fad957f7c6a12ea16e26","6622cf6e292d6e4f661088e5","
    <div id=""grid-container"">
        <!-- Grid items will be dynamically added here -->
    </div>    ","null","","","","","","","","","","","",""
"","null","html-keyboard-response","123","192434","0.0-11.0-0.11","Jpg2lIUMtp","5dd31f8e7f1bbf33942dfcbf","6617fad957f7c6a12ea16e26","6622cf6e292d6e4f661088e5","fixation cross","null","","","","","","","","","","","",""
"","1578","html-keyboard-response","124","194013","0.0-11.0-1.11","Jpg2lIUMtp","5dd31f8e7f1bbf33942dfcbf","6617fad957f7c6a12ea16e26","6622cf6e292d6e4f661088e5","image grid","q","","","","","Phylogenetic_Distractor_Threat_target","2500","ongrid","q","4","Phylogenetic","true","experimental"
"","null","html-keyboard-response","125","194168","0.0-11.0-2.11","Jpg2lIUMtp","5dd31f8e7f1bbf33942dfcbf","6617fad957f7c6a12ea16e26","6622cf6e292d6e4f661088e5","
    <div id=""grid-container"">
        <!-- Grid items will be dynamically added here -->
    </div>    ","null","","","","","","","","","","","",""
"","null","html-keyboard-response","126","194893","0.0-11.0-0.12","Jpg2lIUMtp","5dd31f8e7f1bbf33942dfcbf","6617fad957f7c6a12ea16e26","6622cf6e292d6e4f661088e5","fixation cross","null","","","","","","","","","","","",""
"","1631","html-keyboard-response","127","196525","0.0-11.0-1.12","Jpg2lIUMtp","5dd31f8e7f1bbf33942dfcbf","6617fad957f7c6a12ea16e26","6622cf6e292d6e4f661088e5","image grid"," ","","","","","Phylogenetic_Distractor_notarget","2500","ongrid"," ","6","Phylogenetic","true","experimental"
"","null","html-keyboard-response","128","196685","0.0-11.0-2.12","Jpg2lIUMtp","5dd31f8e7f1bbf33942dfcbf","6617fad957f7c6a12ea16e26","6622cf6e292d6e4f661088e5","
    <div id=""grid-container"">
        <!-- Grid items will be dynamically added here -->
    </div>    ","null","","","","","","","","","","","",""
"","null","html-keyboard-response","129","197393","0.0-11.0-0.13","Jpg2lIUMtp","5dd31f8e7f1bbf33942dfcbf","6617fad957f7c6a12ea16e26","6622cf6e292d6e4f661088e5","fixation cross","null","","","","","","","","","","","",""
"","1085","html-keyboard-response","130","198478","0.0-11.0-1.13","Jpg2lIUMtp","5dd31f8e7f1bbf33942dfcbf","6617fad957f7c6a12ea16e26","6622cf6e292d6e4f661088e5","image grid","p","","","","","Phylogenetic_Distractor_Nonthreat_target","2500","ongrid","p","6","Phylogenetic","true","experimental"
"","null","html-keyboard-response","131","198633","0.0-11.0-2.13","Jpg2lIUMtp","5dd31f8e7f1bbf33942dfcbf","6617fad957f7c6a12ea16e26","6622cf6e292d6e4f661088e5","
    <div id=""grid-container"">
        <!-- Grid items will be dynamically added here -->
    </div>    ","null","","","","","","","","","","","",""
"","null","html-keyboard-response","132","199361","0.0-11.0-0.14","Jpg2lIUMtp","5dd31f8e7f1bbf33942dfcbf","6617fad957f7c6a12ea16e26","6622cf6e292d6e4f661088e5","fixation cross","null","","","","","","","","","","","",""
"","956","html-keyboard-response","133","200317","0.0-11.0-1.14","Jpg2lIUMtp","5dd31f8e7f1bbf33942dfcbf","6617fad957f7c6a12ea16e26","6622cf6e292d6e4f661088e5","image grid","q","","","","","Phylogenetic_Distractor_Threat_target","2500","ongrid","q","2","Phylogenetic","true","experimental"
"","null","html-keyboard-response","134","200478","0.0-11.0-2.14","Jpg2lIUMtp","5dd31f8e7f1bbf33942dfcbf","6617fad957f7c6a12ea16e26","6622cf6e292d6e4f661088e5","
    <div id=""grid-container"">
        <!-- Grid items will be dynamically added here -->
    </div>    ","null","","","","","","","","","","","",""
"","null","html-keyboard-response","135","201194","0.0-11.0-0.15","Jpg2lIUMtp","5dd31f8e7f1bbf33942dfcbf","6617fad957f7c6a12ea16e26","6622cf6e292d6e4f661088e5","fixation cross","null","","","","","","","","","","","",""
"","827","html-keyboard-response","136","202022","0.0-11.0-1.15","Jpg2lIUMtp","5dd31f8e7f1bbf33942dfcbf","6617fad957f7c6a12ea16e26","6622cf6e292d6e4f661088e5","image grid","q","","","","","Phylogenetic_Distractor_Threat_target","2500","ongrid","q","5","Phylogenetic","true","experimental"
"","null","html-keyboard-response","137","202177","0.0-11.0-2.15","Jpg2lIUMtp","5dd31f8e7f1bbf33942dfcbf","6617fad957f7c6a12ea16e26","6622cf6e292d6e4f661088e5","
    <div id=""grid-container"">
        <!-- Grid items will be dynamically added here -->
    </div>    ","null","","","","","","","","","","","",""
"","null","html-keyboard-response","138","202897","0.0-11.0-0.16","Jpg2lIUMtp","5dd31f8e7f1bbf33942dfcbf","6617fad957f7c6a12ea16e26","6622cf6e292d6e4f661088e5","fixation cross","null","","","","","","","","","","","",""
"","2076","html-keyboard-response","139","204974","0.0-11.0-1.16","Jpg2lIUMtp","5dd31f8e7f1bbf33942dfcbf","6617fad957f7c6a12ea16e26","6622cf6e292d6e4f661088e5","image grid"," ","","","","","Phylogenetic_Distractor_notarget","2500","ongrid"," ","1","Phylogenetic","true","experimental"
"","null","html-keyboard-response","140","205127","0.0-11.0-2.16","Jpg2lIUMtp","5dd31f8e7f1bbf33942dfcbf","6617fad957f7c6a12ea16e26","6622cf6e292d6e4f661088e5","
    <div id=""grid-container"">
        <!-- Grid items will be dynamically added here -->
    </div>    ","null","","","","","","","","","","","",""
"","null","html-keyboard-response","141","205840","0.0-11.0-0.17","Jpg2lIUMtp","5dd31f8e7f1bbf33942dfcbf","6617fad957f7c6a12ea16e26","6622cf6e292d6e4f661088e5","fixation cross","null","","","","","","","","","","","",""
"","917","html-keyboard-response","142","206757","0.0-11.0-1.17","Jpg2lIUMtp","5dd31f8e7f1bbf33942dfcbf","6617fad957f7c6a12ea16e26","6622cf6e292d6e4f661088e5","image grid","q","","","","","Phylogenetic_Distractor_Threat_target","2500","ongrid","q","7","Phylogenetic","true","experimental"
"","null","html-keyboard-response","143","206910","0.0-11.0-2.17","Jpg2lIUMtp","5dd31f8e7f1bbf33942dfcbf","6617fad957f7c6a12ea16e26","6622cf6e292d6e4f661088e5","
    <div id=""grid-container"">
        <!-- Grid items will be dynamically added here -->
    </div>    ","null","","","","","","","","","","","",""
"","null","html-keyboard-response","144","207624","0.0-11.0-0.18","Jpg2lIUMtp","5dd31f8e7f1bbf33942dfcbf","6617fad957f7c6a12ea16e26","6622cf6e292d6e4f661088e5","fixation cross","null","","","","","","","","","","","",""
"","940","html-keyboard-response","145","208564","0.0-11.0-1.18","Jpg2lIUMtp","5dd31f8e7f1bbf33942dfcbf","6617fad957f7c6a12ea16e26","6622cf6e292d6e4f661088e5","image grid","p","","","","","Phylogenetic_Distractor_Nonthreat_target","2500","ongrid","p","2","Phylogenetic","true","experimental"
"","null","html-keyboard-response","146","208718","0.0-11.0-2.18","Jpg2lIUMtp","5dd31f8e7f1bbf33942dfcbf","6617fad957f7c6a12ea16e26","6622cf6e292d6e4f661088e5","
    <div id=""grid-container"">
        <!-- Grid items will be dynamically added here -->
    </div>    ","null","","","","","","","","","","","",""
"","null","html-keyboard-response","147","209437","0.0-11.0-0.19","Jpg2lIUMtp","5dd31f8e7f1bbf33942dfcbf","6617fad957f7c6a12ea16e26","6622cf6e292d6e4f661088e5","fixation cross","null","","","","","","","","","","","",""
"","1736","html-keyboard-response","148","211173","0.0-11.0-1.19","Jpg2lIUMtp","5dd31f8e7f1bbf33942dfcbf","6617fad957f7c6a12ea16e26","6622cf6e292d6e4f661088e5","image grid","p","","","","","Phylogenetic_Distractor_Nonthreat_target","2500","ongrid","p","4","Phylogenetic","true","experimental"
"","null","html-keyboard-response","149","211326","0.0-11.0-2.19","Jpg2lIUMtp","5dd31f8e7f1bbf33942dfcbf","6617fad957f7c6a12ea16e26","6622cf6e292d6e4f661088e5","
    <div id=""grid-container"">
        <!-- Grid items will be dynamically added here -->
    </div>    ","null","","","","","","","","","","","",""
"","null","html-keyboard-response","150","212049","0.0-11.0-0.20","Jpg2lIUMtp","5dd31f8e7f1bbf33942dfcbf","6617fad957f7c6a12ea16e26","6622cf6e292d6e4f661088e5","fixation cross","null","","","","","","","","","","","",""
"","980","html-keyboard-response","151","213030","0.0-11.0-1.20","Jpg2lIUMtp","5dd31f8e7f1bbf33942dfcbf","6617fad957f7c6a12ea16e26","6622cf6e292d6e4f661088e5","image grid","p","","","","","Phylogenetic_Distractor_Nonthreat_target","2500","ongrid","p","7","Phylogenetic","true","experimental"
"","null","html-keyboard-response","152","213183","0.0-11.0-2.20","Jpg2lIUMtp","5dd31f8e7f1bbf33942dfcbf","6617fad957f7c6a12ea16e26","6622cf6e292d6e4f661088e5","
    <div id=""grid-container"">
        <!-- Grid items will be dynamically added here -->
    </div>    ","null","","","","","","","","","","","",""
"","null","html-keyboard-response","153","213906","0.0-11.0-0.21","Jpg2lIUMtp","5dd31f8e7f1bbf33942dfcbf","6617fad957f7c6a12ea16e26","6622cf6e292d6e4f661088e5","fixation cross","null","","","","","","","","","","","",""
"","1127","html-keyboard-response","154","215033","0.0-11.0-1.21","Jpg2lIUMtp","5dd31f8e7f1bbf33942dfcbf","6617fad957f7c6a12ea16e26","6622cf6e292d6e4f661088e5","image grid","p","","","","","Phylogenetic_Distractor_Nonthreat_target","2500","ongrid","p","1","Phylogenetic","true","experimental"
"","null","html-keyboard-response","155","215189","0.0-11.0-2.21","Jpg2lIUMtp","5dd31f8e7f1bbf33942dfcbf","6617fad957f7c6a12ea16e26","6622cf6e292d6e4f661088e5","
    <div id=""grid-container"">
        <!-- Grid items will be dynamically added here -->
    </div>    ","null","","","","","","","","","","","",""
"","null","html-keyboard-response","156","215905","0.0-11.0-0.22","Jpg2lIUMtp","5dd31f8e7f1bbf33942dfcbf","6617fad957f7c6a12ea16e26","6622cf6e292d6e4f661088e5","fixation cross","null","","","","","","","","","","","",""
"","1064","html-keyboard-response","157","216970","0.0-11.0-1.22","Jpg2lIUMtp","5dd31f8e7f1bbf33942dfcbf","6617fad957f7c6a12ea16e26","6622cf6e292d6e4f661088e5","image grid","p","","","","","Phylogenetic_Distractor_Nonthreat_target","2500","ongrid","p","1","Phylogenetic","true","experimental"
"","null","html-keyboard-response","158","217131","0.0-11.0-2.22","Jpg2lIUMtp","5dd31f8e7f1bbf33942dfcbf","6617fad957f7c6a12ea16e26","6622cf6e292d6e4f661088e5","
    <div id=""grid-container"">
        <!-- Grid items will be dynamically added here -->
    </div>    ","null","","","","","","","","","","","",""
"","null","html-keyboard-response","159","217839","0.0-11.0-0.23","Jpg2lIUMtp","5dd31f8e7f1bbf33942dfcbf","6617fad957f7c6a12ea16e26","6622cf6e292d6e4f661088e5","fixation cross","null","","","","","","","","","","","",""
"","1242","html-keyboard-response","160","219081","0.0-11.0-1.23","Jpg2lIUMtp","5dd31f8e7f1bbf33942dfcbf","6617fad957f7c6a12ea16e26","6622cf6e292d6e4f661088e5","image grid","p","","","","","Phylogenetic_Distractor_Nonthreat_target","2500","ongrid","p","2","Phylogenetic","true","experimental"
"","null","html-keyboard-response","161","219235","0.0-11.0-2.23","Jpg2lIUMtp","5dd31f8e7f1bbf33942dfcbf","6617fad957f7c6a12ea16e26","6622cf6e292d6e4f661088e5","
    <div id=""grid-container"">
        <!-- Grid items will be dynamically added here -->
    </div>    ","null","","","","","","","","","","","",""
"","null","html-keyboard-response","162","219949","0.0-11.0-0.24","Jpg2lIUMtp","5dd31f8e7f1bbf33942dfcbf","6617fad957f7c6a12ea16e26","6622cf6e292d6e4f661088e5","fixation cross","null","","","","","","","","","","","",""
"","915","html-keyboard-response","163","220865","0.0-11.0-1.24","Jpg2lIUMtp","5dd31f8e7f1bbf33942dfcbf","6617fad957f7c6a12ea16e26","6622cf6e292d6e4f661088e5","image grid","q","","","","","Phylogenetic_Distractor_Threat_target","2500","ongrid","q","6","Phylogenetic","true","experimental"
"","null","html-keyboard-response","164","221031","0.0-11.0-2.24","Jpg2lIUMtp","5dd31f8e7f1bbf33942dfcbf","6617fad957f7c6a12ea16e26","6622cf6e292d6e4f661088e5","
    <div id=""grid-container"">
        <!-- Grid items will be dynamically added here -->
    </div>    ","null","","","","","","","","","","","",""
"","null","html-keyboard-response","165","221759","0.0-11.0-0.25","Jpg2lIUMtp","5dd31f8e7f1bbf33942dfcbf","6617fad957f7c6a12ea16e26","6622cf6e292d6e4f661088e5","fixation cross","null","","","","","","","","","","","",""
"","865","html-keyboard-response","166","222624","0.0-11.0-1.25","Jpg2lIUMtp","5dd31f8e7f1bbf33942dfcbf","6617fad957f7c6a12ea16e26","6622cf6e292d6e4f661088e5","image grid","p","","","","","Phylogenetic_Distractor_Nonthreat_target","2500","ongrid","p","2","Phylogenetic","true","experimental"
"","null","html-keyboard-response","167","222783","0.0-11.0-2.25","Jpg2lIUMtp","5dd31f8e7f1bbf33942dfcbf","6617fad957f7c6a12ea16e26","6622cf6e292d6e4f661088e5","
    <div id=""grid-container"">
        <!-- Grid items will be dynamically added here -->
    </div>    ","null","","","","","","","","","","","",""
"","null","html-keyboard-response","168","223509","0.0-11.0-0.26","Jpg2lIUMtp","5dd31f8e7f1bbf33942dfcbf","6617fad957f7c6a12ea16e26","6622cf6e292d6e4f661088e5","fixation cross","null","","","","","","","","","","","",""
"","2068","html-keyboard-response","169","225577","0.0-11.0-1.26","Jpg2lIUMtp","5dd31f8e7f1bbf33942dfcbf","6617fad957f7c6a12ea16e26","6622cf6e292d6e4f661088e5","image grid","p","","","","","Phylogenetic_Distractor_Nonthreat_target","2500","ongrid","p","6","Phylogenetic","true","experimental"
"","null","html-keyboard-response","170","225735","0.0-11.0-2.26","Jpg2lIUMtp","5dd31f8e7f1bbf33942dfcbf","6617fad957f7c6a12ea16e26","6622cf6e292d6e4f661088e5","
    <div id=""grid-container"">
        <!-- Grid items will be dynamically added here -->
    </div>    ","null","","","","","","","","","","","",""
"","null","html-keyboard-response","171","226448","0.0-11.0-0.27","Jpg2lIUMtp","5dd31f8e7f1bbf33942dfcbf","6617fad957f7c6a12ea16e26","6622cf6e292d6e4f661088e5","fixation cross","null","","","","","","","","","","","",""
"","1063","html-keyboard-response","172","227512","0.0-11.0-1.27","Jpg2lIUMtp","5dd31f8e7f1bbf33942dfcbf","6617fad957f7c6a12ea16e26","6622cf6e292d6e4f661088e5","image grid","q","","","","","Phylogenetic_Distractor_Threat_target","2500","ongrid","q","3","Phylogenetic","true","experimental"
"","null","html-keyboard-response","173","227669","0.0-11.0-2.27","Jpg2lIUMtp","5dd31f8e7f1bbf33942dfcbf","6617fad957f7c6a12ea16e26","6622cf6e292d6e4f661088e5","
    <div id=""grid-container"">
        <!-- Grid items will be dynamically added here -->
    </div>    ","null","","","","","","","","","","","",""
"","null","html-keyboard-response","174","228382","0.0-11.0-0.28","Jpg2lIUMtp","5dd31f8e7f1bbf33942dfcbf","6617fad957f7c6a12ea16e26","6622cf6e292d6e4f661088e5","fixation cross","null","","","","","","","","","","","",""
"","890","html-keyboard-response","175","229273","0.0-11.0-1.28","Jpg2lIUMtp","5dd31f8e7f1bbf33942dfcbf","6617fad957f7c6a12ea16e26","6622cf6e292d6e4f661088e5","image grid","q","","","","","Phylogenetic_Distractor_Threat_target","2500","ongrid","q","3","Phylogenetic","true","experimental"
"","null","html-keyboard-response","176","229433","0.0-11.0-2.28","Jpg2lIUMtp","5dd31f8e7f1bbf33942dfcbf","6617fad957f7c6a12ea16e26","6622cf6e292d6e4f661088e5","
    <div id=""grid-container"">
        <!-- Grid items will be dynamically added here -->
    </div>    ","null","","","","","","","","","","","",""
"","null","html-keyboard-response","177","230142","0.0-11.0-0.29","Jpg2lIUMtp","5dd31f8e7f1bbf33942dfcbf","6617fad957f7c6a12ea16e26","6622cf6e292d6e4f661088e5","fixation cross","null","","","","","","","","","","","",""
"","786","html-keyboard-response","178","230929","0.0-11.0-1.29","Jpg2lIUMtp","5dd31f8e7f1bbf33942dfcbf","6617fad957f7c6a12ea16e26","6622cf6e292d6e4f661088e5","image grid","q","","","","","Phylogenetic_Distractor_Threat_target","2500","ongrid","q","5","Phylogenetic","true","experimental"
"","null","html-keyboard-response","179","231085","0.0-11.0-2.29","Jpg2lIUMtp","5dd31f8e7f1bbf33942dfcbf","6617fad957f7c6a12ea16e26","6622cf6e292d6e4f661088e5","
    <div id=""grid-container"">
        <!-- Grid items will be dynamically added here -->
    </div>    ","null","","","","","","","","","","","",""
"","null","html-keyboard-response","180","231800","0.0-11.0-0.30","Jpg2lIUMtp","5dd31f8e7f1bbf33942dfcbf","6617fad957f7c6a12ea16e26","6622cf6e292d6e4f661088e5","fixation cross","null","","","","","","","","","","","",""
"","593","html-keyboard-response","181","232392","0.0-11.0-1.30","Jpg2lIUMtp","5dd31f8e7f1bbf33942dfcbf","6617fad957f7c6a12ea16e26","6622cf6e292d6e4f661088e5","image grid","q","","","","","Phylogenetic_Distractor_Threat_target","2500","ongrid","q","5","Phylogenetic","true","experimental"
"","null","html-keyboard-response","182","232543","0.0-11.0-2.30","Jpg2lIUMtp","5dd31f8e7f1bbf33942dfcbf","6617fad957f7c6a12ea16e26","6622cf6e292d6e4f661088e5","
    <div id=""grid-container"">
        <!-- Grid items will be dynamically added here -->
    </div>    ","null","","","","","","","","","","","",""
"","null","html-keyboard-response","183","233267","0.0-11.0-0.31","Jpg2lIUMtp","5dd31f8e7f1bbf33942dfcbf","6617fad957f7c6a12ea16e26","6622cf6e292d6e4f661088e5","fixation cross","null","","","","","","","","","","","",""
"","1477","html-keyboard-response","184","234744","0.0-11.0-1.31","Jpg2lIUMtp","5dd31f8e7f1bbf33942dfcbf","6617fad957f7c6a12ea16e26","6622cf6e292d6e4f661088e5","image grid"," ","","","","","Phylogenetic_Distractor_notarget","2500","ongrid"," ","9","Phylogenetic","true","experimental"
"","null","html-keyboard-response","185","234910","0.0-11.0-2.31","Jpg2lIUMtp","5dd31f8e7f1bbf33942dfcbf","6617fad957f7c6a12ea16e26","6622cf6e292d6e4f661088e5","
    <div id=""grid-container"">
        <!-- Grid items will be dynamically added here -->
    </div>    ","null","","","","","","","","","","","",""
"","null","html-keyboard-response","186","235624","0.0-11.0-0.32","Jpg2lIUMtp","5dd31f8e7f1bbf33942dfcbf","6617fad957f7c6a12ea16e26","6622cf6e292d6e4f661088e5","fixation cross","null","","","","","","","","","","","",""
"","1169","html-keyboard-response","187","236793","0.0-11.0-1.32","Jpg2lIUMtp","5dd31f8e7f1bbf33942dfcbf","6617fad957f7c6a12ea16e26","6622cf6e292d6e4f661088e5","image grid","p","","","","","Phylogenetic_Distractor_Nonthreat_target","2500","ongrid","p","9","Phylogenetic","true","experimental"
"","null","html-keyboard-response","188","236948","0.0-11.0-2.32","Jpg2lIUMtp","5dd31f8e7f1bbf33942dfcbf","6617fad957f7c6a12ea16e26","6622cf6e292d6e4f661088e5","
    <div id=""grid-container"">
        <!-- Grid items will be dynamically added here -->
    </div>    ","null","","","","","","","","","","","",""
"","null","html-keyboard-response","189","237663","0.0-11.0-0.33","Jpg2lIUMtp","5dd31f8e7f1bbf33942dfcbf","6617fad957f7c6a12ea16e26","6622cf6e292d6e4f661088e5","fixation cross","null","","","","","","","","","","","",""
"","1106","html-keyboard-response","190","238769","0.0-11.0-1.33","Jpg2lIUMtp","5dd31f8e7f1bbf33942dfcbf","6617fad957f7c6a12ea16e26","6622cf6e292d6e4f661088e5","image grid","q","","","","","Phylogenetic_Distractor_Threat_target","2500","ongrid","q","1","Phylogenetic","true","experimental"
"","null","html-keyboard-response","191","238933","0.0-11.0-2.33","Jpg2lIUMtp","5dd31f8e7f1bbf33942dfcbf","6617fad957f7c6a12ea16e26","6622cf6e292d6e4f661088e5","
    <div id=""grid-container"">
        <!-- Grid items will be dynamically added here -->
    </div>    ","null","","","","","","","","","","","",""
"","null","html-keyboard-response","192","239643","0.0-11.0-0.34","Jpg2lIUMtp","5dd31f8e7f1bbf33942dfcbf","6617fad957f7c6a12ea16e26","6622cf6e292d6e4f661088e5","fixation cross","null","","","","","","","","","","","",""
"","854","html-keyboard-response","193","240497","0.0-11.0-1.34","Jpg2lIUMtp","5dd31f8e7f1bbf33942dfcbf","6617fad957f7c6a12ea16e26","6622cf6e292d6e4f661088e5","image grid","q","","","","","Phylogenetic_Distractor_Threat_target","2500","ongrid","q","6","Phylogenetic","true","experimental"
"","null","html-keyboard-response","194","240654","0.0-11.0-2.34","Jpg2lIUMtp","5dd31f8e7f1bbf33942dfcbf","6617fad957f7c6a12ea16e26","6622cf6e292d6e4f661088e5","
    <div id=""grid-container"">
        <!-- Grid items will be dynamically added here -->
    </div>    ","null","","","","","","","","","","","",""
"","null","html-keyboard-response","195","241371","0.0-11.0-0.35","Jpg2lIUMtp","5dd31f8e7f1bbf33942dfcbf","6617fad957f7c6a12ea16e26","6622cf6e292d6e4f661088e5","fixation cross","null","","","","","","","","","","","",""
"","854","html-keyboard-response","196","242225","0.0-11.0-1.35","Jpg2lIUMtp","5dd31f8e7f1bbf33942dfcbf","6617fad957f7c6a12ea16e26","6622cf6e292d6e4f661088e5","image grid","q","","","","","Phylogenetic_Distractor_Threat_target","2500","ongrid","q","2","Phylogenetic","true","experimental"
"","null","html-keyboard-response","197","242377","0.0-11.0-2.35","Jpg2lIUMtp","5dd31f8e7f1bbf33942dfcbf","6617fad957f7c6a12ea16e26","6622cf6e292d6e4f661088e5","
    <div id=""grid-container"">
        <!-- Grid items will be dynamically added here -->
    </div>    ","null","","","","","","","","","","","",""
"","null","html-keyboard-response","198","243087","0.0-11.0-0.36","Jpg2lIUMtp","5dd31f8e7f1bbf33942dfcbf","6617fad957f7c6a12ea16e26","6622cf6e292d6e4f661088e5","fixation cross","null","","","","","","","","","","","",""
"","930","html-keyboard-response","199","244017","0.0-11.0-1.36","Jpg2lIUMtp","5dd31f8e7f1bbf33942dfcbf","6617fad957f7c6a12ea16e26","6622cf6e292d6e4f661088e5","image grid","q","","","","","Phylogenetic_Distractor_Threat_target","2500","ongrid","q","9","Phylogenetic","true","experimental"
"","null","html-keyboard-response","200","244176","0.0-11.0-2.36","Jpg2lIUMtp","5dd31f8e7f1bbf33942dfcbf","6617fad957f7c6a12ea16e26","6622cf6e292d6e4f661088e5","
    <div id=""grid-container"">
        <!-- Grid items will be dynamically added here -->
    </div>    ","null","","","","","","","","","","","",""
"","null","html-keyboard-response","201","244886","0.0-11.0-0.37","Jpg2lIUMtp","5dd31f8e7f1bbf33942dfcbf","6617fad957f7c6a12ea16e26","6622cf6e292d6e4f661088e5","fixation cross","null","","","","","","","","","","","",""
"","942","html-keyboard-response","202","245829","0.0-11.0-1.37","Jpg2lIUMtp","5dd31f8e7f1bbf33942dfcbf","6617fad957f7c6a12ea16e26","6622cf6e292d6e4f661088e5","image grid","p","","","","","Phylogenetic_Distractor_Nonthreat_target","2500","ongrid","p","1","Phylogenetic","true","experimental"
"","null","html-keyboard-response","203","245989","0.0-11.0-2.37","Jpg2lIUMtp","5dd31f8e7f1bbf33942dfcbf","6617fad957f7c6a12ea16e26","6622cf6e292d6e4f661088e5","
    <div id=""grid-container"">
        <!-- Grid items will be dynamically added here -->
    </div>    ","null","","","","","","","","","","","",""
"","null","html-keyboard-response","204","246719","0.0-11.0-0.38","Jpg2lIUMtp","5dd31f8e7f1bbf33942dfcbf","6617fad957f7c6a12ea16e26","6622cf6e292d6e4f661088e5","fixation cross","null","","","","","","","","","","","",""
"","1238","html-keyboard-response","205","247957","0.0-11.0-1.38","Jpg2lIUMtp","5dd31f8e7f1bbf33942dfcbf","6617fad957f7c6a12ea16e26","6622cf6e292d6e4f661088e5","image grid","p","","","","","Phylogenetic_Distractor_Nonthreat_target","2500","ongrid","p","9","Phylogenetic","true","experimental"
"","null","html-keyboard-response","206","248114","0.0-11.0-2.38","Jpg2lIUMtp","5dd31f8e7f1bbf33942dfcbf","6617fad957f7c6a12ea16e26","6622cf6e292d6e4f661088e5","
    <div id=""grid-container"">
        <!-- Grid items will be dynamically added here -->
    </div>    ","null","","","","","","","","","","","",""
"","null","html-keyboard-response","207","248826","0.0-11.0-0.39","Jpg2lIUMtp","5dd31f8e7f1bbf33942dfcbf","6617fad957f7c6a12ea16e26","6622cf6e292d6e4f661088e5","fixation cross","null","","","","","","","","","","","",""
"","796","html-keyboard-response","208","249622","0.0-11.0-1.39","Jpg2lIUMtp","5dd31f8e7f1bbf33942dfcbf","6617fad957f7c6a12ea16e26","6622cf6e292d6e4f661088e5","image grid","p","","","","","Phylogenetic_Distractor_Nonthreat_target","2500","ongrid","p","9","Phylogenetic","true","experimental"
"","null","html-keyboard-response","209","249784","0.0-11.0-2.39","Jpg2lIUMtp","5dd31f8e7f1bbf33942dfcbf","6617fad957f7c6a12ea16e26","6622cf6e292d6e4f661088e5","
    <div id=""grid-container"">
        <!-- Grid items will be dynamically added here -->
    </div>    ","null","","","","","","","","","","","",""
"","3550","html-keyboard-response","210","253572","0.0-12.0","Jpg2lIUMtp","5dd31f8e7f1bbf33942dfcbf","6617fad957f7c6a12ea16e26","6622cf6e292d6e4f661088e5","break screen"," ","","","","","","","","","","","",""
"","null","html-keyboard-response","211","256093","0.0-13.0-0.0","Jpg2lIUMtp","5dd31f8e7f1bbf33942dfcbf","6617fad957f7c6a12ea16e26","6622cf6e292d6e4f661088e5","fixation cross","null","","","","","","","","","","","",""
"","null","html-keyboard-response","212","256899","0.0-13.0-1.0","Jpg2lIUMtp","5dd31f8e7f1bbf33942dfcbf","6617fad957f7c6a12ea16e26","6622cf6e292d6e4f661088e5","
        <div id=""grid-container"">
        <!-- Grid items will be dynamically added here -->
    </div>    ","null","","","","","","","","","","","",""
"","3912","html-keyboard-response","213","260012","0.0-13.0-2.0","Jpg2lIUMtp","5dd31f8e7f1bbf33942dfcbf","6617fad957f7c6a12ea16e26","6622cf6e292d6e4f661088e5","mask grid"," ","","","","","Ontogenetic_Distractor_Threat_target","800","onmask","q","4","Ontogenetic","false","experimental"
"","134","html-keyboard-response","214","260734","0.0-13.0-0.1","Jpg2lIUMtp","5dd31f8e7f1bbf33942dfcbf","6617fad957f7c6a12ea16e26","6622cf6e292d6e4f661088e5","fixation cross","p","","","","","","","","","","","",""
"","null","html-keyboard-response","215","261539","0.0-13.0-1.1","Jpg2lIUMtp","5dd31f8e7f1bbf33942dfcbf","6617fad957f7c6a12ea16e26","6622cf6e292d6e4f661088e5","
        <div id=""grid-container"">
        <!-- Grid items will be dynamically added here -->
    </div>    ","null","","","","","","","","","","","",""
"","2665","html-keyboard-response","216","263405","0.0-13.0-2.1","Jpg2lIUMtp","5dd31f8e7f1bbf33942dfcbf","6617fad957f7c6a12ea16e26","6622cf6e292d6e4f661088e5","mask grid"," ","","","","","Ontogenetic_Distractor_Nonthreat_target","800","onmask","p","3","Ontogenetic","false","experimental"
"","null","html-keyboard-response","217","264122","0.0-13.0-0.2","Jpg2lIUMtp","5dd31f8e7f1bbf33942dfcbf","6617fad957f7c6a12ea16e26","6622cf6e292d6e4f661088e5","fixation cross","null","","","","","","","","","","","",""
"","null","html-keyboard-response","218","264936","0.0-13.0-1.2","Jpg2lIUMtp","5dd31f8e7f1bbf33942dfcbf","6617fad957f7c6a12ea16e26","6622cf6e292d6e4f661088e5","
        <div id=""grid-container"">
        <!-- Grid items will be dynamically added here -->
    </div>    ","null","","","","","","","","","","","",""
"","1115","html-keyboard-response","219","265252","0.0-13.0-2.2","Jpg2lIUMtp","5dd31f8e7f1bbf33942dfcbf","6617fad957f7c6a12ea16e26","6622cf6e292d6e4f661088e5","mask grid","p","","","","","Ontogenetic_Distractor_Nonthreat_target","800","onmask","p","5","Ontogenetic","true","experimental"
"","null","html-keyboard-response","220","265972","0.0-13.0-0.3","Jpg2lIUMtp","5dd31f8e7f1bbf33942dfcbf","6617fad957f7c6a12ea16e26","6622cf6e292d6e4f661088e5","fixation cross","null","","","","","","","","","","","",""
"","null","html-keyboard-response","221","266781","0.0-13.0-1.3","Jpg2lIUMtp","5dd31f8e7f1bbf33942dfcbf","6617fad957f7c6a12ea16e26","6622cf6e292d6e4f661088e5","
        <div id=""grid-container"">
        <!-- Grid items will be dynamically added here -->
    </div>    ","null","","","","","","","","","","","",""
"","1160","html-keyboard-response","222","267141","0.0-13.0-2.3","Jpg2lIUMtp","5dd31f8e7f1bbf33942dfcbf","6617fad957f7c6a12ea16e26","6622cf6e292d6e4f661088e5","mask grid","p","","","","","Ontogenetic_Distractor_Nonthreat_target","800","onmask","p","2","Ontogenetic","true","experimental"
"","null","html-keyboard-response","223","267865","0.0-13.0-0.4","Jpg2lIUMtp","5dd31f8e7f1bbf33942dfcbf","6617fad957f7c6a12ea16e26","6622cf6e292d6e4f661088e5","fixation cross","null","","","","","","","","","","","",""
"","null","html-keyboard-response","224","268671","0.0-13.0-1.4","Jpg2lIUMtp","5dd31f8e7f1bbf33942dfcbf","6617fad957f7c6a12ea16e26","6622cf6e292d6e4f661088e5","
        <div id=""grid-container"">
        <!-- Grid items will be dynamically added here -->
    </div>    ","null","","","","","","","","","","","",""
"","902","html-keyboard-response","225","268773","0.0-13.0-2.4","Jpg2lIUMtp","5dd31f8e7f1bbf33942dfcbf","6617fad957f7c6a12ea16e26","6622cf6e292d6e4f661088e5","mask grid","p","","","","","Ontogenetic_Distractor_Nonthreat_target","800","onmask","p","5","Ontogenetic","true","experimental"
"","null","html-keyboard-response","226","269492","0.0-13.0-0.5","Jpg2lIUMtp","5dd31f8e7f1bbf33942dfcbf","6617fad957f7c6a12ea16e26","6622cf6e292d6e4f661088e5","fixation cross","null","","","","","","","","","","","",""
"","null","html-keyboard-response","227","270308","0.0-13.0-1.5","Jpg2lIUMtp","5dd31f8e7f1bbf33942dfcbf","6617fad957f7c6a12ea16e26","6622cf6e292d6e4f661088e5","
        <div id=""grid-container"">
        <!-- Grid items will be dynamically added here -->
    </div>    ","null","","","","","","","","","","","",""
"","808","html-keyboard-response","228","270316","0.0-13.0-2.5","Jpg2lIUMtp","5dd31f8e7f1bbf33942dfcbf","6617fad957f7c6a12ea16e26","6622cf6e292d6e4f661088e5","mask grid","q","","","","","Ontogenetic_Distractor_Threat_target","800","onmask","q","5","Ontogenetic","true","experimental"
"","null","html-keyboard-response","229","271034","0.0-13.0-0.6","Jpg2lIUMtp","5dd31f8e7f1bbf33942dfcbf","6617fad957f7c6a12ea16e26","6622cf6e292d6e4f661088e5","fixation cross","null","","","","","","","","","","","",""
"","null","html-keyboard-response","230","271842","0.0-13.0-1.6","Jpg2lIUMtp","5dd31f8e7f1bbf33942dfcbf","6617fad957f7c6a12ea16e26","6622cf6e292d6e4f661088e5","
        <div id=""grid-container"">
        <!-- Grid items will be dynamically added here -->
    </div>    ","null","","","","","","","","","","","",""
"","895","html-keyboard-response","231","271938","0.0-13.0-2.6","Jpg2lIUMtp","5dd31f8e7f1bbf33942dfcbf","6617fad957f7c6a12ea16e26","6622cf6e292d6e4f661088e5","mask grid","q","","","","","Ontogenetic_Distractor_Threat_target","800","onmask","q","7","Ontogenetic","true","experimental"
"","null","html-keyboard-response","232","272663","0.0-13.0-0.7","Jpg2lIUMtp","5dd31f8e7f1bbf33942dfcbf","6617fad957f7c6a12ea16e26","6622cf6e292d6e4f661088e5","fixation cross","null","","","","","","","","","","","",""
"","710","html-keyboard-response","233","273373","0.0-13.0-1.7","Jpg2lIUMtp","5dd31f8e7f1bbf33942dfcbf","6617fad957f7c6a12ea16e26","6622cf6e292d6e4f661088e5","image grid","q","","","","","Ontogenetic_Distractor_Threat_target","800","ongrid","q","1","Ontogenetic","true","experimental"
"","null","html-keyboard-response","234","273533","0.0-13.0-2.7","Jpg2lIUMtp","5dd31f8e7f1bbf33942dfcbf","6617fad957f7c6a12ea16e26","6622cf6e292d6e4f661088e5","
    <div id=""grid-container"">
        <!-- Grid items will be dynamically added here -->
    </div>    ","null","","","","","","","","","","","",""
"","null","html-keyboard-response","235","274255","0.0-13.0-0.8","Jpg2lIUMtp","5dd31f8e7f1bbf33942dfcbf","6617fad957f7c6a12ea16e26","6622cf6e292d6e4f661088e5","fixation cross","null","","","","","","","","","","","",""
"","734","html-keyboard-response","236","274989","0.0-13.0-1.8","Jpg2lIUMtp","5dd31f8e7f1bbf33942dfcbf","6617fad957f7c6a12ea16e26","6622cf6e292d6e4f661088e5","image grid","q","","","","","Ontogenetic_Distractor_Threat_target","800","ongrid","q","5","Ontogenetic","true","experimental"
"","null","html-keyboard-response","237","275148","0.0-13.0-2.8","Jpg2lIUMtp","5dd31f8e7f1bbf33942dfcbf","6617fad957f7c6a12ea16e26","6622cf6e292d6e4f661088e5","
    <div id=""grid-container"">
        <!-- Grid items will be dynamically added here -->
    </div>    ","null","","","","","","","","","","","",""
"","null","html-keyboard-response","238","275862","0.0-13.0-0.9","Jpg2lIUMtp","5dd31f8e7f1bbf33942dfcbf","6617fad957f7c6a12ea16e26","6622cf6e292d6e4f661088e5","fixation cross","null","","","","","","","","","","","",""
"","null","html-keyboard-response","239","276676","0.0-13.0-1.9","Jpg2lIUMtp","5dd31f8e7f1bbf33942dfcbf","6617fad957f7c6a12ea16e26","6622cf6e292d6e4f661088e5","
        <div id=""grid-container"">
        <!-- Grid items will be dynamically added here -->
    </div>    ","null","","","","","","","","","","","",""
"","808","html-keyboard-response","240","276685","0.0-13.0-2.9","Jpg2lIUMtp","5dd31f8e7f1bbf33942dfcbf","6617fad957f7c6a12ea16e26","6622cf6e292d6e4f661088e5","mask grid","p","","","","","Ontogenetic_Distractor_Nonthreat_target","800","onmask","p","7","Ontogenetic","true","experimental"
"","null","html-keyboard-response","241","277408","0.0-13.0-0.10","Jpg2lIUMtp","5dd31f8e7f1bbf33942dfcbf","6617fad957f7c6a12ea16e26","6622cf6e292d6e4f661088e5","fixation cross","null","","","","","","","","","","","",""
"","584","html-keyboard-response","242","277993","0.0-13.0-1.10","Jpg2lIUMtp","5dd31f8e7f1bbf33942dfcbf","6617fad957f7c6a12ea16e26","6622cf6e292d6e4f661088e5","image grid","p","","","","","Ontogenetic_Distractor_Nonthreat_target","800","ongrid","p","1","Ontogenetic","true","experimental"
"","null","html-keyboard-response","243","278155","0.0-13.0-2.10","Jpg2lIUMtp","5dd31f8e7f1bbf33942dfcbf","6617fad957f7c6a12ea16e26","6622cf6e292d6e4f661088e5","
    <div id=""grid-container"">
        <!-- Grid items will be dynamically added here -->
    </div>    ","null","","","","","","","","","","","",""
"","null","html-keyboard-response","244","278874","0.0-13.0-0.11","Jpg2lIUMtp","5dd31f8e7f1bbf33942dfcbf","6617fad957f7c6a12ea16e26","6622cf6e292d6e4f661088e5","fixation cross","null","","","","","","","","","","","",""
"","686","html-keyboard-response","245","279561","0.0-13.0-1.11","Jpg2lIUMtp","5dd31f8e7f1bbf33942dfcbf","6617fad957f7c6a12ea16e26","6622cf6e292d6e4f661088e5","image grid","q","","","","","Ontogenetic_Distractor_Threat_target","800","ongrid","q","3","Ontogenetic","true","experimental"
"","null","html-keyboard-response","246","279718","0.0-13.0-2.11","Jpg2lIUMtp","5dd31f8e7f1bbf33942dfcbf","6617fad957f7c6a12ea16e26","6622cf6e292d6e4f661088e5","
    <div id=""grid-container"">
        <!-- Grid items will be dynamically added here -->
    </div>    ","null","","","","","","","","","","","",""
"","null","html-keyboard-response","247","280445","0.0-13.0-0.12","Jpg2lIUMtp","5dd31f8e7f1bbf33942dfcbf","6617fad957f7c6a12ea16e26","6622cf6e292d6e4f661088e5","fixation cross","null","","","","","","","","","","","",""
"","null","html-keyboard-response","248","281251","0.0-13.0-1.12","Jpg2lIUMtp","5dd31f8e7f1bbf33942dfcbf","6617fad957f7c6a12ea16e26","6622cf6e292d6e4f661088e5","
        <div id=""grid-container"">
        <!-- Grid items will be dynamically added here -->
    </div>    ","null","","","","","","","","","","","",""
"","1534","html-keyboard-response","249","281986","0.0-13.0-2.12","Jpg2lIUMtp","5dd31f8e7f1bbf33942dfcbf","6617fad957f7c6a12ea16e26","6622cf6e292d6e4f661088e5","mask grid"," ","","","","","Ontogenetic_Distractor_notarget","800","onmask"," ","7","Ontogenetic","true","experimental"
"","null","html-keyboard-response","250","282709","0.0-13.0-0.13","Jpg2lIUMtp","5dd31f8e7f1bbf33942dfcbf","6617fad957f7c6a12ea16e26","6622cf6e292d6e4f661088e5","fixation cross","null","","","","","","","","","","","",""
"","773","html-keyboard-response","251","283482","0.0-13.0-1.13","Jpg2lIUMtp","5dd31f8e7f1bbf33942dfcbf","6617fad957f7c6a12ea16e26","6622cf6e292d6e4f661088e5","image grid","q","","","","","Ontogenetic_Distractor_Threat_target","800","ongrid","q","8","Ontogenetic","true","experimental"
"","null","html-keyboard-response","252","283636","0.0-13.0-2.13","Jpg2lIUMtp","5dd31f8e7f1bbf33942dfcbf","6617fad957f7c6a12ea16e26","6622cf6e292d6e4f661088e5","
    <div id=""grid-container"">
        <!-- Grid items will be dynamically added here -->
    </div>    ","null","","","","","","","","","","","",""
"","null","html-keyboard-response","253","284350","0.0-13.0-0.14","Jpg2lIUMtp","5dd31f8e7f1bbf33942dfcbf","6617fad957f7c6a12ea16e26","6622cf6e292d6e4f661088e5","fixation cross","null","","","","","","","","","","","",""
"","715","html-keyboard-response","254","285065","0.0-13.0-1.14","Jpg2lIUMtp","5dd31f8e7f1bbf33942dfcbf","6617fad957f7c6a12ea16e26","6622cf6e292d6e4f661088e5","image grid","p","","","","","Ontogenetic_Distractor_Nonthreat_target","800","ongrid","p","1","Ontogenetic","true","experimental"
"","null","html-keyboard-response","255","285218","0.0-13.0-2.14","Jpg2lIUMtp","5dd31f8e7f1bbf33942dfcbf","6617fad957f7c6a12ea16e26","6622cf6e292d6e4f661088e5","
    <div id=""grid-container"">
        <!-- Grid items will be dynamically added here -->
    </div>    ","null","","","","","","","","","","","",""
"","null","html-keyboard-response","256","285935","0.0-13.0-0.15","Jpg2lIUMtp","5dd31f8e7f1bbf33942dfcbf","6617fad957f7c6a12ea16e26","6622cf6e292d6e4f661088e5","fixation cross","null","","","","","","","","","","","",""
"","696","html-keyboard-response","257","286632","0.0-13.0-1.15","Jpg2lIUMtp","5dd31f8e7f1bbf33942dfcbf","6617fad957f7c6a12ea16e26","6622cf6e292d6e4f661088e5","image grid","p","","","","","Ontogenetic_Distractor_Nonthreat_target","800","ongrid","p","4","Ontogenetic","true","experimental"
"","null","html-keyboard-response","258","286788","0.0-13.0-2.15","Jpg2lIUMtp","5dd31f8e7f1bbf33942dfcbf","6617fad957f7c6a12ea16e26","6622cf6e292d6e4f661088e5","
    <div id=""grid-container"">
        <!-- Grid items will be dynamically added here -->
    </div>    ","null","","","","","","","","","","","",""
"","null","html-keyboard-response","259","287501","0.0-13.0-0.16","Jpg2lIUMtp","5dd31f8e7f1bbf33942dfcbf","6617fad957f7c6a12ea16e26","6622cf6e292d6e4f661088e5","fixation cross","null","","","","","","","","","","","",""
"","null","html-keyboard-response","260","288308","0.0-13.0-1.16","Jpg2lIUMtp","5dd31f8e7f1bbf33942dfcbf","6617fad957f7c6a12ea16e26","6622cf6e292d6e4f661088e5","
        <div id=""grid-container"">
        <!-- Grid items will be dynamically added here -->
    </div>    ","null","","","","","","","","","","","",""
"","1165","html-keyboard-response","261","288673","0.0-13.0-2.16","Jpg2lIUMtp","5dd31f8e7f1bbf33942dfcbf","6617fad957f7c6a12ea16e26","6622cf6e292d6e4f661088e5","mask grid"," ","","","","","Ontogenetic_Distractor_notarget","800","onmask"," ","8","Ontogenetic","true","experimental"
"","null","html-keyboard-response","262","289403","0.0-13.0-0.17","Jpg2lIUMtp","5dd31f8e7f1bbf33942dfcbf","6617fad957f7c6a12ea16e26","6622cf6e292d6e4f661088e5","fixation cross","null","","","","","","","","","","","",""
"","null","html-keyboard-response","263","290211","0.0-13.0-1.17","Jpg2lIUMtp","5dd31f8e7f1bbf33942dfcbf","6617fad957f7c6a12ea16e26","6622cf6e292d6e4f661088e5","
        <div id=""grid-container"">
        <!-- Grid items will be dynamically added here -->
    </div>    ","null","","","","","","","","","","","",""
"","886","html-keyboard-response","264","290298","0.0-13.0-2.17","Jpg2lIUMtp","5dd31f8e7f1bbf33942dfcbf","6617fad957f7c6a12ea16e26","6622cf6e292d6e4f661088e5","mask grid","q","","","","","Ontogenetic_Distractor_Threat_target","800","onmask","q","7","Ontogenetic","true","experimental"
"","null","html-keyboard-response","265","291016","0.0-13.0-0.18","Jpg2lIUMtp","5dd31f8e7f1bbf33942dfcbf","6617fad957f7c6a12ea16e26","6622cf6e292d6e4f661088e5","fixation cross","null","","","","","","","","","","","",""
"","720","html-keyboard-response","266","291736","0.0-13.0-1.18","Jpg2lIUMtp","5dd31f8e7f1bbf33942dfcbf","6617fad957f7c6a12ea16e26","6622cf6e292d6e4f661088e5","image grid","q","","","","","Ontogenetic_Distractor_Threat_target","800","ongrid","q","7","Ontogenetic","true","experimental"
"","null","html-keyboard-response","267","291892","0.0-13.0-2.18","Jpg2lIUMtp","5dd31f8e7f1bbf33942dfcbf","6617fad957f7c6a12ea16e26","6622cf6e292d6e4f661088e5","
    <div id=""grid-container"">
        <!-- Grid items will be dynamically added here -->
    </div>    ","null","","","","","","","","","","","",""
"","null","html-keyboard-response","268","292619","0.0-13.0-0.19","Jpg2lIUMtp","5dd31f8e7f1bbf33942dfcbf","6617fad957f7c6a12ea16e26","6622cf6e292d6e4f661088e5","fixation cross","null","","","","","","","","","","","",""
"","701","html-keyboard-response","269","293321","0.0-13.0-1.19","Jpg2lIUMtp","5dd31f8e7f1bbf33942dfcbf","6617fad957f7c6a12ea16e26","6622cf6e292d6e4f661088e5","image grid","q","","","","","Ontogenetic_Distractor_Threat_target","800","ongrid","q","7","Ontogenetic","true","experimental"
"","null","html-keyboard-response","270","293477","0.0-13.0-2.19","Jpg2lIUMtp","5dd31f8e7f1bbf33942dfcbf","6617fad957f7c6a12ea16e26","6622cf6e292d6e4f661088e5","
    <div id=""grid-container"">
        <!-- Grid items will be dynamically added here -->
    </div>    ","null","","","","","","","","","","","",""
"","null","html-keyboard-response","271","294184","0.0-13.0-0.20","Jpg2lIUMtp","5dd31f8e7f1bbf33942dfcbf","6617fad957f7c6a12ea16e26","6622cf6e292d6e4f661088e5","fixation cross","null","","","","","","","","","","","",""
"","639","html-keyboard-response","272","294824","0.0-13.0-1.20","Jpg2lIUMtp","5dd31f8e7f1bbf33942dfcbf","6617fad957f7c6a12ea16e26","6622cf6e292d6e4f661088e5","image grid","q","","","","","Ontogenetic_Distractor_Threat_target","800","ongrid","q","1","Ontogenetic","true","experimental"
"","null","html-keyboard-response","273","294989","0.0-13.0-2.20","Jpg2lIUMtp","5dd31f8e7f1bbf33942dfcbf","6617fad957f7c6a12ea16e26","6622cf6e292d6e4f661088e5","
    <div id=""grid-container"">
        <!-- Grid items will be dynamically added here -->
    </div>    ","null","","","","","","","","","","","",""
"","null","html-keyboard-response","274","295701","0.0-13.0-0.21","Jpg2lIUMtp","5dd31f8e7f1bbf33942dfcbf","6617fad957f7c6a12ea16e26","6622cf6e292d6e4f661088e5","fixation cross","null","","","","","","","","","","","",""
"","619","html-keyboard-response","275","296321","0.0-13.0-1.21","Jpg2lIUMtp","5dd31f8e7f1bbf33942dfcbf","6617fad957f7c6a12ea16e26","6622cf6e292d6e4f661088e5","image grid","q","","","","","Ontogenetic_Distractor_Threat_target","800","ongrid","q","4","Ontogenetic","true","experimental"
"","null","html-keyboard-response","276","296488","0.0-13.0-2.21","Jpg2lIUMtp","5dd31f8e7f1bbf33942dfcbf","6617fad957f7c6a12ea16e26","6622cf6e292d6e4f661088e5","
    <div id=""grid-container"">
        <!-- Grid items will be dynamically added here -->
    </div>    ","null","","","","","","","","","","","",""
"","null","html-keyboard-response","277","297205","0.0-13.0-0.22","Jpg2lIUMtp","5dd31f8e7f1bbf33942dfcbf","6617fad957f7c6a12ea16e26","6622cf6e292d6e4f661088e5","fixation cross","null","","","","","","","","","","","",""
"","null","html-keyboard-response","278","298009","0.0-13.0-1.22","Jpg2lIUMtp","5dd31f8e7f1bbf33942dfcbf","6617fad957f7c6a12ea16e26","6622cf6e292d6e4f661088e5","
        <div id=""grid-container"">
        <!-- Grid items will be dynamically added here -->
    </div>    ","null","","","","","","","","","","","",""
"","880","html-keyboard-response","279","298089","0.0-13.0-2.22","Jpg2lIUMtp","5dd31f8e7f1bbf33942dfcbf","6617fad957f7c6a12ea16e26","6622cf6e292d6e4f661088e5","mask grid","q","","","","","Ontogenetic_Distractor_Threat_target","800","onmask","q","6","Ontogenetic","true","experimental"
"","null","html-keyboard-response","280","298817","0.0-13.0-0.23","Jpg2lIUMtp","5dd31f8e7f1bbf33942dfcbf","6617fad957f7c6a12ea16e26","6622cf6e292d6e4f661088e5","fixation cross","null","","","","","","","","","","","",""
"","672","html-keyboard-response","281","299490","0.0-13.0-1.23","Jpg2lIUMtp","5dd31f8e7f1bbf33942dfcbf","6617fad957f7c6a12ea16e26","6622cf6e292d6e4f661088e5","image grid","q","","","","","Ontogenetic_Distractor_Threat_target","800","ongrid","q","4","Ontogenetic","true","experimental"
"","null","html-keyboard-response","282","299642","0.0-13.0-2.23","Jpg2lIUMtp","5dd31f8e7f1bbf33942dfcbf","6617fad957f7c6a12ea16e26","6622cf6e292d6e4f661088e5","
    <div id=""grid-container"">
        <!-- Grid items will be dynamically added here -->
    </div>    ","null","","","","","","","","","","","",""
"","null","html-keyboard-response","283","300357","0.0-13.0-0.24","Jpg2lIUMtp","5dd31f8e7f1bbf33942dfcbf","6617fad957f7c6a12ea16e26","6622cf6e292d6e4f661088e5","fixation cross","null","","","","","","","","","","","",""
"","null","html-keyboard-response","284","301174","0.0-13.0-1.24","Jpg2lIUMtp","5dd31f8e7f1bbf33942dfcbf","6617fad957f7c6a12ea16e26","6622cf6e292d6e4f661088e5","
        <div id=""grid-container"">
        <!-- Grid items will be dynamically added here -->
    </div>    ","null","","","","","","","","","","","",""
"","2198","html-keyboard-response","285","302572","0.0-13.0-2.24","Jpg2lIUMtp","5dd31f8e7f1bbf33942dfcbf","6617fad957f7c6a12ea16e26","6622cf6e292d6e4f661088e5","mask grid","q","","","","","Ontogenetic_Distractor_Threat_target","800","onmask","q","9","Ontogenetic","true","experimental"
"","null","html-keyboard-response","286","303290","0.0-13.0-0.25","Jpg2lIUMtp","5dd31f8e7f1bbf33942dfcbf","6617fad957f7c6a12ea16e26","6622cf6e292d6e4f661088e5","fixation cross","null","","","","","","","","","","","",""
"","776","html-keyboard-response","287","304066","0.0-13.0-1.25","Jpg2lIUMtp","5dd31f8e7f1bbf33942dfcbf","6617fad957f7c6a12ea16e26","6622cf6e292d6e4f661088e5","image grid","q","","","","","Ontogenetic_Distractor_Threat_target","800","ongrid","q","7","Ontogenetic","true","experimental"
"","null","html-keyboard-response","288","304225","0.0-13.0-2.25","Jpg2lIUMtp","5dd31f8e7f1bbf33942dfcbf","6617fad957f7c6a12ea16e26","6622cf6e292d6e4f661088e5","
    <div id=""grid-container"">
        <!-- Grid items will be dynamically added here -->
    </div>    ","null","","","","","","","","","","","",""
"","null","html-keyboard-response","289","304947","0.0-13.0-0.26","Jpg2lIUMtp","5dd31f8e7f1bbf33942dfcbf","6617fad957f7c6a12ea16e26","6622cf6e292d6e4f661088e5","fixation cross","null","","","","","","","","","","","",""
"","null","html-keyboard-response","290","305756","0.0-13.0-1.26","Jpg2lIUMtp","5dd31f8e7f1bbf33942dfcbf","6617fad957f7c6a12ea16e26","6622cf6e292d6e4f661088e5","
        <div id=""grid-container"">
        <!-- Grid items will be dynamically added here -->
    </div>    ","null","","","","","","","","","","","",""
"","940","html-keyboard-response","291","305896","0.0-13.0-2.26","Jpg2lIUMtp","5dd31f8e7f1bbf33942dfcbf","6617fad957f7c6a12ea16e26","6622cf6e292d6e4f661088e5","mask grid","q","","","","","Ontogenetic_Distractor_Threat_target","800","onmask","q","2","Ontogenetic","true","experimental"
"","null","html-keyboard-response","292","306611","0.0-13.0-0.27","Jpg2lIUMtp","5dd31f8e7f1bbf33942dfcbf","6617fad957f7c6a12ea16e26","6622cf6e292d6e4f661088e5","fixation cross","null","","","","","","","","","","","",""
"","null","html-keyboard-response","293","307424","0.0-13.0-1.27","Jpg2lIUMtp","5dd31f8e7f1bbf33942dfcbf","6617fad957f7c6a12ea16e26","6622cf6e292d6e4f661088e5","
        <div id=""grid-container"">
        <!-- Grid items will be dynamically added here -->
    </div>    ","null","","","","","","","","","","","",""
"","811","html-keyboard-response","294","307435","0.0-13.0-2.27","Jpg2lIUMtp","5dd31f8e7f1bbf33942dfcbf","6617fad957f7c6a12ea16e26","6622cf6e292d6e4f661088e5","mask grid","p","","","","","Ontogenetic_Distractor_Nonthreat_target","800","onmask","p","8","Ontogenetic","true","experimental"
"","null","html-keyboard-response","295","308156","0.0-13.0-0.28","Jpg2lIUMtp","5dd31f8e7f1bbf33942dfcbf","6617fad957f7c6a12ea16e26","6622cf6e292d6e4f661088e5","fixation cross","null","","","","","","","","","","","",""
"","524","html-keyboard-response","296","308680","0.0-13.0-1.28","Jpg2lIUMtp","5dd31f8e7f1bbf33942dfcbf","6617fad957f7c6a12ea16e26","6622cf6e292d6e4f661088e5","image grid","p","","","","","Ontogenetic_Distractor_Nonthreat_target","800","ongrid","p","2","Ontogenetic","true","experimental"
"","null","html-keyboard-response","297","308831","0.0-13.0-2.28","Jpg2lIUMtp","5dd31f8e7f1bbf33942dfcbf","6617fad957f7c6a12ea16e26","6622cf6e292d6e4f661088e5","
    <div id=""grid-container"">
        <!-- Grid items will be dynamically added here -->
    </div>    ","null","","","","","","","","","","","",""
"","null","html-keyboard-response","298","309558","0.0-13.0-0.29","Jpg2lIUMtp","5dd31f8e7f1bbf33942dfcbf","6617fad957f7c6a12ea16e26","6622cf6e292d6e4f661088e5","fixation cross","null","","","","","","","","","","","",""
"","null","html-keyboard-response","299","310373","0.0-13.0-1.29","Jpg2lIUMtp","5dd31f8e7f1bbf33942dfcbf","6617fad957f7c6a12ea16e26","6622cf6e292d6e4f661088e5","
        <div id=""grid-container"">
        <!-- Grid items will be dynamically added here -->
    </div>    ","null","","","","","","","","","","","",""
"","2179","html-keyboard-response","300","311753","0.0-13.0-2.29","Jpg2lIUMtp","5dd31f8e7f1bbf33942dfcbf","6617fad957f7c6a12ea16e26","6622cf6e292d6e4f661088e5","mask grid"," ","","","","","Ontogenetic_Distractor_Threat_target","800","onmask","q","5","Ontogenetic","false","experimental"
"","null","html-keyboard-response","301","312464","0.0-13.0-0.30","Jpg2lIUMtp","5dd31f8e7f1bbf33942dfcbf","6617fad957f7c6a12ea16e26","6622cf6e292d6e4f661088e5","fixation cross","null","","","","","","","","","","","",""
"","null","html-keyboard-response","302","313269","0.0-13.0-1.30","Jpg2lIUMtp","5dd31f8e7f1bbf33942dfcbf","6617fad957f7c6a12ea16e26","6622cf6e292d6e4f661088e5","
        <div id=""grid-container"">
        <!-- Grid items will be dynamically added here -->
    </div>    ","null","","","","","","","","","","","",""
"","904","html-keyboard-response","303","313373","0.0-13.0-2.30","Jpg2lIUMtp","5dd31f8e7f1bbf33942dfcbf","6617fad957f7c6a12ea16e26","6622cf6e292d6e4f661088e5","mask grid","p","","","","","Ontogenetic_Distractor_Nonthreat_target","800","onmask","p","5","Ontogenetic","true","experimental"
"","null","html-keyboard-response","304","314103","0.0-13.0-0.31","Jpg2lIUMtp","5dd31f8e7f1bbf33942dfcbf","6617fad957f7c6a12ea16e26","6622cf6e292d6e4f661088e5","fixation cross","null","","","","","","","","","","","",""
"","677","html-keyboard-response","305","314780","0.0-13.0-1.31","Jpg2lIUMtp","5dd31f8e7f1bbf33942dfcbf","6617fad957f7c6a12ea16e26","6622cf6e292d6e4f661088e5","image grid","p","","","","","Ontogenetic_Distractor_Nonthreat_target","800","ongrid","p","1","Ontogenetic","true","experimental"
"","null","html-keyboard-response","306","314932","0.0-13.0-2.31","Jpg2lIUMtp","5dd31f8e7f1bbf33942dfcbf","6617fad957f7c6a12ea16e26","6622cf6e292d6e4f661088e5","
    <div id=""grid-container"">
        <!-- Grid items will be dynamically added here -->
    </div>    ","null","","","","","","","","","","","",""
"","null","html-keyboard-response","307","315644","0.0-13.0-0.32","Jpg2lIUMtp","5dd31f8e7f1bbf33942dfcbf","6617fad957f7c6a12ea16e26","6622cf6e292d6e4f661088e5","fixation cross","null","","","","","","","","","","","",""
"","null","html-keyboard-response","308","316448","0.0-13.0-1.32","Jpg2lIUMtp","5dd31f8e7f1bbf33942dfcbf","6617fad957f7c6a12ea16e26","6622cf6e292d6e4f661088e5","
        <div id=""grid-container"">
        <!-- Grid items will be dynamically added here -->
    </div>    ","null","","","","","","","","","","","",""
"","1299","html-keyboard-response","309","316948","0.0-13.0-2.32","Jpg2lIUMtp","5dd31f8e7f1bbf33942dfcbf","6617fad957f7c6a12ea16e26","6622cf6e292d6e4f661088e5","mask grid"," ","","","","","Ontogenetic_Distractor_notarget","800","onmask"," ","7","Ontogenetic","true","experimental"
"","null","html-keyboard-response","310","317669","0.0-13.0-0.33","Jpg2lIUMtp","5dd31f8e7f1bbf33942dfcbf","6617fad957f7c6a12ea16e26","6622cf6e292d6e4f661088e5","fixation cross","null","","","","","","","","","","","",""
"","678","html-keyboard-response","311","318348","0.0-13.0-1.33","Jpg2lIUMtp","5dd31f8e7f1bbf33942dfcbf","6617fad957f7c6a12ea16e26","6622cf6e292d6e4f661088e5","image grid","p","","","","","Ontogenetic_Distractor_Nonthreat_target","800","ongrid","p","6","Ontogenetic","true","experimental"
"","null","html-keyboard-response","312","318501","0.0-13.0-2.33","Jpg2lIUMtp","5dd31f8e7f1bbf33942dfcbf","6617fad957f7c6a12ea16e26","6622cf6e292d6e4f661088e5","
    <div id=""grid-container"">
        <!-- Grid items will be dynamically added here -->
    </div>    ","null","","","","","","","","","","","",""
"","null","html-keyboard-response","313","319230","0.0-13.0-0.34","Jpg2lIUMtp","5dd31f8e7f1bbf33942dfcbf","6617fad957f7c6a12ea16e26","6622cf6e292d6e4f661088e5","fixation cross","null","","","","","","","","","","","",""
"","503","html-keyboard-response","314","319733","0.0-13.0-1.34","Jpg2lIUMtp","5dd31f8e7f1bbf33942dfcbf","6617fad957f7c6a12ea16e26","6622cf6e292d6e4f661088e5","image grid","p","","","","","Ontogenetic_Distractor_Nonthreat_target","800","ongrid","p","6","Ontogenetic","true","experimental"
"","null","html-keyboard-response","315","319891","0.0-13.0-2.34","Jpg2lIUMtp","5dd31f8e7f1bbf33942dfcbf","6617fad957f7c6a12ea16e26","6622cf6e292d6e4f661088e5","
    <div id=""grid-container"">
        <!-- Grid items will be dynamically added here -->
    </div>    ","null","","","","","","","","","","","",""
"","null","html-keyboard-response","316","320602","0.0-13.0-0.35","Jpg2lIUMtp","5dd31f8e7f1bbf33942dfcbf","6617fad957f7c6a12ea16e26","6622cf6e292d6e4f661088e5","fixation cross","null","","","","","","","","","","","",""
"","657","html-keyboard-response","317","321260","0.0-13.0-1.35","Jpg2lIUMtp","5dd31f8e7f1bbf33942dfcbf","6617fad957f7c6a12ea16e26","6622cf6e292d6e4f661088e5","image grid","p","","","","","Ontogenetic_Distractor_Nonthreat_target","800","ongrid","p","1","Ontogenetic","true","experimental"
"","null","html-keyboard-response","318","321419","0.0-13.0-2.35","Jpg2lIUMtp","5dd31f8e7f1bbf33942dfcbf","6617fad957f7c6a12ea16e26","6622cf6e292d6e4f661088e5","
    <div id=""grid-container"">
        <!-- Grid items will be dynamically added here -->
    </div>    ","null","","","","","","","","","","","",""
"","null","html-keyboard-response","319","322144","0.0-13.0-0.36","Jpg2lIUMtp","5dd31f8e7f1bbf33942dfcbf","6617fad957f7c6a12ea16e26","6622cf6e292d6e4f661088e5","fixation cross","null","","","","","","","","","","","",""
"","653","html-keyboard-response","320","322797","0.0-13.0-1.36","Jpg2lIUMtp","5dd31f8e7f1bbf33942dfcbf","6617fad957f7c6a12ea16e26","6622cf6e292d6e4f661088e5","image grid","p","","","","","Ontogenetic_Distractor_Nonthreat_target","800","ongrid","p","9","Ontogenetic","true","experimental"
"","null","html-keyboard-response","321","322949","0.0-13.0-2.36","Jpg2lIUMtp","5dd31f8e7f1bbf33942dfcbf","6617fad957f7c6a12ea16e26","6622cf6e292d6e4f661088e5","
    <div id=""grid-container"">
        <!-- Grid items will be dynamically added here -->
    </div>    ","null","","","","","","","","","","","",""
"","null","html-keyboard-response","322","323663","0.0-13.0-0.37","Jpg2lIUMtp","5dd31f8e7f1bbf33942dfcbf","6617fad957f7c6a12ea16e26","6622cf6e292d6e4f661088e5","fixation cross","null","","","","","","","","","","","",""
"","565","html-keyboard-response","323","324228","0.0-13.0-1.37","Jpg2lIUMtp","5dd31f8e7f1bbf33942dfcbf","6617fad957f7c6a12ea16e26","6622cf6e292d6e4f661088e5","image grid","p","","","","","Ontogenetic_Distractor_Nonthreat_target","800","ongrid","p","2","Ontogenetic","true","experimental"
"","null","html-keyboard-response","324","324380","0.0-13.0-2.37","Jpg2lIUMtp","5dd31f8e7f1bbf33942dfcbf","6617fad957f7c6a12ea16e26","6622cf6e292d6e4f661088e5","
    <div id=""grid-container"">
        <!-- Grid items will be dynamically added here -->
    </div>    ","null","","","","","","","","","","","",""
"","null","html-keyboard-response","325","325095","0.0-13.0-0.38","Jpg2lIUMtp","5dd31f8e7f1bbf33942dfcbf","6617fad957f7c6a12ea16e26","6622cf6e292d6e4f661088e5","fixation cross","null","","","","","","","","","","","",""
"","null","html-keyboard-response","326","325901","0.0-13.0-1.38","Jpg2lIUMtp","5dd31f8e7f1bbf33942dfcbf","6617fad957f7c6a12ea16e26","6622cf6e292d6e4f661088e5","
        <div id=""grid-container"">
        <!-- Grid items will be dynamically added here -->
    </div>    ","null","","","","","","","","","","","",""
"","1278","html-keyboard-response","327","326380","0.0-13.0-2.38","Jpg2lIUMtp","5dd31f8e7f1bbf33942dfcbf","6617fad957f7c6a12ea16e26","6622cf6e292d6e4f661088e5","mask grid"," ","","","","","Ontogenetic_Distractor_notarget","800","onmask"," ","7","Ontogenetic","true","experimental"
"","null","html-keyboard-response","328","327101","0.0-13.0-0.39","Jpg2lIUMtp","5dd31f8e7f1bbf33942dfcbf","6617fad957f7c6a12ea16e26","6622cf6e292d6e4f661088e5","fixation cross","null","","","","","","","","","","","",""
"","735","html-keyboard-response","329","327837","0.0-13.0-1.39","Jpg2lIUMtp","5dd31f8e7f1bbf33942dfcbf","6617fad957f7c6a12ea16e26","6622cf6e292d6e4f661088e5","image grid","p","","","","","Ontogenetic_Distractor_Nonthreat_target","800","ongrid","p","9","Ontogenetic","true","experimental"
"","null","html-keyboard-response","330","327999","0.0-13.0-2.39","Jpg2lIUMtp","5dd31f8e7f1bbf33942dfcbf","6617fad957f7c6a12ea16e26","6622cf6e292d6e4f661088e5","
    <div id=""grid-container"">
        <!-- Grid items will be dynamically added here -->
    </div>    ","null","","","","","","","","","","","",""
"","6547","html-keyboard-response","331","334749","0.0-14.0","Jpg2lIUMtp","5dd31f8e7f1bbf33942dfcbf","6617fad957f7c6a12ea16e26","6622cf6e292d6e4f661088e5","break screen"," ","","","","","","","","","","","",""
"","null","html-keyboard-response","332","337259","0.0-15.0-0.0","Jpg2lIUMtp","5dd31f8e7f1bbf33942dfcbf","6617fad957f7c6a12ea16e26","6622cf6e292d6e4f661088e5","fixation cross","null","","","","","","","","","","","",""
"","873","html-keyboard-response","333","338132","0.0-15.0-1.0","Jpg2lIUMtp","5dd31f8e7f1bbf33942dfcbf","6617fad957f7c6a12ea16e26","6622cf6e292d6e4f661088e5","image grid","q","","","","","Phylogenetic_Distractor_Threat_target","2500","ongrid","q","7","Phylogenetic","true","experimental"
"","null","html-keyboard-response","334","338293","0.0-15.0-2.0","Jpg2lIUMtp","5dd31f8e7f1bbf33942dfcbf","6617fad957f7c6a12ea16e26","6622cf6e292d6e4f661088e5","
    <div id=""grid-container"">
        <!-- Grid items will be dynamically added here -->
    </div>    ","null","","","","","","","","","","","",""
"","null","html-keyboard-response","335","339003","0.0-15.0-0.1","Jpg2lIUMtp","5dd31f8e7f1bbf33942dfcbf","6617fad957f7c6a12ea16e26","6622cf6e292d6e4f661088e5","fixation cross","null","","","","","","","","","","","",""
"","563","html-keyboard-response","336","339566","0.0-15.0-1.1","Jpg2lIUMtp","5dd31f8e7f1bbf33942dfcbf","6617fad957f7c6a12ea16e26","6622cf6e292d6e4f661088e5","image grid","q","","","","","Phylogenetic_Distractor_Threat_target","2500","ongrid","q","5","Phylogenetic","true","experimental"
"","null","html-keyboard-response","337","339719","0.0-15.0-2.1","Jpg2lIUMtp","5dd31f8e7f1bbf33942dfcbf","6617fad957f7c6a12ea16e26","6622cf6e292d6e4f661088e5","
    <div id=""grid-container"">
        <!-- Grid items will be dynamically added here -->
    </div>    ","null","","","","","","","","","","","",""
"","null","html-keyboard-response","338","340446","0.0-15.0-0.2","Jpg2lIUMtp","5dd31f8e7f1bbf33942dfcbf","6617fad957f7c6a12ea16e26","6622cf6e292d6e4f661088e5","fixation cross","null","","","","","","","","","","","",""
"","970","html-keyboard-response","339","341417","0.0-15.0-1.2","Jpg2lIUMtp","5dd31f8e7f1bbf33942dfcbf","6617fad957f7c6a12ea16e26","6622cf6e292d6e4f661088e5","image grid","p","","","","","Phylogenetic_Distractor_Nonthreat_target","2500","ongrid","p","8","Phylogenetic","true","experimental"
"","null","html-keyboard-response","340","341569","0.0-15.0-2.2","Jpg2lIUMtp","5dd31f8e7f1bbf33942dfcbf","6617fad957f7c6a12ea16e26","6622cf6e292d6e4f661088e5","
    <div id=""grid-container"">
        <!-- Grid items will be dynamically added here -->
    </div>    ","null","","","","","","","","","","","",""
"","null","html-keyboard-response","341","342284","0.0-15.0-0.3","Jpg2lIUMtp","5dd31f8e7f1bbf33942dfcbf","6617fad957f7c6a12ea16e26","6622cf6e292d6e4f661088e5","fixation cross","null","","","","","","","","","","","",""
"","740","html-keyboard-response","342","343024","0.0-15.0-1.3","Jpg2lIUMtp","5dd31f8e7f1bbf33942dfcbf","6617fad957f7c6a12ea16e26","6622cf6e292d6e4f661088e5","image grid","q","","","","","Phylogenetic_Distractor_Threat_target","2500","ongrid","q","2","Phylogenetic","true","experimental"
"","null","html-keyboard-response","343","343183","0.0-15.0-2.3","Jpg2lIUMtp","5dd31f8e7f1bbf33942dfcbf","6617fad957f7c6a12ea16e26","6622cf6e292d6e4f661088e5","
    <div id=""grid-container"">
        <!-- Grid items will be dynamically added here -->
    </div>    ","null","","","","","","","","","","","",""
"","null","html-keyboard-response","344","343909","0.0-15.0-0.4","Jpg2lIUMtp","5dd31f8e7f1bbf33942dfcbf","6617fad957f7c6a12ea16e26","6622cf6e292d6e4f661088e5","fixation cross","null","","","","","","","","","","","",""
"","837","html-keyboard-response","345","344746","0.0-15.0-1.4","Jpg2lIUMtp","5dd31f8e7f1bbf33942dfcbf","6617fad957f7c6a12ea16e26","6622cf6e292d6e4f661088e5","image grid","p","","","","","Phylogenetic_Distractor_Nonthreat_target","2500","ongrid","p","4","Phylogenetic","true","experimental"
"","null","html-keyboard-response","346","344904","0.0-15.0-2.4","Jpg2lIUMtp","5dd31f8e7f1bbf33942dfcbf","6617fad957f7c6a12ea16e26","6622cf6e292d6e4f661088e5","
    <div id=""grid-container"">
        <!-- Grid items will be dynamically added here -->
    </div>    ","null","","","","","","","","","","","",""
"","null","html-keyboard-response","347","345630","0.0-15.0-0.5","Jpg2lIUMtp","5dd31f8e7f1bbf33942dfcbf","6617fad957f7c6a12ea16e26","6622cf6e292d6e4f661088e5","fixation cross","null","","","","","","","","","","","",""
"","1250","html-keyboard-response","348","346880","0.0-15.0-1.5","Jpg2lIUMtp","5dd31f8e7f1bbf33942dfcbf","6617fad957f7c6a12ea16e26","6622cf6e292d6e4f661088e5","image grid"," ","","","","","Phylogenetic_Distractor_notarget","2500","ongrid"," ","5","Phylogenetic","true","experimental"
"","null","html-keyboard-response","349","347040","0.0-15.0-2.5","Jpg2lIUMtp","5dd31f8e7f1bbf33942dfcbf","6617fad957f7c6a12ea16e26","6622cf6e292d6e4f661088e5","
    <div id=""grid-container"">
        <!-- Grid items will be dynamically added here -->
    </div>    ","null","","","","","","","","","","","",""
"","null","html-keyboard-response","350","347754","0.0-15.0-0.6","Jpg2lIUMtp","5dd31f8e7f1bbf33942dfcbf","6617fad957f7c6a12ea16e26","6622cf6e292d6e4f661088e5","fixation cross","null","","","","","","","","","","","",""
"","783","html-keyboard-response","351","348536","0.0-15.0-1.6","Jpg2lIUMtp","5dd31f8e7f1bbf33942dfcbf","6617fad957f7c6a12ea16e26","6622cf6e292d6e4f661088e5","image grid","p","","","","","Phylogenetic_Distractor_Nonthreat_target","2500","ongrid","p","6","Phylogenetic","true","experimental"
"","null","html-keyboard-response","352","348688","0.0-15.0-2.6","Jpg2lIUMtp","5dd31f8e7f1bbf33942dfcbf","6617fad957f7c6a12ea16e26","6622cf6e292d6e4f661088e5","
    <div id=""grid-container"">
        <!-- Grid items will be dynamically added here -->
    </div>    ","null","","","","","","","","","","","",""
"","null","html-keyboard-response","353","349415","0.0-15.0-0.7","Jpg2lIUMtp","5dd31f8e7f1bbf33942dfcbf","6617fad957f7c6a12ea16e26","6622cf6e292d6e4f661088e5","fixation cross","null","","","","","","","","","","","",""
"","592","html-keyboard-response","354","350008","0.0-15.0-1.7","Jpg2lIUMtp","5dd31f8e7f1bbf33942dfcbf","6617fad957f7c6a12ea16e26","6622cf6e292d6e4f661088e5","image grid","q","","","","","Phylogenetic_Distractor_Threat_target","2500","ongrid","q","5","Phylogenetic","true","experimental"
"","null","html-keyboard-response","355","350171","0.0-15.0-2.7","Jpg2lIUMtp","5dd31f8e7f1bbf33942dfcbf","6617fad957f7c6a12ea16e26","6622cf6e292d6e4f661088e5","
    <div id=""grid-container"">
        <!-- Grid items will be dynamically added here -->
    </div>    ","null","","","","","","","","","","","",""
"","null","html-keyboard-response","356","350883","0.0-15.0-0.8","Jpg2lIUMtp","5dd31f8e7f1bbf33942dfcbf","6617fad957f7c6a12ea16e26","6622cf6e292d6e4f661088e5","fixation cross","null","","","","","","","","","","","",""
"","702","html-keyboard-response","357","351585","0.0-15.0-1.8","Jpg2lIUMtp","5dd31f8e7f1bbf33942dfcbf","6617fad957f7c6a12ea16e26","6622cf6e292d6e4f661088e5","image grid","q","","","","","Phylogenetic_Distractor_Threat_target","2500","ongrid","q","1","Phylogenetic","true","experimental"
"","null","html-keyboard-response","358","351738","0.0-15.0-2.8","Jpg2lIUMtp","5dd31f8e7f1bbf33942dfcbf","6617fad957f7c6a12ea16e26","6622cf6e292d6e4f661088e5","
    <div id=""grid-container"">
        <!-- Grid items will be dynamically added here -->
    </div>    ","null","","","","","","","","","","","",""
"","null","html-keyboard-response","359","352449","0.0-15.0-0.9","Jpg2lIUMtp","5dd31f8e7f1bbf33942dfcbf","6617fad957f7c6a12ea16e26","6622cf6e292d6e4f661088e5","fixation cross","null","","","","","","","","","","","",""
"","736","html-keyboard-response","360","353186","0.0-15.0-1.9","Jpg2lIUMtp","5dd31f8e7f1bbf33942dfcbf","6617fad957f7c6a12ea16e26","6622cf6e292d6e4f661088e5","image grid","p","","","","","Phylogenetic_Distractor_Nonthreat_target","2500","ongrid","p","5","Phylogenetic","true","experimental"
"","null","html-keyboard-response","361","353351","0.0-15.0-2.9","Jpg2lIUMtp","5dd31f8e7f1bbf33942dfcbf","6617fad957f7c6a12ea16e26","6622cf6e292d6e4f661088e5","
    <div id=""grid-container"">
        <!-- Grid items will be dynamically added here -->
    </div>    ","null","","","","","","","","","","","",""
"","null","html-keyboard-response","362","354065","0.0-15.0-0.10","Jpg2lIUMtp","5dd31f8e7f1bbf33942dfcbf","6617fad957f7c6a12ea16e26","6622cf6e292d6e4f661088e5","fixation cross","null","","","","","","","","","","","",""
"","1174","html-keyboard-response","363","355240","0.0-15.0-1.10","Jpg2lIUMtp","5dd31f8e7f1bbf33942dfcbf","6617fad957f7c6a12ea16e26","6622cf6e292d6e4f661088e5","image grid"," ","","","","","Phylogenetic_Distractor_notarget","2500","ongrid"," ","2","Phylogenetic","true","experimental"
"","null","html-keyboard-response","364","355402","0.0-15.0-2.10","Jpg2lIUMtp","5dd31f8e7f1bbf33942dfcbf","6617fad957f7c6a12ea16e26","6622cf6e292d6e4f661088e5","
    <div id=""grid-container"">
        <!-- Grid items will be dynamically added here -->
    </div>    ","null","","","","","","","","","","","",""
"","null","html-keyboard-response","365","356130","0.0-15.0-0.11","Jpg2lIUMtp","5dd31f8e7f1bbf33942dfcbf","6617fad957f7c6a12ea16e26","6622cf6e292d6e4f661088e5","fixation cross","null","","","","","","","","","","","",""
"","662","html-keyboard-response","366","356792","0.0-15.0-1.11","Jpg2lIUMtp","5dd31f8e7f1bbf33942dfcbf","6617fad957f7c6a12ea16e26","6622cf6e292d6e4f661088e5","image grid","p","","","","","Phylogenetic_Distractor_Nonthreat_target","2500","ongrid","p","6","Phylogenetic","true","experimental"
"","null","html-keyboard-response","367","356944","0.0-15.0-2.11","Jpg2lIUMtp","5dd31f8e7f1bbf33942dfcbf","6617fad957f7c6a12ea16e26","6622cf6e292d6e4f661088e5","
    <div id=""grid-container"">
        <!-- Grid items will be dynamically added here -->
    </div>    ","null","","","","","","","","","","","",""
"","null","html-keyboard-response","368","357655","0.0-15.0-0.12","Jpg2lIUMtp","5dd31f8e7f1bbf33942dfcbf","6617fad957f7c6a12ea16e26","6622cf6e292d6e4f661088e5","fixation cross","null","","","","","","","","","","","",""
"","729","html-keyboard-response","369","358385","0.0-15.0-1.12","Jpg2lIUMtp","5dd31f8e7f1bbf33942dfcbf","6617fad957f7c6a12ea16e26","6622cf6e292d6e4f661088e5","image grid","q","","","","","Phylogenetic_Distractor_Threat_target","2500","ongrid","q","3","Phylogenetic","true","experimental"
"","null","html-keyboard-response","370","358544","0.0-15.0-2.12","Jpg2lIUMtp","5dd31f8e7f1bbf33942dfcbf","6617fad957f7c6a12ea16e26","6622cf6e292d6e4f661088e5","
    <div id=""grid-container"">
