"success","rt","trial_type","trial_index","time_elapsed","internal_node_id","unique_identifier","subject_id","study_id","session_id","stimulus","response","timeout","failed_images","failed_audio","failed_video","task","time_manipulation","respondedwhen","correctresponse","targetimagelocation","blocktype","correct","roundtype"
"true","4827","fullscreen","0","5833","0.0-0.0","NAw3IORdyj","65c128e33e63ff895c314fbd","6617fad957f7c6a12ea16e26","6622c0b5a3f5e707c22795ca","","","","","","","","","","","","","",""
"","11140","html-keyboard-response","1","16977","0.0-1.0","NAw3IORdyj","65c128e33e63ff895c314fbd","6617fad957f7c6a12ea16e26","6622c0b5a3f5e707c22795ca","instruction screen 0","j","","","","","","","","","","","",""
"true","","preload","2","20113","0.0-2.0","NAw3IORdyj","65c128e33e63ff895c314fbd","6617fad957f7c6a12ea16e26","6622c0b5a3f5e707c22795ca","","","false","[]","[]","[]","","","","","","","",""
"","10219","html-keyboard-response","3","30333","0.0-3.0","NAw3IORdyj","65c128e33e63ff895c314fbd","6617fad957f7c6a12ea16e26","6622c0b5a3f5e707c22795ca","instruction screen 1"," ","","","","","","","","","","","",""
"","9690","html-keyboard-response","4","40028","0.0-4.0","NAw3IORdyj","65c128e33e63ff895c314fbd","6617fad957f7c6a12ea16e26","6622c0b5a3f5e707c22795ca","instruction screen 2","q","","","","","","","","","","","",""
"","7751","html-keyboard-response","5","47784","0.0-5.0","NAw3IORdyj","65c128e33e63ff895c314fbd","6617fad957f7c6a12ea16e26","6622c0b5a3f5e707c22795ca","instruction screen 3","p","","","","","","","","","","","",""
"","8867","html-keyboard-response","6","56658","0.0-6.0","NAw3IORdyj","65c128e33e63ff895c314fbd","6617fad957f7c6a12ea16e26","6622c0b5a3f5e707c22795ca","instruction screen 4"," ","","","","","","","","","","","",""
"","8611","html-keyboard-response","7","65276","0.0-7.0","NAw3IORdyj","65c128e33e63ff895c314fbd","6617fad957f7c6a12ea16e26","6622c0b5a3f5e707c22795ca","instruction screen 5"," ","","","","","","","","","","","",""
"","null","html-keyboard-response","8","65815","0.0-8.0","NAw3IORdyj","65c128e33e63ff895c314fbd","6617fad957f7c6a12ea16e26","6622c0b5a3f5e707c22795ca","fixation cross","null","","","","","","","","","","","",""
"","null","html-keyboard-response","9","66317","0.0-9.0-0.0","NAw3IORdyj","65c128e33e63ff895c314fbd","6617fad957f7c6a12ea16e26","6622c0b5a3f5e707c22795ca","fixation cross","null","","","","","","","","","","","",""
"","1534","html-keyboard-response","10","67852","0.0-9.0-1.0","NAw3IORdyj","65c128e33e63ff895c314fbd","6617fad957f7c6a12ea16e26","6622c0b5a3f5e707c22795ca","image grid","p","","","","","Ontogenetic_Distractor_Nonthreat_target","3000","ongrid","p","2","Ontogenetic","true","practice"
"","null","html-keyboard-response","11","68005","0.0-9.0-2.0","NAw3IORdyj","65c128e33e63ff895c314fbd","6617fad957f7c6a12ea16e26","6622c0b5a3f5e707c22795ca","
    <div id=""grid-container"">
        <!-- Grid items will be dynamically added here -->
    </div>    ","null","","","","","","","","","","","",""
"","null","html-keyboard-response","12","69209","0.0-9.0-3.0","NAw3IORdyj","65c128e33e63ff895c314fbd","6617fad957f7c6a12ea16e26","6622c0b5a3f5e707c22795ca","feedback screen","null","","","","","","","","","","","",""
"","null","html-keyboard-response","13","69715","0.0-9.0-0.1","NAw3IORdyj","65c128e33e63ff895c314fbd","6617fad957f7c6a12ea16e26","6622c0b5a3f5e707c22795ca","fixation cross","null","","","","","","","","","","","",""
"","1126","html-keyboard-response","14","70842","0.0-9.0-1.1","NAw3IORdyj","65c128e33e63ff895c314fbd","6617fad957f7c6a12ea16e26","6622c0b5a3f5e707c22795ca","image grid","p","","","","","Ontogenetic_Distractor_Nonthreat_target","2900","ongrid","p","5","Ontogenetic","true","practice"
"","null","html-keyboard-response","15","70995","0.0-9.0-2.1","NAw3IORdyj","65c128e33e63ff895c314fbd","6617fad957f7c6a12ea16e26","6622c0b5a3f5e707c22795ca","
    <div id=""grid-container"">
        <!-- Grid items will be dynamically added here -->
    </div>    ","null","","","","","","","","","","","",""
"","null","html-keyboard-response","16","72199","0.0-9.0-3.1","NAw3IORdyj","65c128e33e63ff895c314fbd","6617fad957f7c6a12ea16e26","6622c0b5a3f5e707c22795ca","feedback screen","null","","","","","","","","","","","",""
"","null","html-keyboard-response","17","72705","0.0-9.0-0.2","NAw3IORdyj","65c128e33e63ff895c314fbd","6617fad957f7c6a12ea16e26","6622c0b5a3f5e707c22795ca","fixation cross","null","","","","","","","","","","","",""
"","2476","html-keyboard-response","18","75182","0.0-9.0-1.2","NAw3IORdyj","65c128e33e63ff895c314fbd","6617fad957f7c6a12ea16e26","6622c0b5a3f5e707c22795ca","image grid","p","","","","","Phylogenetic_Distractor_Threat_target","2800","ongrid","q","6","Ontogenetic","false","practice"
"","null","html-keyboard-response","19","75334","0.0-9.0-2.2","NAw3IORdyj","65c128e33e63ff895c314fbd","6617fad957f7c6a12ea16e26","6622c0b5a3f5e707c22795ca","
    <div id=""grid-container"">
        <!-- Grid items will be dynamically added here -->
    </div>    ","null","","","","","","","","","","","",""
"","null","html-keyboard-response","20","76539","0.0-9.0-3.2","NAw3IORdyj","65c128e33e63ff895c314fbd","6617fad957f7c6a12ea16e26","6622c0b5a3f5e707c22795ca","feedback screen","null","","","","","","","","","","","",""
"","null","html-keyboard-response","21","77045","0.0-9.0-0.3","NAw3IORdyj","65c128e33e63ff895c314fbd","6617fad957f7c6a12ea16e26","6622c0b5a3f5e707c22795ca","fixation cross","null","","","","","","","","","","","",""
"","1280","html-keyboard-response","22","78326","0.0-9.0-1.3","NAw3IORdyj","65c128e33e63ff895c314fbd","6617fad957f7c6a12ea16e26","6622c0b5a3f5e707c22795ca","image grid","p","","","","","Phylogenetic_Distractor_Nonthreat_target","2700","ongrid","p","2","Ontogenetic","true","practice"
"","null","html-keyboard-response","23","78478","0.0-9.0-2.3","NAw3IORdyj","65c128e33e63ff895c314fbd","6617fad957f7c6a12ea16e26","6622c0b5a3f5e707c22795ca","
    <div id=""grid-container"">
        <!-- Grid items will be dynamically added here -->
    </div>    ","null","","","","","","","","","","","",""
"","null","html-keyboard-response","24","79681","0.0-9.0-3.3","NAw3IORdyj","65c128e33e63ff895c314fbd","6617fad957f7c6a12ea16e26","6622c0b5a3f5e707c22795ca","feedback screen","null","","","","","","","","","","","",""
"","null","html-keyboard-response","25","80184","0.0-9.0-0.4","NAw3IORdyj","65c128e33e63ff895c314fbd","6617fad957f7c6a12ea16e26","6622c0b5a3f5e707c22795ca","fixation cross","null","","","","","","","","","","","",""
"","825","html-keyboard-response","26","81010","0.0-9.0-1.4","NAw3IORdyj","65c128e33e63ff895c314fbd","6617fad957f7c6a12ea16e26","6622c0b5a3f5e707c22795ca","image grid","q","","","","","Ontogenetic_Distractor_Threat_target","2600","ongrid","q","3","Ontogenetic","true","practice"
"","null","html-keyboard-response","27","81163","0.0-9.0-2.4","NAw3IORdyj","65c128e33e63ff895c314fbd","6617fad957f7c6a12ea16e26","6622c0b5a3f5e707c22795ca","
    <div id=""grid-container"">
        <!-- Grid items will be dynamically added here -->
    </div>    ","null","","","","","","","","","","","",""
"","null","html-keyboard-response","28","82367","0.0-9.0-3.4","NAw3IORdyj","65c128e33e63ff895c314fbd","6617fad957f7c6a12ea16e26","6622c0b5a3f5e707c22795ca","feedback screen","null","","","","","","","","","","","",""
"","null","html-keyboard-response","29","82874","0.0-9.0-0.5","NAw3IORdyj","65c128e33e63ff895c314fbd","6617fad957f7c6a12ea16e26","6622c0b5a3f5e707c22795ca","fixation cross","null","","","","","","","","","","","",""
"","2002","html-keyboard-response","30","84876","0.0-9.0-1.5","NAw3IORdyj","65c128e33e63ff895c314fbd","6617fad957f7c6a12ea16e26","6622c0b5a3f5e707c22795ca","image grid"," ","","","","","Phylogenetic_Distractor_notarget","2500","ongrid"," ","1","Ontogenetic","true","practice"
"","null","html-keyboard-response","31","85029","0.0-9.0-2.5","NAw3IORdyj","65c128e33e63ff895c314fbd","6617fad957f7c6a12ea16e26","6622c0b5a3f5e707c22795ca","
    <div id=""grid-container"">
        <!-- Grid items will be dynamically added here -->
    </div>    ","null","","","","","","","","","","","",""
"","null","html-keyboard-response","32","86233","0.0-9.0-3.5","NAw3IORdyj","65c128e33e63ff895c314fbd","6617fad957f7c6a12ea16e26","6622c0b5a3f5e707c22795ca","feedback screen","null","","","","","","","","","","","",""
"","null","html-keyboard-response","33","86740","0.0-9.0-0.6","NAw3IORdyj","65c128e33e63ff895c314fbd","6617fad957f7c6a12ea16e26","6622c0b5a3f5e707c22795ca","fixation cross","null","","","","","","","","","","","",""
"","2000","html-keyboard-response","34","88741","0.0-9.0-1.6","NAw3IORdyj","65c128e33e63ff895c314fbd","6617fad957f7c6a12ea16e26","6622c0b5a3f5e707c22795ca","image grid","q","","","","","Phylogenetic_Distractor_Threat_target","2400","ongrid","q","9","Ontogenetic","true","practice"
"","null","html-keyboard-response","35","88893","0.0-9.0-2.6","NAw3IORdyj","65c128e33e63ff895c314fbd","6617fad957f7c6a12ea16e26","6622c0b5a3f5e707c22795ca","
    <div id=""grid-container"">
        <!-- Grid items will be dynamically added here -->
    </div>    ","null","","","","","","","","","","","",""
"","null","html-keyboard-response","36","90097","0.0-9.0-3.6","NAw3IORdyj","65c128e33e63ff895c314fbd","6617fad957f7c6a12ea16e26","6622c0b5a3f5e707c22795ca","feedback screen","null","","","","","","","","","","","",""
"","null","html-keyboard-response","37","90604","0.0-9.0-0.7","NAw3IORdyj","65c128e33e63ff895c314fbd","6617fad957f7c6a12ea16e26","6622c0b5a3f5e707c22795ca","fixation cross","null","","","","","","","","","","","",""
"","1619","html-keyboard-response","38","92224","0.0-9.0-1.7","NAw3IORdyj","65c128e33e63ff895c314fbd","6617fad957f7c6a12ea16e26","6622c0b5a3f5e707c22795ca","image grid","p","","","","","Ontogenetic_Distractor_notarget","2300","ongrid"," ","5","Ontogenetic","false","practice"
"","null","html-keyboard-response","39","92376","0.0-9.0-2.7","NAw3IORdyj","65c128e33e63ff895c314fbd","6617fad957f7c6a12ea16e26","6622c0b5a3f5e707c22795ca","
    <div id=""grid-container"">
        <!-- Grid items will be dynamically added here -->
    </div>    ","null","","","","","","","","","","","",""
"","null","html-keyboard-response","40","93581","0.0-9.0-3.7","NAw3IORdyj","65c128e33e63ff895c314fbd","6617fad957f7c6a12ea16e26","6622c0b5a3f5e707c22795ca","feedback screen","null","","","","","","","","","","","",""
"","null","html-keyboard-response","41","94088","0.0-9.0-0.8","NAw3IORdyj","65c128e33e63ff895c314fbd","6617fad957f7c6a12ea16e26","6622c0b5a3f5e707c22795ca","fixation cross","null","","","","","","","","","","","",""
"","1355","html-keyboard-response","42","95443","0.0-9.0-1.8","NAw3IORdyj","65c128e33e63ff895c314fbd","6617fad957f7c6a12ea16e26","6622c0b5a3f5e707c22795ca","image grid","q","","","","","Phylogenetic_Distractor_Threat_target","2200","ongrid","q","1","Ontogenetic","true","practice"
"","null","html-keyboard-response","43","95596","0.0-9.0-2.8","NAw3IORdyj","65c128e33e63ff895c314fbd","6617fad957f7c6a12ea16e26","6622c0b5a3f5e707c22795ca","
    <div id=""grid-container"">
        <!-- Grid items will be dynamically added here -->
    </div>    ","null","","","","","","","","","","","",""
"","null","html-keyboard-response","44","96801","0.0-9.0-3.8","NAw3IORdyj","65c128e33e63ff895c314fbd","6617fad957f7c6a12ea16e26","6622c0b5a3f5e707c22795ca","feedback screen","null","","","","","","","","","","","",""
"","null","html-keyboard-response","45","97307","0.0-9.0-0.9","NAw3IORdyj","65c128e33e63ff895c314fbd","6617fad957f7c6a12ea16e26","6622c0b5a3f5e707c22795ca","fixation cross","null","","","","","","","","","","","",""
"","956","html-keyboard-response","46","98264","0.0-9.0-1.9","NAw3IORdyj","65c128e33e63ff895c314fbd","6617fad957f7c6a12ea16e26","6622c0b5a3f5e707c22795ca","image grid","q","","","","","Ontogenetic_Distractor_Threat_target","2100","ongrid","q","3","Ontogenetic","true","practice"
"","null","html-keyboard-response","47","98416","0.0-9.0-2.9","NAw3IORdyj","65c128e33e63ff895c314fbd","6617fad957f7c6a12ea16e26","6622c0b5a3f5e707c22795ca","
    <div id=""grid-container"">
        <!-- Grid items will be dynamically added here -->
    </div>    ","null","","","","","","","","","","","",""
"","null","html-keyboard-response","48","99619","0.0-9.0-3.9","NAw3IORdyj","65c128e33e63ff895c314fbd","6617fad957f7c6a12ea16e26","6622c0b5a3f5e707c22795ca","feedback screen","null","","","","","","","","","","","",""
"","null","html-keyboard-response","49","100125","0.0-9.0-0.10","NAw3IORdyj","65c128e33e63ff895c314fbd","6617fad957f7c6a12ea16e26","6622c0b5a3f5e707c22795ca","fixation cross","null","","","","","","","","","","","",""
"","null","html-keyboard-response","50","102127","0.0-9.0-1.10","NAw3IORdyj","65c128e33e63ff895c314fbd","6617fad957f7c6a12ea16e26","6622c0b5a3f5e707c22795ca","
        <div id=""grid-container"">
        <!-- Grid items will be dynamically added here -->
    </div>    ","null","","","","","","","","","","","",""
"","2000","html-keyboard-response","51","107129","0.0-9.0-2.10","NAw3IORdyj","65c128e33e63ff895c314fbd","6617fad957f7c6a12ea16e26","6622c0b5a3f5e707c22795ca","mask grid","null","","","","","Phylogenetic_Distractor_notarget","2000","onmask"," ","1","Ontogenetic","false","practice"
"","null","html-keyboard-response","52","108334","0.0-9.0-3.10","NAw3IORdyj","65c128e33e63ff895c314fbd","6617fad957f7c6a12ea16e26","6622c0b5a3f5e707c22795ca","feedback screen","null","","","","","","","","","","","",""
"","null","html-keyboard-response","53","108840","0.0-9.0-0.11","NAw3IORdyj","65c128e33e63ff895c314fbd","6617fad957f7c6a12ea16e26","6622c0b5a3f5e707c22795ca","fixation cross","null","","","","","","","","","","","",""
"","884","html-keyboard-response","54","109725","0.0-9.0-1.11","NAw3IORdyj","65c128e33e63ff895c314fbd","6617fad957f7c6a12ea16e26","6622c0b5a3f5e707c22795ca","image grid","p","","","","","Ontogenetic_Distractor_Nonthreat_target","1900","ongrid","p","7","Ontogenetic","true","practice"
"","null","html-keyboard-response","55","109877","0.0-9.0-2.11","NAw3IORdyj","65c128e33e63ff895c314fbd","6617fad957f7c6a12ea16e26","6622c0b5a3f5e707c22795ca","
    <div id=""grid-container"">
        <!-- Grid items will be dynamically added here -->
    </div>    ","null","","","","","","","","","","","",""
"","null","html-keyboard-response","56","111081","0.0-9.0-3.11","NAw3IORdyj","65c128e33e63ff895c314fbd","6617fad957f7c6a12ea16e26","6622c0b5a3f5e707c22795ca","feedback screen","null","","","","","","","","","","","",""
"","null","html-keyboard-response","57","111588","0.0-9.0-0.12","NAw3IORdyj","65c128e33e63ff895c314fbd","6617fad957f7c6a12ea16e26","6622c0b5a3f5e707c22795ca","fixation cross","null","","","","","","","","","","","",""
"","1053","html-keyboard-response","58","112642","0.0-9.0-1.12","NAw3IORdyj","65c128e33e63ff895c314fbd","6617fad957f7c6a12ea16e26","6622c0b5a3f5e707c22795ca","image grid","p","","","","","Phylogenetic_Distractor_Nonthreat_target","1800","ongrid","p","5","Ontogenetic","true","practice"
"","null","html-keyboard-response","59","112794","0.0-9.0-2.12","NAw3IORdyj","65c128e33e63ff895c314fbd","6617fad957f7c6a12ea16e26","6622c0b5a3f5e707c22795ca","
    <div id=""grid-container"">
        <!-- Grid items will be dynamically added here -->
    </div>    ","null","","","","","","","","","","","",""
"","null","html-keyboard-response","60","113998","0.0-9.0-3.12","NAw3IORdyj","65c128e33e63ff895c314fbd","6617fad957f7c6a12ea16e26","6622c0b5a3f5e707c22795ca","feedback screen","null","","","","","","","","","","","",""
"","null","html-keyboard-response","61","114503","0.0-9.0-0.13","NAw3IORdyj","65c128e33e63ff895c314fbd","6617fad957f7c6a12ea16e26","6622c0b5a3f5e707c22795ca","fixation cross","null","","","","","","","","","","","",""
"","1229","html-keyboard-response","62","115733","0.0-9.0-1.13","NAw3IORdyj","65c128e33e63ff895c314fbd","6617fad957f7c6a12ea16e26","6622c0b5a3f5e707c22795ca","image grid","q","","","","","Phylogenetic_Distractor_Threat_target","1700","ongrid","q","9","Ontogenetic","true","practice"
"","null","html-keyboard-response","63","115885","0.0-9.0-2.13","NAw3IORdyj","65c128e33e63ff895c314fbd","6617fad957f7c6a12ea16e26","6622c0b5a3f5e707c22795ca","
    <div id=""grid-container"">
        <!-- Grid items will be dynamically added here -->
    </div>    ","null","","","","","","","","","","","",""
"","null","html-keyboard-response","64","117090","0.0-9.0-3.13","NAw3IORdyj","65c128e33e63ff895c314fbd","6617fad957f7c6a12ea16e26","6622c0b5a3f5e707c22795ca","feedback screen","null","","","","","","","","","","","",""
"","null","html-keyboard-response","65","117596","0.0-9.0-0.14","NAw3IORdyj","65c128e33e63ff895c314fbd","6617fad957f7c6a12ea16e26","6622c0b5a3f5e707c22795ca","fixation cross","null","","","","","","","","","","","",""
"","758","html-keyboard-response","66","118355","0.0-9.0-1.14","NAw3IORdyj","65c128e33e63ff895c314fbd","6617fad957f7c6a12ea16e26","6622c0b5a3f5e707c22795ca","image grid","q","","","","","Ontogenetic_Distractor_Threat_target","1600","ongrid","q","4","Ontogenetic","true","practice"
"","null","html-keyboard-response","67","118508","0.0-9.0-2.14","NAw3IORdyj","65c128e33e63ff895c314fbd","6617fad957f7c6a12ea16e26","6622c0b5a3f5e707c22795ca","
    <div id=""grid-container"">
        <!-- Grid items will be dynamically added here -->
    </div>    ","null","","","","","","","","","","","",""
"","null","html-keyboard-response","68","119711","0.0-9.0-3.14","NAw3IORdyj","65c128e33e63ff895c314fbd","6617fad957f7c6a12ea16e26","6622c0b5a3f5e707c22795ca","feedback screen","null","","","","","","","","","","","",""
"","null","html-keyboard-response","69","120217","0.0-9.0-0.15","NAw3IORdyj","65c128e33e63ff895c314fbd","6617fad957f7c6a12ea16e26","6622c0b5a3f5e707c22795ca","fixation cross","null","","","","","","","","","","","",""
"","730","html-keyboard-response","70","120948","0.0-9.0-1.15","NAw3IORdyj","65c128e33e63ff895c314fbd","6617fad957f7c6a12ea16e26","6622c0b5a3f5e707c22795ca","image grid","p","","","","","Ontogenetic_Distractor_Nonthreat_target","1500","ongrid","p","2","Ontogenetic","true","practice"
"","null","html-keyboard-response","71","121100","0.0-9.0-2.15","NAw3IORdyj","65c128e33e63ff895c314fbd","6617fad957f7c6a12ea16e26","6622c0b5a3f5e707c22795ca","
    <div id=""grid-container"">
        <!-- Grid items will be dynamically added here -->
    </div>    ","null","","","","","","","","","","","",""
"","null","html-keyboard-response","72","122303","0.0-9.0-3.15","NAw3IORdyj","65c128e33e63ff895c314fbd","6617fad957f7c6a12ea16e26","6622c0b5a3f5e707c22795ca","feedback screen","null","","","","","","","","","","","",""
"","null","html-keyboard-response","73","122810","0.0-9.0-0.16","NAw3IORdyj","65c128e33e63ff895c314fbd","6617fad957f7c6a12ea16e26","6622c0b5a3f5e707c22795ca","fixation cross","null","","","","","","","","","","","",""
"","1034","html-keyboard-response","74","123845","0.0-9.0-1.16","NAw3IORdyj","65c128e33e63ff895c314fbd","6617fad957f7c6a12ea16e26","6622c0b5a3f5e707c22795ca","image grid","q","","","","","Ontogenetic_Distractor_Threat_target","1400","ongrid","q","4","Ontogenetic","true","practice"
"","null","html-keyboard-response","75","123996","0.0-9.0-2.16","NAw3IORdyj","65c128e33e63ff895c314fbd","6617fad957f7c6a12ea16e26","6622c0b5a3f5e707c22795ca","
    <div id=""grid-container"">
        <!-- Grid items will be dynamically added here -->
    </div>    ","null","","","","","","","","","","","",""
"","null","html-keyboard-response","76","125201","0.0-9.0-3.16","NAw3IORdyj","65c128e33e63ff895c314fbd","6617fad957f7c6a12ea16e26","6622c0b5a3f5e707c22795ca","feedback screen","null","","","","","","","","","","","",""
"","null","html-keyboard-response","77","125707","0.0-9.0-0.17","NAw3IORdyj","65c128e33e63ff895c314fbd","6617fad957f7c6a12ea16e26","6622c0b5a3f5e707c22795ca","fixation cross","null","","","","","","","","","","","",""
"","null","html-keyboard-response","78","127010","0.0-9.0-1.17","NAw3IORdyj","65c128e33e63ff895c314fbd","6617fad957f7c6a12ea16e26","6622c0b5a3f5e707c22795ca","
        <div id=""grid-container"">
        <!-- Grid items will be dynamically added here -->
    </div>    ","null","","","","","","","","","","","",""
"","1335","html-keyboard-response","79","127045","0.0-9.0-2.17","NAw3IORdyj","65c128e33e63ff895c314fbd","6617fad957f7c6a12ea16e26","6622c0b5a3f5e707c22795ca","mask grid","p","","","","","Phylogenetic_Distractor_Nonthreat_target","1300","onmask","p","3","Ontogenetic","true","practice"
"","null","html-keyboard-response","80","128249","0.0-9.0-3.17","NAw3IORdyj","65c128e33e63ff895c314fbd","6617fad957f7c6a12ea16e26","6622c0b5a3f5e707c22795ca","feedback screen","null","","","","","","","","","","","",""
"","null","html-keyboard-response","81","128755","0.0-9.0-0.18","NAw3IORdyj","65c128e33e63ff895c314fbd","6617fad957f7c6a12ea16e26","6622c0b5a3f5e707c22795ca","fixation cross","null","","","","","","","","","","","",""
"","null","html-keyboard-response","82","129957","0.0-9.0-1.18","NAw3IORdyj","65c128e33e63ff895c314fbd","6617fad957f7c6a12ea16e26","6622c0b5a3f5e707c22795ca","
        <div id=""grid-container"">
        <!-- Grid items will be dynamically added here -->
    </div>    ","null","","","","","","","","","","","",""
"","2002","html-keyboard-response","83","130759","0.0-9.0-2.18","NAw3IORdyj","65c128e33e63ff895c314fbd","6617fad957f7c6a12ea16e26","6622c0b5a3f5e707c22795ca","mask grid"," ","","","","","Phylogenetic_Distractor_Nonthreat_target","1200","onmask","p","2","Ontogenetic","false","practice"
"","null","html-keyboard-response","84","131964","0.0-9.0-3.18","NAw3IORdyj","65c128e33e63ff895c314fbd","6617fad957f7c6a12ea16e26","6622c0b5a3f5e707c22795ca","feedback screen","null","","","","","","","","","","","",""
"","null","html-keyboard-response","85","132470","0.0-9.0-0.19","NAw3IORdyj","65c128e33e63ff895c314fbd","6617fad957f7c6a12ea16e26","6622c0b5a3f5e707c22795ca","fixation cross","null","","","","","","","","","","","",""
"","null","html-keyboard-response","86","133573","0.0-9.0-1.19","NAw3IORdyj","65c128e33e63ff895c314fbd","6617fad957f7c6a12ea16e26","6622c0b5a3f5e707c22795ca","
        <div id=""grid-container"">
        <!-- Grid items will be dynamically added here -->
    </div>    ","null","","","","","","","","","","","",""
"","1300","html-keyboard-response","87","133773","0.0-9.0-2.19","NAw3IORdyj","65c128e33e63ff895c314fbd","6617fad957f7c6a12ea16e26","6622c0b5a3f5e707c22795ca","mask grid","q","","","","","Ontogenetic_Distractor_notarget","1100","onmask"," ","7","Ontogenetic","false","practice"
"","null","html-keyboard-response","88","134978","0.0-9.0-3.19","NAw3IORdyj","65c128e33e63ff895c314fbd","6617fad957f7c6a12ea16e26","6622c0b5a3f5e707c22795ca","feedback screen","null","","","","","","","","","","","",""
"","12026","html-keyboard-response","89","147046","0.0-10.0","NAw3IORdyj","65c128e33e63ff895c314fbd","6617fad957f7c6a12ea16e26","6622c0b5a3f5e707c22795ca","pre-experimental_briefing"," ","","","","","","","","","","","",""
"","null","html-keyboard-response","90","149578","0.0-11.0-0.0","NAw3IORdyj","65c128e33e63ff895c314fbd","6617fad957f7c6a12ea16e26","6622c0b5a3f5e707c22795ca","fixation cross","null","","","","","","","","","","","",""
"","null","html-keyboard-response","91","150379","0.0-11.0-1.0","NAw3IORdyj","65c128e33e63ff895c314fbd","6617fad957f7c6a12ea16e26","6622c0b5a3f5e707c22795ca","
        <div id=""grid-container"">
        <!-- Grid items will be dynamically added here -->
    </div>    ","null","","","","","","","","","","","",""
"","935","html-keyboard-response","92","150515","0.0-11.0-2.0","NAw3IORdyj","65c128e33e63ff895c314fbd","6617fad957f7c6a12ea16e26","6622c0b5a3f5e707c22795ca","mask grid","q","","","","","Ontogenetic_Distractor_Threat_target","800","onmask","q","9","Ontogenetic","true","experimental"
"","null","html-keyboard-response","93","151219","0.0-11.0-0.1","NAw3IORdyj","65c128e33e63ff895c314fbd","6617fad957f7c6a12ea16e26","6622c0b5a3f5e707c22795ca","fixation cross","null","","","","","","","","","","","",""
"","582","html-keyboard-response","94","151801","0.0-11.0-1.1","NAw3IORdyj","65c128e33e63ff895c314fbd","6617fad957f7c6a12ea16e26","6622c0b5a3f5e707c22795ca","image grid","q","","","","","Ontogenetic_Distractor_Threat_target","800","ongrid","q","4","Ontogenetic","true","experimental"
"","null","html-keyboard-response","95","151953","0.0-11.0-2.1","NAw3IORdyj","65c128e33e63ff895c314fbd","6617fad957f7c6a12ea16e26","6622c0b5a3f5e707c22795ca","
    <div id=""grid-container"">
        <!-- Grid items will be dynamically added here -->
    </div>    ","null","","","","","","","","","","","",""
"","null","html-keyboard-response","96","152657","0.0-11.0-0.2","NAw3IORdyj","65c128e33e63ff895c314fbd","6617fad957f7c6a12ea16e26","6622c0b5a3f5e707c22795ca","fixation cross","null","","","","","","","","","","","",""
"","577","html-keyboard-response","97","153235","0.0-11.0-1.2","NAw3IORdyj","65c128e33e63ff895c314fbd","6617fad957f7c6a12ea16e26","6622c0b5a3f5e707c22795ca","image grid","q","","","","","Ontogenetic_Distractor_Threat_target","800","ongrid","q","5","Ontogenetic","true","experimental"
"","null","html-keyboard-response","98","153387","0.0-11.0-2.2","NAw3IORdyj","65c128e33e63ff895c314fbd","6617fad957f7c6a12ea16e26","6622c0b5a3f5e707c22795ca","
    <div id=""grid-container"">
        <!-- Grid items will be dynamically added here -->
    </div>    ","null","","","","","","","","","","","",""
"","null","html-keyboard-response","99","154090","0.0-11.0-0.3","NAw3IORdyj","65c128e33e63ff895c314fbd","6617fad957f7c6a12ea16e26","6622c0b5a3f5e707c22795ca","fixation cross","null","","","","","","","","","","","",""
"","null","html-keyboard-response","100","154893","0.0-11.0-1.3","NAw3IORdyj","65c128e33e63ff895c314fbd","6617fad957f7c6a12ea16e26","6622c0b5a3f5e707c22795ca","
        <div id=""grid-container"">
        <!-- Grid items will be dynamically added here -->
    </div>    ","null","","","","","","","","","","","",""
"","800","html-keyboard-response","101","159896","0.0-11.0-2.3","NAw3IORdyj","65c128e33e63ff895c314fbd","6617fad957f7c6a12ea16e26","6622c0b5a3f5e707c22795ca","mask grid","null","","","","","Ontogenetic_Distractor_notarget","800","onmask"," ","4","Ontogenetic","false","experimental"
"","null","html-keyboard-response","102","160600","0.0-11.0-0.4","NAw3IORdyj","65c128e33e63ff895c314fbd","6617fad957f7c6a12ea16e26","6622c0b5a3f5e707c22795ca","fixation cross","null","","","","","","","","","","","",""
"","null","html-keyboard-response","103","161401","0.0-11.0-1.4","NAw3IORdyj","65c128e33e63ff895c314fbd","6617fad957f7c6a12ea16e26","6622c0b5a3f5e707c22795ca","
        <div id=""grid-container"">
        <!-- Grid items will be dynamically added here -->
    </div>    ","null","","","","","","","","","","","",""
"","1565","html-keyboard-response","104","162167","0.0-11.0-2.4","NAw3IORdyj","65c128e33e63ff895c314fbd","6617fad957f7c6a12ea16e26","6622c0b5a3f5e707c22795ca","mask grid"," ","","","","","Ontogenetic_Distractor_Nonthreat_target","800","onmask","p","8","Ontogenetic","false","experimental"
"","null","html-keyboard-response","105","162871","0.0-11.0-0.5","NAw3IORdyj","65c128e33e63ff895c314fbd","6617fad957f7c6a12ea16e26","6622c0b5a3f5e707c22795ca","fixation cross","null","","","","","","","","","","","",""
"","692","html-keyboard-response","106","163563","0.0-11.0-1.5","NAw3IORdyj","65c128e33e63ff895c314fbd","6617fad957f7c6a12ea16e26","6622c0b5a3f5e707c22795ca","image grid","q","","","","","Ontogenetic_Distractor_Nonthreat_target","800","ongrid","p","4","Ontogenetic","false","experimental"
"","null","html-keyboard-response","107","163717","0.0-11.0-2.5","NAw3IORdyj","65c128e33e63ff895c314fbd","6617fad957f7c6a12ea16e26","6622c0b5a3f5e707c22795ca","
    <div id=""grid-container"">
        <!-- Grid items will be dynamically added here -->
    </div>    ","null","","","","","","","","","","","",""
"","null","html-keyboard-response","108","164420","0.0-11.0-0.6","NAw3IORdyj","65c128e33e63ff895c314fbd","6617fad957f7c6a12ea16e26","6622c0b5a3f5e707c22795ca","fixation cross","null","","","","","","","","","","","",""
"","null","html-keyboard-response","109","165222","0.0-11.0-1.6","NAw3IORdyj","65c128e33e63ff895c314fbd","6617fad957f7c6a12ea16e26","6622c0b5a3f5e707c22795ca","
        <div id=""grid-container"">
        <!-- Grid items will be dynamically added here -->
    </div>    ","null","","","","","","","","","","","",""
"","1507","html-keyboard-response","110","165929","0.0-11.0-2.6","NAw3IORdyj","65c128e33e63ff895c314fbd","6617fad957f7c6a12ea16e26","6622c0b5a3f5e707c22795ca","mask grid"," ","","","","","Ontogenetic_Distractor_Nonthreat_target","800","onmask","p","5","Ontogenetic","false","experimental"
"","null","html-keyboard-response","111","166633","0.0-11.0-0.7","NAw3IORdyj","65c128e33e63ff895c314fbd","6617fad957f7c6a12ea16e26","6622c0b5a3f5e707c22795ca","fixation cross","null","","","","","","","","","","","",""
"","532","html-keyboard-response","112","167166","0.0-11.0-1.7","NAw3IORdyj","65c128e33e63ff895c314fbd","6617fad957f7c6a12ea16e26","6622c0b5a3f5e707c22795ca","image grid","p","","","","","Ontogenetic_Distractor_Threat_target","800","ongrid","q","3","Ontogenetic","false","experimental"
"","null","html-keyboard-response","113","167319","0.0-11.0-2.7","NAw3IORdyj","65c128e33e63ff895c314fbd","6617fad957f7c6a12ea16e26","6622c0b5a3f5e707c22795ca","
    <div id=""grid-container"">
        <!-- Grid items will be dynamically added here -->
    </div>    ","null","","","","","","","","","","","",""
"","null","html-keyboard-response","114","168023","0.0-11.0-0.8","NAw3IORdyj","65c128e33e63ff895c314fbd","6617fad957f7c6a12ea16e26","6622c0b5a3f5e707c22795ca","fixation cross","null","","","","","","","","","","","",""
"","null","html-keyboard-response","115","168826","0.0-11.0-1.8","NAw3IORdyj","65c128e33e63ff895c314fbd","6617fad957f7c6a12ea16e26","6622c0b5a3f5e707c22795ca","
        <div id=""grid-container"">
        <!-- Grid items will be dynamically added here -->
    </div>    ","null","","","","","","","","","","","",""
"","800","html-keyboard-response","116","173829","0.0-11.0-2.8","NAw3IORdyj","65c128e33e63ff895c314fbd","6617fad957f7c6a12ea16e26","6622c0b5a3f5e707c22795ca","mask grid","null","","","","","Ontogenetic_Distractor_Nonthreat_target","800","onmask","p","1","Ontogenetic","false","experimental"
"","null","html-keyboard-response","117","174533","0.0-11.0-0.9","NAw3IORdyj","65c128e33e63ff895c314fbd","6617fad957f7c6a12ea16e26","6622c0b5a3f5e707c22795ca","fixation cross","null","","","","","","","","","","","",""
"","688","html-keyboard-response","118","175222","0.0-11.0-1.9","NAw3IORdyj","65c128e33e63ff895c314fbd","6617fad957f7c6a12ea16e26","6622c0b5a3f5e707c22795ca","image grid","q","","","","","Ontogenetic_Distractor_Threat_target","800","ongrid","q","3","Ontogenetic","true","experimental"
"","null","html-keyboard-response","119","175376","0.0-11.0-2.9","NAw3IORdyj","65c128e33e63ff895c314fbd","6617fad957f7c6a12ea16e26","6622c0b5a3f5e707c22795ca","
    <div id=""grid-container"">
        <!-- Grid items will be dynamically added here -->
    </div>    ","null","","","","","","","","","","","",""
"","null","html-keyboard-response","120","176080","0.0-11.0-0.10","NAw3IORdyj","65c128e33e63ff895c314fbd","6617fad957f7c6a12ea16e26","6622c0b5a3f5e707c22795ca","fixation cross","null","","","","","","","","","","","",""
"","585","html-keyboard-response","121","176666","0.0-11.0-1.10","NAw3IORdyj","65c128e33e63ff895c314fbd","6617fad957f7c6a12ea16e26","6622c0b5a3f5e707c22795ca","image grid","p","","","","","Ontogenetic_Distractor_Nonthreat_target","800","ongrid","p","7","Ontogenetic","true","experimental"
"","null","html-keyboard-response","122","176818","0.0-11.0-2.10","NAw3IORdyj","65c128e33e63ff895c314fbd","6617fad957f7c6a12ea16e26","6622c0b5a3f5e707c22795ca","
    <div id=""grid-container"">
        <!-- Grid items will be dynamically added here -->
    </div>    ","null","","","","","","","","","","","",""
"","null","html-keyboard-response","123","177522","0.0-11.0-0.11","NAw3IORdyj","65c128e33e63ff895c314fbd","6617fad957f7c6a12ea16e26","6622c0b5a3f5e707c22795ca","fixation cross","null","","","","","","","","","","","",""
"","655","html-keyboard-response","124","178178","0.0-11.0-1.11","NAw3IORdyj","65c128e33e63ff895c314fbd","6617fad957f7c6a12ea16e26","6622c0b5a3f5e707c22795ca","image grid","p","","","","","Ontogenetic_Distractor_Nonthreat_target","800","ongrid","p","7","Ontogenetic","true","experimental"
"","null","html-keyboard-response","125","178330","0.0-11.0-2.11","NAw3IORdyj","65c128e33e63ff895c314fbd","6617fad957f7c6a12ea16e26","6622c0b5a3f5e707c22795ca","
    <div id=""grid-container"">
        <!-- Grid items will be dynamically added here -->
    </div>    ","null","","","","","","","","","","","",""
"","null","html-keyboard-response","126","179034","0.0-11.0-0.12","NAw3IORdyj","65c128e33e63ff895c314fbd","6617fad957f7c6a12ea16e26","6622c0b5a3f5e707c22795ca","fixation cross","null","","","","","","","","","","","",""
"","null","html-keyboard-response","127","179836","0.0-11.0-1.12","NAw3IORdyj","65c128e33e63ff895c314fbd","6617fad957f7c6a12ea16e26","6622c0b5a3f5e707c22795ca","
        <div id=""grid-container"">
        <!-- Grid items will be dynamically added here -->
    </div>    ","null","","","","","","","","","","","",""
"","800","html-keyboard-response","128","184839","0.0-11.0-2.12","NAw3IORdyj","65c128e33e63ff895c314fbd","6617fad957f7c6a12ea16e26","6622c0b5a3f5e707c22795ca","mask grid","null","","","","","Ontogenetic_Distractor_Nonthreat_target","800","onmask","p","3","Ontogenetic","false","experimental"
"","null","html-keyboard-response","129","185543","0.0-11.0-0.13","NAw3IORdyj","65c128e33e63ff895c314fbd","6617fad957f7c6a12ea16e26","6622c0b5a3f5e707c22795ca","fixation cross","null","","","","","","","","","","","",""
"","747","html-keyboard-response","130","186291","0.0-11.0-1.13","NAw3IORdyj","65c128e33e63ff895c314fbd","6617fad957f7c6a12ea16e26","6622c0b5a3f5e707c22795ca","image grid","q","","","","","Ontogenetic_Distractor_Threat_target","800","ongrid","q","4","Ontogenetic","true","experimental"
"","null","html-keyboard-response","131","186443","0.0-11.0-2.13","NAw3IORdyj","65c128e33e63ff895c314fbd","6617fad957f7c6a12ea16e26","6622c0b5a3f5e707c22795ca","
    <div id=""grid-container"">
        <!-- Grid items will be dynamically added here -->
    </div>    ","null","","","","","","","","","","","",""
"","null","html-keyboard-response","132","187145","0.0-11.0-0.14","NAw3IORdyj","65c128e33e63ff895c314fbd","6617fad957f7c6a12ea16e26","6622c0b5a3f5e707c22795ca","fixation cross","null","","","","","","","","","","","",""
"","null","html-keyboard-response","133","187948","0.0-11.0-1.14","NAw3IORdyj","65c128e33e63ff895c314fbd","6617fad957f7c6a12ea16e26","6622c0b5a3f5e707c22795ca","
        <div id=""grid-container"">
        <!-- Grid items will be dynamically added here -->
    </div>    ","null","","","","","","","","","","","",""
"","800","html-keyboard-response","134","192950","0.0-11.0-2.14","NAw3IORdyj","65c128e33e63ff895c314fbd","6617fad957f7c6a12ea16e26","6622c0b5a3f5e707c22795ca","mask grid","null","","","","","Ontogenetic_Distractor_notarget","800","onmask"," ","6","Ontogenetic","false","experimental"
"","null","html-keyboard-response","135","193653","0.0-11.0-0.15","NAw3IORdyj","65c128e33e63ff895c314fbd","6617fad957f7c6a12ea16e26","6622c0b5a3f5e707c22795ca","fixation cross","null","","","","","","","","","","","",""
"","677","html-keyboard-response","136","194331","0.0-11.0-1.15","NAw3IORdyj","65c128e33e63ff895c314fbd","6617fad957f7c6a12ea16e26","6622c0b5a3f5e707c22795ca","image grid","q","","","","","Ontogenetic_Distractor_Threat_target","800","ongrid","q","7","Ontogenetic","true","experimental"
"","null","html-keyboard-response","137","194483","0.0-11.0-2.15","NAw3IORdyj","65c128e33e63ff895c314fbd","6617fad957f7c6a12ea16e26","6622c0b5a3f5e707c22795ca","
    <div id=""grid-container"">
        <!-- Grid items will be dynamically added here -->
    </div>    ","null","","","","","","","","","","","",""
"","null","html-keyboard-response","138","195184","0.0-11.0-0.16","NAw3IORdyj","65c128e33e63ff895c314fbd","6617fad957f7c6a12ea16e26","6622c0b5a3f5e707c22795ca","fixation cross","null","","","","","","","","","","","",""
"","633","html-keyboard-response","139","195818","0.0-11.0-1.16","NAw3IORdyj","65c128e33e63ff895c314fbd","6617fad957f7c6a12ea16e26","6622c0b5a3f5e707c22795ca","image grid","q","","","","","Ontogenetic_Distractor_Threat_target","800","ongrid","q","5","Ontogenetic","true","experimental"
"","null","html-keyboard-response","140","195971","0.0-11.0-2.16","NAw3IORdyj","65c128e33e63ff895c314fbd","6617fad957f7c6a12ea16e26","6622c0b5a3f5e707c22795ca","
    <div id=""grid-container"">
        <!-- Grid items will be dynamically added here -->
    </div>    ","null","","","","","","","","","","","",""
"","null","html-keyboard-response","141","196675","0.0-11.0-0.17","NAw3IORdyj","65c128e33e63ff895c314fbd","6617fad957f7c6a12ea16e26","6622c0b5a3f5e707c22795ca","fixation cross","null","","","","","","","","","","","",""
"","523","html-keyboard-response","142","197199","0.0-11.0-1.17","NAw3IORdyj","65c128e33e63ff895c314fbd","6617fad957f7c6a12ea16e26","6622c0b5a3f5e707c22795ca","image grid","p","","","","","Ontogenetic_Distractor_Threat_target","800","ongrid","q","3","Ontogenetic","false","experimental"
"","null","html-keyboard-response","143","197351","0.0-11.0-2.17","NAw3IORdyj","65c128e33e63ff895c314fbd","6617fad957f7c6a12ea16e26","6622c0b5a3f5e707c22795ca","
    <div id=""grid-container"">
        <!-- Grid items will be dynamically added here -->
    </div>    ","null","","","","","","","","","","","",""
"","null","html-keyboard-response","144","198056","0.0-11.0-0.18","NAw3IORdyj","65c128e33e63ff895c314fbd","6617fad957f7c6a12ea16e26","6622c0b5a3f5e707c22795ca","fixation cross","null","","","","","","","","","","","",""
"","782","html-keyboard-response","145","198839","0.0-11.0-1.18","NAw3IORdyj","65c128e33e63ff895c314fbd","6617fad957f7c6a12ea16e26","6622c0b5a3f5e707c22795ca","image grid","p","","","","","Ontogenetic_Distractor_notarget","800","ongrid"," ","5","Ontogenetic","false","experimental"
"","null","html-keyboard-response","146","198992","0.0-11.0-2.18","NAw3IORdyj","65c128e33e63ff895c314fbd","6617fad957f7c6a12ea16e26","6622c0b5a3f5e707c22795ca","
    <div id=""grid-container"">
        <!-- Grid items will be dynamically added here -->
    </div>    ","null","","","","","","","","","","","",""
"","null","html-keyboard-response","147","199696","0.0-11.0-0.19","NAw3IORdyj","65c128e33e63ff895c314fbd","6617fad957f7c6a12ea16e26","6622c0b5a3f5e707c22795ca","fixation cross","null","","","","","","","","","","","",""
"","768","html-keyboard-response","148","200465","0.0-11.0-1.19","NAw3IORdyj","65c128e33e63ff895c314fbd","6617fad957f7c6a12ea16e26","6622c0b5a3f5e707c22795ca","image grid","p","","","","","Ontogenetic_Distractor_Nonthreat_target","800","ongrid","p","1","Ontogenetic","true","experimental"
"","null","html-keyboard-response","149","200617","0.0-11.0-2.19","NAw3IORdyj","65c128e33e63ff895c314fbd","6617fad957f7c6a12ea16e26","6622c0b5a3f5e707c22795ca","
    <div id=""grid-container"">
        <!-- Grid items will be dynamically added here -->
    </div>    ","null","","","","","","","","","","","",""
"","null","html-keyboard-response","150","201321","0.0-11.0-0.20","NAw3IORdyj","65c128e33e63ff895c314fbd","6617fad957f7c6a12ea16e26","6622c0b5a3f5e707c22795ca","fixation cross","null","","","","","","","","","","","",""
"","726","html-keyboard-response","151","202048","0.0-11.0-1.20","NAw3IORdyj","65c128e33e63ff895c314fbd","6617fad957f7c6a12ea16e26","6622c0b5a3f5e707c22795ca","image grid","p","","","","","Ontogenetic_Distractor_Nonthreat_target","800","ongrid","p","4","Ontogenetic","true","experimental"
"","null","html-keyboard-response","152","202200","0.0-11.0-2.20","NAw3IORdyj","65c128e33e63ff895c314fbd","6617fad957f7c6a12ea16e26","6622c0b5a3f5e707c22795ca","
    <div id=""grid-container"">
        <!-- Grid items will be dynamically added here -->
    </div>    ","null","","","","","","","","","","","",""
"","null","html-keyboard-response","153","202903","0.0-11.0-0.21","NAw3IORdyj","65c128e33e63ff895c314fbd","6617fad957f7c6a12ea16e26","6622c0b5a3f5e707c22795ca","fixation cross","null","","","","","","","","","","","",""
"","null","html-keyboard-response","154","203706","0.0-11.0-1.21","NAw3IORdyj","65c128e33e63ff895c314fbd","6617fad957f7c6a12ea16e26","6622c0b5a3f5e707c22795ca","
        <div id=""grid-container"">
        <!-- Grid items will be dynamically added here -->
    </div>    ","null","","","","","","","","","","","",""
"","946","html-keyboard-response","155","203853","0.0-11.0-2.21","NAw3IORdyj","65c128e33e63ff895c314fbd","6617fad957f7c6a12ea16e26","6622c0b5a3f5e707c22795ca","mask grid"," ","","","","","Ontogenetic_Distractor_notarget","800","onmask"," ","7","Ontogenetic","true","experimental"
"","null","html-keyboard-response","156","204557","0.0-11.0-0.22","NAw3IORdyj","65c128e33e63ff895c314fbd","6617fad957f7c6a12ea16e26","6622c0b5a3f5e707c22795ca","fixation cross","null","","","","","","","","","","","",""
"","679","html-keyboard-response","157","205237","0.0-11.0-1.22","NAw3IORdyj","65c128e33e63ff895c314fbd","6617fad957f7c6a12ea16e26","6622c0b5a3f5e707c22795ca","image grid","q","","","","","Ontogenetic_Distractor_Threat_target","800","ongrid","q","9","Ontogenetic","true","experimental"
"","null","html-keyboard-response","158","205390","0.0-11.0-2.22","NAw3IORdyj","65c128e33e63ff895c314fbd","6617fad957f7c6a12ea16e26","6622c0b5a3f5e707c22795ca","
    <div id=""grid-container"">
        <!-- Grid items will be dynamically added here -->
    </div>    ","null","","","","","","","","","","","",""
"","null","html-keyboard-response","159","206093","0.0-11.0-0.23","NAw3IORdyj","65c128e33e63ff895c314fbd","6617fad957f7c6a12ea16e26","6622c0b5a3f5e707c22795ca","fixation cross","null","","","","","","","","","","","",""
"","788","html-keyboard-response","160","206882","0.0-11.0-1.23","NAw3IORdyj","65c128e33e63ff895c314fbd","6617fad957f7c6a12ea16e26","6622c0b5a3f5e707c22795ca","image grid","q","","","","","Ontogenetic_Distractor_Threat_target","800","ongrid","q","6","Ontogenetic","true","experimental"
"","null","html-keyboard-response","161","207034","0.0-11.0-2.23","NAw3IORdyj","65c128e33e63ff895c314fbd","6617fad957f7c6a12ea16e26","6622c0b5a3f5e707c22795ca","
    <div id=""grid-container"">
        <!-- Grid items will be dynamically added here -->
    </div>    ","null","","","","","","","","","","","",""
"","null","html-keyboard-response","162","207737","0.0-11.0-0.24","NAw3IORdyj","65c128e33e63ff895c314fbd","6617fad957f7c6a12ea16e26","6622c0b5a3f5e707c22795ca","fixation cross","null","","","","","","","","","","","",""
"","738","html-keyboard-response","163","208476","0.0-11.0-1.24","NAw3IORdyj","65c128e33e63ff895c314fbd","6617fad957f7c6a12ea16e26","6622c0b5a3f5e707c22795ca","image grid","q","","","","","Ontogenetic_Distractor_Threat_target","800","ongrid","q","2","Ontogenetic","true","experimental"
"","null","html-keyboard-response","164","208628","0.0-11.0-2.24","NAw3IORdyj","65c128e33e63ff895c314fbd","6617fad957f7c6a12ea16e26","6622c0b5a3f5e707c22795ca","
    <div id=""grid-container"">
        <!-- Grid items will be dynamically added here -->
    </div>    ","null","","","","","","","","","","","",""
"","null","html-keyboard-response","165","209332","0.0-11.0-0.25","NAw3IORdyj","65c128e33e63ff895c314fbd","6617fad957f7c6a12ea16e26","6622c0b5a3f5e707c22795ca","fixation cross","null","","","","","","","","","","","",""
"","700","html-keyboard-response","166","210033","0.0-11.0-1.25","NAw3IORdyj","65c128e33e63ff895c314fbd","6617fad957f7c6a12ea16e26","6622c0b5a3f5e707c22795ca","image grid","q","","","","","Ontogenetic_Distractor_Threat_target","800","ongrid","q","4","Ontogenetic","true","experimental"
"","null","html-keyboard-response","167","210185","0.0-11.0-2.25","NAw3IORdyj","65c128e33e63ff895c314fbd","6617fad957f7c6a12ea16e26","6622c0b5a3f5e707c22795ca","
    <div id=""grid-container"">
        <!-- Grid items will be dynamically added here -->
    </div>    ","null","","","","","","","","","","","",""
"","null","html-keyboard-response","168","210890","0.0-11.0-0.26","NAw3IORdyj","65c128e33e63ff895c314fbd","6617fad957f7c6a12ea16e26","6622c0b5a3f5e707c22795ca","fixation cross","null","","","","","","","","","","","",""
"","631","html-keyboard-response","169","211521","0.0-11.0-1.26","NAw3IORdyj","65c128e33e63ff895c314fbd","6617fad957f7c6a12ea16e26","6622c0b5a3f5e707c22795ca","image grid","p","","","","","Ontogenetic_Distractor_Nonthreat_target","800","ongrid","p","1","Ontogenetic","true","experimental"
"","null","html-keyboard-response","170","211673","0.0-11.0-2.26","NAw3IORdyj","65c128e33e63ff895c314fbd","6617fad957f7c6a12ea16e26","6622c0b5a3f5e707c22795ca","
    <div id=""grid-container"">
        <!-- Grid items will be dynamically added here -->
    </div>    ","null","","","","","","","","","","","",""
"","null","html-keyboard-response","171","212378","0.0-11.0-0.27","NAw3IORdyj","65c128e33e63ff895c314fbd","6617fad957f7c6a12ea16e26","6622c0b5a3f5e707c22795ca","fixation cross","null","","","","","","","","","","","",""
"","712","html-keyboard-response","172","213090","0.0-11.0-1.27","NAw3IORdyj","65c128e33e63ff895c314fbd","6617fad957f7c6a12ea16e26","6622c0b5a3f5e707c22795ca","image grid","p","","","","","Ontogenetic_Distractor_Nonthreat_target","800","ongrid","p","2","Ontogenetic","true","experimental"
"","null","html-keyboard-response","173","213243","0.0-11.0-2.27","NAw3IORdyj","65c128e33e63ff895c314fbd","6617fad957f7c6a12ea16e26","6622c0b5a3f5e707c22795ca","
    <div id=""grid-container"">
        <!-- Grid items will be dynamically added here -->
    </div>    ","null","","","","","","","","","","","",""
"","null","html-keyboard-response","174","213947","0.0-11.0-0.28","NAw3IORdyj","65c128e33e63ff895c314fbd","6617fad957f7c6a12ea16e26","6622c0b5a3f5e707c22795ca","fixation cross","null","","","","","","","","","","","",""
"","739","html-keyboard-response","175","214687","0.0-11.0-1.28","NAw3IORdyj","65c128e33e63ff895c314fbd","6617fad957f7c6a12ea16e26","6622c0b5a3f5e707c22795ca","image grid","p","","","","","Ontogenetic_Distractor_Nonthreat_target","800","ongrid","p","4","Ontogenetic","true","experimental"
"","null","html-keyboard-response","176","214839","0.0-11.0-2.28","NAw3IORdyj","65c128e33e63ff895c314fbd","6617fad957f7c6a12ea16e26","6622c0b5a3f5e707c22795ca","
    <div id=""grid-container"">
        <!-- Grid items will be dynamically added here -->
    </div>    ","null","","","","","","","","","","","",""
"","null","html-keyboard-response","177","215544","0.0-11.0-0.29","NAw3IORdyj","65c128e33e63ff895c314fbd","6617fad957f7c6a12ea16e26","6622c0b5a3f5e707c22795ca","fixation cross","null","","","","","","","","","","","",""
"","null","html-keyboard-response","178","216346","0.0-11.0-1.29","NAw3IORdyj","65c128e33e63ff895c314fbd","6617fad957f7c6a12ea16e26","6622c0b5a3f5e707c22795ca","
        <div id=""grid-container"">
        <!-- Grid items will be dynamically added here -->
    </div>    ","null","","","","","","","","","","","",""
"","898","html-keyboard-response","179","216445","0.0-11.0-2.29","NAw3IORdyj","65c128e33e63ff895c314fbd","6617fad957f7c6a12ea16e26","6622c0b5a3f5e707c22795ca","mask grid","q","","","","","Ontogenetic_Distractor_Threat_target","800","onmask","q","2","Ontogenetic","true","experimental"
"","null","html-keyboard-response","180","217148","0.0-11.0-0.30","NAw3IORdyj","65c128e33e63ff895c314fbd","6617fad957f7c6a12ea16e26","6622c0b5a3f5e707c22795ca","fixation cross","null","","","","","","","","","","","",""
"","null","html-keyboard-response","181","217951","0.0-11.0-1.30","NAw3IORdyj","65c128e33e63ff895c314fbd","6617fad957f7c6a12ea16e26","6622c0b5a3f5e707c22795ca","
        <div id=""grid-container"">
        <!-- Grid items will be dynamically added here -->
    </div>    ","null","","","","","","","","","","","",""
"","966","html-keyboard-response","182","218117","0.0-11.0-2.30","NAw3IORdyj","65c128e33e63ff895c314fbd","6617fad957f7c6a12ea16e26","6622c0b5a3f5e707c22795ca","mask grid","p","","","","","Ontogenetic_Distractor_Nonthreat_target","800","onmask","p","9","Ontogenetic","true","experimental"
"","null","html-keyboard-response","183","218822","0.0-11.0-0.31","NAw3IORdyj","65c128e33e63ff895c314fbd","6617fad957f7c6a12ea16e26","6622c0b5a3f5e707c22795ca","fixation cross","null","","","","","","","","","","","",""
"","null","html-keyboard-response","184","219625","0.0-11.0-1.31","NAw3IORdyj","65c128e33e63ff895c314fbd","6617fad957f7c6a12ea16e26","6622c0b5a3f5e707c22795ca","
        <div id=""grid-container"">
        <!-- Grid items will be dynamically added here -->
    </div>    ","null","","","","","","","","","","","",""
"","812","html-keyboard-response","185","219637","0.0-11.0-2.31","NAw3IORdyj","65c128e33e63ff895c314fbd","6617fad957f7c6a12ea16e26","6622c0b5a3f5e707c22795ca","mask grid","p","","","","","Ontogenetic_Distractor_Nonthreat_target","800","onmask","p","2","Ontogenetic","true","experimental"
"","null","html-keyboard-response","186","220341","0.0-11.0-0.32","NAw3IORdyj","65c128e33e63ff895c314fbd","6617fad957f7c6a12ea16e26","6622c0b5a3f5e707c22795ca","fixation cross","null","","","","","","","","","","","",""
"","768","html-keyboard-response","187","221110","0.0-11.0-1.32","NAw3IORdyj","65c128e33e63ff895c314fbd","6617fad957f7c6a12ea16e26","6622c0b5a3f5e707c22795ca","image grid","q","","","","","Ontogenetic_Distractor_Threat_target","800","ongrid","q","9","Ontogenetic","true","experimental"
"","null","html-keyboard-response","188","221262","0.0-11.0-2.32","NAw3IORdyj","65c128e33e63ff895c314fbd","6617fad957f7c6a12ea16e26","6622c0b5a3f5e707c22795ca","
    <div id=""grid-container"">
        <!-- Grid items will be dynamically added here -->
    </div>    ","null","","","","","","","","","","","",""
"","null","html-keyboard-response","189","221965","0.0-11.0-0.33","NAw3IORdyj","65c128e33e63ff895c314fbd","6617fad957f7c6a12ea16e26","6622c0b5a3f5e707c22795ca","fixation cross","null","","","","","","","","","","","",""
"","762","html-keyboard-response","190","222728","0.0-11.0-1.33","NAw3IORdyj","65c128e33e63ff895c314fbd","6617fad957f7c6a12ea16e26","6622c0b5a3f5e707c22795ca","image grid","p","","","","","Ontogenetic_Distractor_Nonthreat_target","800","ongrid","p","8","Ontogenetic","true","experimental"
"","null","html-keyboard-response","191","222881","0.0-11.0-2.33","NAw3IORdyj","65c128e33e63ff895c314fbd","6617fad957f7c6a12ea16e26","6622c0b5a3f5e707c22795ca","
    <div id=""grid-container"">
        <!-- Grid items will be dynamically added here -->
    </div>    ","null","","","","","","","","","","","",""
"","null","html-keyboard-response","192","223584","0.0-11.0-0.34","NAw3IORdyj","65c128e33e63ff895c314fbd","6617fad957f7c6a12ea16e26","6622c0b5a3f5e707c22795ca","fixation cross","null","","","","","","","","","","","",""
"","634","html-keyboard-response","193","224219","0.0-11.0-1.34","NAw3IORdyj","65c128e33e63ff895c314fbd","6617fad957f7c6a12ea16e26","6622c0b5a3f5e707c22795ca","image grid","p","","","","","Ontogenetic_Distractor_Nonthreat_target","800","ongrid","p","3","Ontogenetic","true","experimental"
"","null","html-keyboard-response","194","224371","0.0-11.0-2.34","NAw3IORdyj","65c128e33e63ff895c314fbd","6617fad957f7c6a12ea16e26","6622c0b5a3f5e707c22795ca","
    <div id=""grid-container"">
        <!-- Grid items will be dynamically added here -->
    </div>    ","null","","","","","","","","","","","",""
"","null","html-keyboard-response","195","225075","0.0-11.0-0.35","NAw3IORdyj","65c128e33e63ff895c314fbd","6617fad957f7c6a12ea16e26","6622c0b5a3f5e707c22795ca","fixation cross","null","","","","","","","","","","","",""
"","null","html-keyboard-response","196","225877","0.0-11.0-1.35","NAw3IORdyj","65c128e33e63ff895c314fbd","6617fad957f7c6a12ea16e26","6622c0b5a3f5e707c22795ca","
        <div id=""grid-container"">
        <!-- Grid items will be dynamically added here -->
    </div>    ","null","","","","","","","","","","","",""
"","812","html-keyboard-response","197","225890","0.0-11.0-2.35","NAw3IORdyj","65c128e33e63ff895c314fbd","6617fad957f7c6a12ea16e26","6622c0b5a3f5e707c22795ca","mask grid","q","","","","","Ontogenetic_Distractor_Threat_target","800","onmask","q","6","Ontogenetic","true","experimental"
"","null","html-keyboard-response","198","226594","0.0-11.0-0.36","NAw3IORdyj","65c128e33e63ff895c314fbd","6617fad957f7c6a12ea16e26","6622c0b5a3f5e707c22795ca","fixation cross","null","","","","","","","","","","","",""
"","621","html-keyboard-response","199","227215","0.0-11.0-1.36","NAw3IORdyj","65c128e33e63ff895c314fbd","6617fad957f7c6a12ea16e26","6622c0b5a3f5e707c22795ca","image grid","p","","","","","Ontogenetic_Distractor_Nonthreat_target","800","ongrid","p","6","Ontogenetic","true","experimental"
"","null","html-keyboard-response","200","227368","0.0-11.0-2.36","NAw3IORdyj","65c128e33e63ff895c314fbd","6617fad957f7c6a12ea16e26","6622c0b5a3f5e707c22795ca","
    <div id=""grid-container"">
        <!-- Grid items will be dynamically added here -->
    </div>    ","null","","","","","","","","","","","",""
"","null","html-keyboard-response","201","228072","0.0-11.0-0.37","NAw3IORdyj","65c128e33e63ff895c314fbd","6617fad957f7c6a12ea16e26","6622c0b5a3f5e707c22795ca","fixation cross","null","","","","","","","","","","","",""
"","605","html-keyboard-response","202","228678","0.0-11.0-1.37","NAw3IORdyj","65c128e33e63ff895c314fbd","6617fad957f7c6a12ea16e26","6622c0b5a3f5e707c22795ca","image grid","q","","","","","Ontogenetic_Distractor_Threat_target","800","ongrid","q","7","Ontogenetic","true","experimental"
"","null","html-keyboard-response","203","228831","0.0-11.0-2.37","NAw3IORdyj","65c128e33e63ff895c314fbd","6617fad957f7c6a12ea16e26","6622c0b5a3f5e707c22795ca","
    <div id=""grid-container"">
        <!-- Grid items will be dynamically added here -->
    </div>    ","null","","","","","","","","","","","",""
"","null","html-keyboard-response","204","229534","0.0-11.0-0.38","NAw3IORdyj","65c128e33e63ff895c314fbd","6617fad957f7c6a12ea16e26","6622c0b5a3f5e707c22795ca","fixation cross","null","","","","","","","","","","","",""
"","null","html-keyboard-response","205","230336","0.0-11.0-1.38","NAw3IORdyj","65c128e33e63ff895c314fbd","6617fad957f7c6a12ea16e26","6622c0b5a3f5e707c22795ca","
        <div id=""grid-container"">
        <!-- Grid items will be dynamically added here -->
    </div>    ","null","","","","","","","","","","","",""
"","939","html-keyboard-response","206","230476","0.0-11.0-2.38","NAw3IORdyj","65c128e33e63ff895c314fbd","6617fad957f7c6a12ea16e26","6622c0b5a3f5e707c22795ca","mask grid","p","","","","","Ontogenetic_Distractor_Threat_target","800","onmask","q","9","Ontogenetic","false","experimental"
"","null","html-keyboard-response","207","231179","0.0-11.0-0.39","NAw3IORdyj","65c128e33e63ff895c314fbd","6617fad957f7c6a12ea16e26","6622c0b5a3f5e707c22795ca","fixation cross","null","","","","","","","","","","","",""
"","763","html-keyboard-response","208","231943","0.0-11.0-1.39","NAw3IORdyj","65c128e33e63ff895c314fbd","6617fad957f7c6a12ea16e26","6622c0b5a3f5e707c22795ca","image grid","p","","","","","Ontogenetic_Distractor_Nonthreat_target","800","ongrid","p","1","Ontogenetic","true","experimental"
"","null","html-keyboard-response","209","232096","0.0-11.0-2.39","NAw3IORdyj","65c128e33e63ff895c314fbd","6617fad957f7c6a12ea16e26","6622c0b5a3f5e707c22795ca","
    <div id=""grid-container"">
        <!-- Grid items will be dynamically added here -->
    </div>    ","null","","","","","","","","","","","",""
"","20782","html-keyboard-response","210","253121","0.0-12.0","NAw3IORdyj","65c128e33e63ff895c314fbd","6617fad957f7c6a12ea16e26","6622c0b5a3f5e707c22795ca","break screen"," ","","","","","","","","","","","",""
"","null","html-keyboard-response","211","255659","0.0-13.0-0.0","NAw3IORdyj","65c128e33e63ff895c314fbd","6617fad957f7c6a12ea16e26","6622c0b5a3f5e707c22795ca","fixation cross","null","","","","","","","","","","","",""
"","566","html-keyboard-response","212","256226","0.0-13.0-1.0","NAw3IORdyj","65c128e33e63ff895c314fbd","6617fad957f7c6a12ea16e26","6622c0b5a3f5e707c22795ca","image grid","q","","","","","Phylogenetic_Distractor_Nonthreat_target","2500","ongrid","p","1","Phylogenetic","false","experimental"
"","null","html-keyboard-response","213","256379","0.0-13.0-2.0","NAw3IORdyj","65c128e33e63ff895c314fbd","6617fad957f7c6a12ea16e26","6622c0b5a3f5e707c22795ca","
    <div id=""grid-container"">
        <!-- Grid items will be dynamically added here -->
    </div>    ","null","","","","","","","","","","","",""
"","null","html-keyboard-response","214","257083","0.0-13.0-0.1","NAw3IORdyj","65c128e33e63ff895c314fbd","6617fad957f7c6a12ea16e26","6622c0b5a3f5e707c22795ca","fixation cross","null","","","","","","","","","","","",""
"","743","html-keyboard-response","215","257826","0.0-13.0-1.1","NAw3IORdyj","65c128e33e63ff895c314fbd","6617fad957f7c6a12ea16e26","6622c0b5a3f5e707c22795ca","image grid","p","","","","","Phylogenetic_Distractor_Nonthreat_target","2500","ongrid","p","2","Phylogenetic","true","experimental"
"","null","html-keyboard-response","216","257979","0.0-13.0-2.1","NAw3IORdyj","65c128e33e63ff895c314fbd","6617fad957f7c6a12ea16e26","6622c0b5a3f5e707c22795ca","
    <div id=""grid-container"">
        <!-- Grid items will be dynamically added here -->
    </div>    ","null","","","","","","","","","","","",""
"","null","html-keyboard-response","217","258682","0.0-13.0-0.2","NAw3IORdyj","65c128e33e63ff895c314fbd","6617fad957f7c6a12ea16e26","6622c0b5a3f5e707c22795ca","fixation cross","null","","","","","","","","","","","",""
"","873","html-keyboard-response","218","259556","0.0-13.0-1.2","NAw3IORdyj","65c128e33e63ff895c314fbd","6617fad957f7c6a12ea16e26","6622c0b5a3f5e707c22795ca","image grid"," ","","","","","Phylogenetic_Distractor_notarget","2500","ongrid"," ","5","Phylogenetic","true","experimental"
"","null","html-keyboard-response","219","259708","0.0-13.0-2.2","NAw3IORdyj","65c128e33e63ff895c314fbd","6617fad957f7c6a12ea16e26","6622c0b5a3f5e707c22795ca","
    <div id=""grid-container"">
        <!-- Grid items will be dynamically added here -->
    </div>    ","null","","","","","","","","","","","",""
"","null","html-keyboard-response","220","260412","0.0-13.0-0.3","NAw3IORdyj","65c128e33e63ff895c314fbd","6617fad957f7c6a12ea16e26","6622c0b5a3f5e707c22795ca","fixation cross","null","","","","","","","","","","","",""
"","1040","html-keyboard-response","221","261452","0.0-13.0-1.3","NAw3IORdyj","65c128e33e63ff895c314fbd","6617fad957f7c6a12ea16e26","6622c0b5a3f5e707c22795ca","image grid","p","","","","","Phylogenetic_Distractor_Nonthreat_target","2500","ongrid","p","1","Phylogenetic","true","experimental"
"","null","html-keyboard-response","222","261605","0.0-13.0-2.3","NAw3IORdyj","65c128e33e63ff895c314fbd","6617fad957f7c6a12ea16e26","6622c0b5a3f5e707c22795ca","
    <div id=""grid-container"">
        <!-- Grid items will be dynamically added here -->
    </div>    ","null","","","","","","","","","","","",""
"","null","html-keyboard-response","223","262309","0.0-13.0-0.4","NAw3IORdyj","65c128e33e63ff895c314fbd","6617fad957f7c6a12ea16e26","6622c0b5a3f5e707c22795ca","fixation cross","null","","","","","","","","","","","",""
"","1115","html-keyboard-response","224","263426","0.0-13.0-1.4","NAw3IORdyj","65c128e33e63ff895c314fbd","6617fad957f7c6a12ea16e26","6622c0b5a3f5e707c22795ca","image grid","p","","","","","Phylogenetic_Distractor_Nonthreat_target","2500","ongrid","p","4","Phylogenetic","true","experimental"
"","null","html-keyboard-response","225","263579","0.0-13.0-2.4","NAw3IORdyj","65c128e33e63ff895c314fbd","6617fad957f7c6a12ea16e26","6622c0b5a3f5e707c22795ca","
    <div id=""grid-container"">
        <!-- Grid items will be dynamically added here -->
    </div>    ","null","","","","","","","","","","","",""
"","null","html-keyboard-response","226","264283","0.0-13.0-0.5","NAw3IORdyj","65c128e33e63ff895c314fbd","6617fad957f7c6a12ea16e26","6622c0b5a3f5e707c22795ca","fixation cross","null","","","","","","","","","","","",""
"","892","html-keyboard-response","227","265175","0.0-13.0-1.5","NAw3IORdyj","65c128e33e63ff895c314fbd","6617fad957f7c6a12ea16e26","6622c0b5a3f5e707c22795ca","image grid","q","","","","","Phylogenetic_Distractor_Threat_target","2500","ongrid","q","6","Phylogenetic","true","experimental"
"","null","html-keyboard-response","228","265327","0.0-13.0-2.5","NAw3IORdyj","65c128e33e63ff895c314fbd","6617fad957f7c6a12ea16e26","6622c0b5a3f5e707c22795ca","
    <div id=""grid-container"">
        <!-- Grid items will be dynamically added here -->
    </div>    ","null","","","","","","","","","","","",""
"","null","html-keyboard-response","229","266030","0.0-13.0-0.6","NAw3IORdyj","65c128e33e63ff895c314fbd","6617fad957f7c6a12ea16e26","6622c0b5a3f5e707c22795ca","fixation cross","null","","","","","","","","","","","",""
"","816","html-keyboard-response","230","266847","0.0-13.0-1.6","NAw3IORdyj","65c128e33e63ff895c314fbd","6617fad957f7c6a12ea16e26","6622c0b5a3f5e707c22795ca","image grid","q","","","","","Phylogenetic_Distractor_Threat_target","2500","ongrid","q","6","Phylogenetic","true","experimental"
"","null","html-keyboard-response","231","266999","0.0-13.0-2.6","NAw3IORdyj","65c128e33e63ff895c314fbd","6617fad957f7c6a12ea16e26","6622c0b5a3f5e707c22795ca","
    <div id=""grid-container"">
        <!-- Grid items will be dynamically added here -->
    </div>    ","null","","","","","","","","","","","",""
"","null","html-keyboard-response","232","267704","0.0-13.0-0.7","NAw3IORdyj","65c128e33e63ff895c314fbd","6617fad957f7c6a12ea16e26","6622c0b5a3f5e707c22795ca","fixation cross","null","","","","","","","","","","","",""
"","972","html-keyboard-response","233","268676","0.0-13.0-1.7","NAw3IORdyj","65c128e33e63ff895c314fbd","6617fad957f7c6a12ea16e26","6622c0b5a3f5e707c22795ca","image grid","p","","","","","Phylogenetic_Distractor_Nonthreat_target","2500","ongrid","p","7","Phylogenetic","true","experimental"
"","null","html-keyboard-response","234","268829","0.0-13.0-2.7","NAw3IORdyj","65c128e33e63ff895c314fbd","6617fad957f7c6a12ea16e26","6622c0b5a3f5e707c22795ca","
    <div id=""grid-container"">
        <!-- Grid items will be dynamically added here -->
    </div>    ","null","","","","","","","","","","","",""
"","null","html-keyboard-response","235","269533","0.0-13.0-0.8","NAw3IORdyj","65c128e33e63ff895c314fbd","6617fad957f7c6a12ea16e26","6622c0b5a3f5e707c22795ca","fixation cross","null","","","","","","","","","","","",""
"","774","html-keyboard-response","236","270307","0.0-13.0-1.8","NAw3IORdyj","65c128e33e63ff895c314fbd","6617fad957f7c6a12ea16e26","6622c0b5a3f5e707c22795ca","image grid","q","","","","","Phylogenetic_Distractor_Threat_target","2500","ongrid","q","9","Phylogenetic","true","experimental"
"","null","html-keyboard-response","237","270460","0.0-13.0-2.8","NAw3IORdyj","65c128e33e63ff895c314fbd","6617fad957f7c6a12ea16e26","6622c0b5a3f5e707c22795ca","
    <div id=""grid-container"">
        <!-- Grid items will be dynamically added here -->
    </div>    ","null","","","","","","","","","","","",""
"","null","html-keyboard-response","238","271163","0.0-13.0-0.9","NAw3IORdyj","65c128e33e63ff895c314fbd","6617fad957f7c6a12ea16e26","6622c0b5a3f5e707c22795ca","fixation cross","null","","","","","","","","","","","",""
"","756","html-keyboard-response","239","271919","0.0-13.0-1.9","NAw3IORdyj","65c128e33e63ff895c314fbd","6617fad957f7c6a12ea16e26","6622c0b5a3f5e707c22795ca","image grid","p","","","","","Phylogenetic_Distractor_Nonthreat_target","2500","ongrid","p","5","Phylogenetic","true","experimental"
"","null","html-keyboard-response","240","272072","0.0-13.0-2.9","NAw3IORdyj","65c128e33e63ff895c314fbd","6617fad957f7c6a12ea16e26","6622c0b5a3f5e707c22795ca","
    <div id=""grid-container"">
        <!-- Grid items will be dynamically added here -->
    </div>    ","null","","","","","","","","","","","",""
"","null","html-keyboard-response","241","272775","0.0-13.0-0.10","NAw3IORdyj","65c128e33e63ff895c314fbd","6617fad957f7c6a12ea16e26","6622c0b5a3f5e707c22795ca","fixation cross","null","","","","","","","","","","","",""
"","841","html-keyboard-response","242","273617","0.0-13.0-1.10","NAw3IORdyj","65c128e33e63ff895c314fbd","6617fad957f7c6a12ea16e26","6622c0b5a3f5e707c22795ca","image grid","q","","","","","Phylogenetic_Distractor_Threat_target","2500","ongrid","q","6","Phylogenetic","true","experimental"
"","null","html-keyboard-response","243","273770","0.0-13.0-2.10","NAw3IORdyj","65c128e33e63ff895c314fbd","6617fad957f7c6a12ea16e26","6622c0b5a3f5e707c22795ca","
    <div id=""grid-container"">
        <!-- Grid items will be dynamically added here -->
    </div>    ","null","","","","","","","","","","","",""
"","null","html-keyboard-response","244","274473","0.0-13.0-0.11","NAw3IORdyj","65c128e33e63ff895c314fbd","6617fad957f7c6a12ea16e26","6622c0b5a3f5e707c22795ca","fixation cross","null","","","","","","","","","","","",""
"","856","html-keyboard-response","245","275329","0.0-13.0-1.11","NAw3IORdyj","65c128e33e63ff895c314fbd","6617fad957f7c6a12ea16e26","6622c0b5a3f5e707c22795ca","image grid","p","","","","","Phylogenetic_Distractor_Nonthreat_target","2500","ongrid","p","2","Phylogenetic","true","experimental"
"","null","html-keyboard-response","246","275482","0.0-13.0-2.11","NAw3IORdyj","65c128e33e63ff895c314fbd","6617fad957f7c6a12ea16e26","6622c0b5a3f5e707c22795ca","
    <div id=""grid-container"">
        <!-- Grid items will be dynamically added here -->
    </div>    ","null","","","","","","","","","","","",""
"","null","html-keyboard-response","247","276186","0.0-13.0-0.12","NAw3IORdyj","65c128e33e63ff895c314fbd","6617fad957f7c6a12ea16e26","6622c0b5a3f5e707c22795ca","fixation cross","null","","","","","","","","","","","",""
"","913","html-keyboard-response","248","277099","0.0-13.0-1.12","NAw3IORdyj","65c128e33e63ff895c314fbd","6617fad957f7c6a12ea16e26","6622c0b5a3f5e707c22795ca","image grid","p","","","","","Phylogenetic_Distractor_Nonthreat_target","2500","ongrid","p","1","Phylogenetic","true","experimental"
"","null","html-keyboard-response","249","277251","0.0-13.0-2.12","NAw3IORdyj","65c128e33e63ff895c314fbd","6617fad957f7c6a12ea16e26","6622c0b5a3f5e707c22795ca","
    <div id=""grid-container"">
        <!-- Grid items will be dynamically added here -->
    </div>    ","null","","","","","","","","","","","",""
"","null","html-keyboard-response","250","277954","0.0-13.0-0.13","NAw3IORdyj","65c128e33e63ff895c314fbd","6617fad957f7c6a12ea16e26","6622c0b5a3f5e707c22795ca","fixation cross","null","","","","","","","","","","","",""
"","674","html-keyboard-response","251","278629","0.0-13.0-1.13","NAw3IORdyj","65c128e33e63ff895c314fbd","6617fad957f7c6a12ea16e26","6622c0b5a3f5e707c22795ca","image grid","q","","","","","Phylogenetic_Distractor_Threat_target","2500","ongrid","q","2","Phylogenetic","true","experimental"
"","null","html-keyboard-response","252","278781","0.0-13.0-2.13","NAw3IORdyj","65c128e33e63ff895c314fbd","6617fad957f7c6a12ea16e26","6622c0b5a3f5e707c22795ca","
    <div id=""grid-container"">
        <!-- Grid items will be dynamically added here -->
    </div>    ","null","","","","","","","","","","","",""
"","null","html-keyboard-response","253","279484","0.0-13.0-0.14","NAw3IORdyj","65c128e33e63ff895c314fbd","6617fad957f7c6a12ea16e26","6622c0b5a3f5e707c22795ca","fixation cross","null","","","","","","","","","","","",""
"","769","html-keyboard-response","254","280253","0.0-13.0-1.14","NAw3IORdyj","65c128e33e63ff895c314fbd","6617fad957f7c6a12ea16e26","6622c0b5a3f5e707c22795ca","image grid","p","","","","","Phylogenetic_Distractor_Nonthreat_target","2500","ongrid","p","9","Phylogenetic","true","experimental"
"","null","html-keyboard-response","255","280405","0.0-13.0-2.14","NAw3IORdyj","65c128e33e63ff895c314fbd","6617fad957f7c6a12ea16e26","6622c0b5a3f5e707c22795ca","
    <div id=""grid-container"">
        <!-- Grid items will be dynamically added here -->
    </div>    ","null","","","","","","","","","","","",""
"","null","html-keyboard-response","256","281108","0.0-13.0-0.15","NAw3IORdyj","65c128e33e63ff895c314fbd","6617fad957f7c6a12ea16e26","6622c0b5a3f5e707c22795ca","fixation cross","null","","","","","","","","","","","",""
"","703","html-keyboard-response","257","281811","0.0-13.0-1.15","NAw3IORdyj","65c128e33e63ff895c314fbd","6617fad957f7c6a12ea16e26","6622c0b5a3f5e707c22795ca","image grid","q","","","","","Phylogenetic_Distractor_Threat_target","2500","ongrid","q","1","Phylogenetic","true","experimental"
"","null","html-keyboard-response","258","281964","0.0-13.0-2.15","NAw3IORdyj","65c128e33e63ff895c314fbd","6617fad957f7c6a12ea16e26","6622c0b5a3f5e707c22795ca","
    <div id=""grid-container"">
        <!-- Grid items will be dynamically added here -->
    </div>    ","null","","","","","","","","","","","",""
"","null","html-keyboard-response","259","282668","0.0-13.0-0.16","NAw3IORdyj","65c128e33e63ff895c314fbd","6617fad957f7c6a12ea16e26","6622c0b5a3f5e707c22795ca","fixation cross","null","","","","","","","","","","","",""
"","912","html-keyboard-response","260","283581","0.0-13.0-1.16","NAw3IORdyj","65c128e33e63ff895c314fbd","6617fad957f7c6a12ea16e26","6622c0b5a3f5e707c22795ca","image grid","p","","","","","Phylogenetic_Distractor_Nonthreat_target","2500","ongrid","p","9","Phylogenetic","true","experimental"
"","null","html-keyboard-response","261","283735","0.0-13.0-2.16","NAw3IORdyj","65c128e33e63ff895c314fbd","6617fad957f7c6a12ea16e26","6622c0b5a3f5e707c22795ca","
    <div id=""grid-container"">
        <!-- Grid items will be dynamically added here -->
    </div>    ","null","","","","","","","","","","","",""
"","null","html-keyboard-response","262","284438","0.0-13.0-0.17","NAw3IORdyj","65c128e33e63ff895c314fbd","6617fad957f7c6a12ea16e26","6622c0b5a3f5e707c22795ca","fixation cross","null","","","","","","","","","","","",""
"","673","html-keyboard-response","263","285111","0.0-13.0-1.17","NAw3IORdyj","65c128e33e63ff895c314fbd","6617fad957f7c6a12ea16e26","6622c0b5a3f5e707c22795ca","image grid","q","","","","","Phylogenetic_Distractor_Threat_target","2500","ongrid","q","9","Phylogenetic","true","experimental"
"","null","html-keyboard-response","264","285264","0.0-13.0-2.17","NAw3IORdyj","65c128e33e63ff895c314fbd","6617fad957f7c6a12ea16e26","6622c0b5a3f5e707c22795ca","
    <div id=""grid-container"">
        <!-- Grid items will be dynamically added here -->
    </div>    ","null","","","","","","","","","","","",""
"","null","html-keyboard-response","265","285968","0.0-13.0-0.18","NAw3IORdyj","65c128e33e63ff895c314fbd","6617fad957f7c6a12ea16e26","6622c0b5a3f5e707c22795ca","fixation cross","null","","","","","","","","","","","",""
"","569","html-keyboard-response","266","286538","0.0-13.0-1.18","NAw3IORdyj","65c128e33e63ff895c314fbd","6617fad957f7c6a12ea16e26","6622c0b5a3f5e707c22795ca","image grid","p","","","","","Phylogenetic_Distractor_Threat_target","2500","ongrid","q","5","Phylogenetic","false","experimental"
"","null","html-keyboard-response","267","286691","0.0-13.0-2.18","NAw3IORdyj","65c128e33e63ff895c314fbd","6617fad957f7c6a12ea16e26","6622c0b5a3f5e707c22795ca","
    <div id=""grid-container"">
        <!-- Grid items will be dynamically added here -->
    </div>    ","null","","","","","","","","","","","",""
"","null","html-keyboard-response","268","287394","0.0-13.0-0.19","NAw3IORdyj","65c128e33e63ff895c314fbd","6617fad957f7c6a12ea16e26","6622c0b5a3f5e707c22795ca","fixation cross","null","","","","","","","","","","","",""
"","779","html-keyboard-response","269","288174","0.0-13.0-1.19","NAw3IORdyj","65c128e33e63ff895c314fbd","6617fad957f7c6a12ea16e26","6622c0b5a3f5e707c22795ca","image grid","q","","","","","Phylogenetic_Distractor_Nonthreat_target","2500","ongrid","p","4","Phylogenetic","false","experimental"
"","null","html-keyboard-response","270","288327","0.0-13.0-2.19","NAw3IORdyj","65c128e33e63ff895c314fbd","6617fad957f7c6a12ea16e26","6622c0b5a3f5e707c22795ca","
    <div id=""grid-container"">
        <!-- Grid items will be dynamically added here -->
    </div>    ","null","","","","","","","","","","","",""
"","null","html-keyboard-response","271","289031","0.0-13.0-0.20","NAw3IORdyj","65c128e33e63ff895c314fbd","6617fad957f7c6a12ea16e26","6622c0b5a3f5e707c22795ca","fixation cross","null","","","","","","","","","","","",""
"","606","html-keyboard-response","272","289638","0.0-13.0-1.20","NAw3IORdyj","65c128e33e63ff895c314fbd","6617fad957f7c6a12ea16e26","6622c0b5a3f5e707c22795ca","image grid","p","","","","","Phylogenetic_Distractor_Threat_target","2500","ongrid","q","9","Phylogenetic","false","experimental"
"","null","html-keyboard-response","273","289790","0.0-13.0-2.20","NAw3IORdyj","65c128e33e63ff895c314fbd","6617fad957f7c6a12ea16e26","6622c0b5a3f5e707c22795ca","
    <div id=""grid-container"">
        <!-- Grid items will be dynamically added here -->
    </div>    ","null","","","","","","","","","","","",""
"","null","html-keyboard-response","274","290495","0.0-13.0-0.21","NAw3IORdyj","65c128e33e63ff895c314fbd","6617fad957f7c6a12ea16e26","6622c0b5a3f5e707c22795ca","fixation cross","null","","","","","","","","","","","",""
"","966","html-keyboard-response","275","291461","0.0-13.0-1.21","NAw3IORdyj","65c128e33e63ff895c314fbd","6617fad957f7c6a12ea16e26","6622c0b5a3f5e707c22795ca","image grid"," ","","","","","Phylogenetic_Distractor_notarget","2500","ongrid"," ","7","Phylogenetic","true","experimental"
"","null","html-keyboard-response","276","291613","0.0-13.0-2.21","NAw3IORdyj","65c128e33e63ff895c314fbd","6617fad957f7c6a12ea16e26","6622c0b5a3f5e707c22795ca","
    <div id=""grid-container"">
        <!-- Grid items will be dynamically added here -->
    </div>    ","null","","","","","","","","","","","",""
"","null","html-keyboard-response","277","292317","0.0-13.0-0.22","NAw3IORdyj","65c128e33e63ff895c314fbd","6617fad957f7c6a12ea16e26","6622c0b5a3f5e707c22795ca","fixation cross","null","","","","","","","","","","","",""
"","696","html-keyboard-response","278","293013","0.0-13.0-1.22","NAw3IORdyj","65c128e33e63ff895c314fbd","6617fad957f7c6a12ea16e26","6622c0b5a3f5e707c22795ca","image grid","q","","","","","Phylogenetic_Distractor_Threat_target","2500","ongrid","q","5","Phylogenetic","true","experimental"
"","null","html-keyboard-response","279","293167","0.0-13.0-2.22","NAw3IORdyj","65c128e33e63ff895c314fbd","6617fad957f7c6a12ea16e26","6622c0b5a3f5e707c22795ca","
    <div id=""grid-container"">
        <!-- Grid items will be dynamically added here -->
    </div>    ","null","","","","","","","","","","","",""
"","null","html-keyboard-response","280","293871","0.0-13.0-0.23","NAw3IORdyj","65c128e33e63ff895c314fbd","6617fad957f7c6a12ea16e26","6622c0b5a3f5e707c22795ca","fixation cross","null","","","","","","","","","","","",""
"","590","html-keyboard-response","281","294461","0.0-13.0-1.23","NAw3IORdyj","65c128e33e63ff895c314fbd","6617fad957f7c6a12ea16e26","6622c0b5a3f5e707c22795ca","image grid","q","","","","","Phylogenetic_Distractor_Threat_target","2500","ongrid","q","4","Phylogenetic","true","experimental"
"","null","html-keyboard-response","282","294615","0.0-13.0-2.23","NAw3IORdyj","65c128e33e63ff895c314fbd","6617fad957f7c6a12ea16e26","6622c0b5a3f5e707c22795ca","
    <div id=""grid-container"">
        <!-- Grid items will be dynamically added here -->
    </div>    ","null","","","","","","","","","","","",""
"","null","html-keyboard-response","283","295317","0.0-13.0-0.24","NAw3IORdyj","65c128e33e63ff895c314fbd","6617fad957f7c6a12ea16e26","6622c0b5a3f5e707c22795ca","fixation cross","null","","","","","","","","","","","",""
"","891","html-keyboard-response","284","296208","0.0-13.0-1.24","NAw3IORdyj","65c128e33e63ff895c314fbd","6617fad957f7c6a12ea16e26","6622c0b5a3f5e707c22795ca","image grid","p","","","","","Phylogenetic_Distractor_Nonthreat_target","2500","ongrid","p","8","Phylogenetic","true","experimental"
"","null","html-keyboard-response","285","296360","0.0-13.0-2.24","NAw3IORdyj","65c128e33e63ff895c314fbd","6617fad957f7c6a12ea16e26","6622c0b5a3f5e707c22795ca","
    <div id=""grid-container"">
        <!-- Grid items will be dynamically added here -->
    </div>    ","null","","","","","","","","","","","",""
"","null","html-keyboard-response","286","297062","0.0-13.0-0.25","NAw3IORdyj","65c128e33e63ff895c314fbd","6617fad957f7c6a12ea16e26","6622c0b5a3f5e707c22795ca","fixation cross","null","","","","","","","","","","","",""
"","872","html-keyboard-response","287","297935","0.0-13.0-1.25","NAw3IORdyj","65c128e33e63ff895c314fbd","6617fad957f7c6a12ea16e26","6622c0b5a3f5e707c22795ca","image grid"," ","","","","","Phylogenetic_Distractor_notarget","2500","ongrid"," ","4","Phylogenetic","true","experimental"
"","null","html-keyboard-response","288","298087","0.0-13.0-2.25","NAw3IORdyj","65c128e33e63ff895c314fbd","6617fad957f7c6a12ea16e26","6622c0b5a3f5e707c22795ca","
    <div id=""grid-container"">
        <!-- Grid items will be dynamically added here -->
    </div>    ","null","","","","","","","","","","","",""
"","null","html-keyboard-response","289","298789","0.0-13.0-0.26","NAw3IORdyj","65c128e33e63ff895c314fbd","6617fad957f7c6a12ea16e26","6622c0b5a3f5e707c22795ca","fixation cross","null","","","","","","","","","","","",""
"","916","html-keyboard-response","290","299706","0.0-13.0-1.26","NAw3IORdyj","65c128e33e63ff895c314fbd","6617fad957f7c6a12ea16e26","6622c0b5a3f5e707c22795ca","image grid","p","","","","","Phylogenetic_Distractor_Nonthreat_target","2500","ongrid","p","4","Phylogenetic","true","experimental"
"","null","html-keyboard-response","291","299858","0.0-13.0-2.26","NAw3IORdyj","65c128e33e63ff895c314fbd","6617fad957f7c6a12ea16e26","6622c0b5a3f5e707c22795ca","
    <div id=""grid-container"">
        <!-- Grid items will be dynamically added here -->
    </div>    ","null","","","","","","","","","","","",""
"","null","html-keyboard-response","292","300561","0.0-13.0-0.27","NAw3IORdyj","65c128e33e63ff895c314fbd","6617fad957f7c6a12ea16e26","6622c0b5a3f5e707c22795ca","fixation cross","null","","","","","","","","","","","",""
"","1113","html-keyboard-response","293","301674","0.0-13.0-1.27","NAw3IORdyj","65c128e33e63ff895c314fbd","6617fad957f7c6a12ea16e26","6622c0b5a3f5e707c22795ca","image grid","q","","","","","Phylogenetic_Distractor_Nonthreat_target","2500","ongrid","p","4","Phylogenetic","false","experimental"
"","null","html-keyboard-response","294","301826","0.0-13.0-2.27","NAw3IORdyj","65c128e33e63ff895c314fbd","6617fad957f7c6a12ea16e26","6622c0b5a3f5e707c22795ca","
    <div id=""grid-container"">
        <!-- Grid items will be dynamically added here -->
    </div>    ","null","","","","","","","","","","","",""
"","null","html-keyboard-response","295","302530","0.0-13.0-0.28","NAw3IORdyj","65c128e33e63ff895c314fbd","6617fad957f7c6a12ea16e26","6622c0b5a3f5e707c22795ca","fixation cross","null","","","","","","","","","","","",""
"","819","html-keyboard-response","296","303349","0.0-13.0-1.28","NAw3IORdyj","65c128e33e63ff895c314fbd","6617fad957f7c6a12ea16e26","6622c0b5a3f5e707c22795ca","image grid","q","","","","","Phylogenetic_Distractor_Nonthreat_target","2500","ongrid","p","2","Phylogenetic","false","experimental"
"","null","html-keyboard-response","297","303503","0.0-13.0-2.28","NAw3IORdyj","65c128e33e63ff895c314fbd","6617fad957f7c6a12ea16e26","6622c0b5a3f5e707c22795ca","
    <div id=""grid-container"">
        <!-- Grid items will be dynamically added here -->
    </div>    ","null","","","","","","","","","","","",""
"","null","html-keyboard-response","298","304207","0.0-13.0-0.29","NAw3IORdyj","65c128e33e63ff895c314fbd","6617fad957f7c6a12ea16e26","6622c0b5a3f5e707c22795ca","fixation cross","null","","","","","","","","","","","",""
"","655","html-keyboard-response","299","304863","0.0-13.0-1.29","NAw3IORdyj","65c128e33e63ff895c314fbd","6617fad957f7c6a12ea16e26","6622c0b5a3f5e707c22795ca","image grid","p","","","","","Phylogenetic_Distractor_Threat_target","2500","ongrid","q","4","Phylogenetic","false","experimental"
"","null","html-keyboard-response","300","305015","0.0-13.0-2.29","NAw3IORdyj","65c128e33e63ff895c314fbd","6617fad957f7c6a12ea16e26","6622c0b5a3f5e707c22795ca","
    <div id=""grid-container"">
        <!-- Grid items will be dynamically added here -->
    </div>    ","null","","","","","","","","","","","",""
"","null","html-keyboard-response","301","305719","0.0-13.0-0.30","NAw3IORdyj","65c128e33e63ff895c314fbd","6617fad957f7c6a12ea16e26","6622c0b5a3f5e707c22795ca","fixation cross","null","","","","","","","","","","","",""
"","855","html-keyboard-response","302","306576","0.0-13.0-1.30","NAw3IORdyj","65c128e33e63ff895c314fbd","6617fad957f7c6a12ea16e26","6622c0b5a3f5e707c22795ca","image grid","q","","","","","Phylogenetic_Distractor_Threat_target","2500","ongrid","q","7","Phylogenetic","true","experimental"
"","null","html-keyboard-response","303","306729","0.0-13.0-2.30","NAw3IORdyj","65c128e33e63ff895c314fbd","6617fad957f7c6a12ea16e26","6622c0b5a3f5e707c22795ca","
    <div id=""grid-container"">
        <!-- Grid items will be dynamically added here -->
    </div>    ","null","","","","","","","","","","","",""
"","null","html-keyboard-response","304","307433","0.0-13.0-0.31","NAw3IORdyj","65c128e33e63ff895c314fbd","6617fad957f7c6a12ea16e26","6622c0b5a3f5e707c22795ca","fixation cross","null","","","","","","","","","","","",""
"","657","html-keyboard-response","305","308091","0.0-13.0-1.31","NAw3IORdyj","65c128e33e63ff895c314fbd","6617fad957f7c6a12ea16e26","6622c0b5a3f5e707c22795ca","image grid","q","","","","","Phylogenetic_Distractor_Threat_target","2500","ongrid","q","5","Phylogenetic","true","experimental"
"","null","html-keyboard-response","306","308243","0.0-13.0-2.31","NAw3IORdyj","65c128e33e63ff895c314fbd","6617fad957f7c6a12ea16e26","6622c0b5a3f5e707c22795ca","
    <div id=""grid-container"">
        <!-- Grid items will be dynamically added here -->
    </div>    ","null","","","","","","","","","","","",""
"","null","html-keyboard-response","307","308947","0.0-13.0-0.32","NAw3IORdyj","65c128e33e63ff895c314fbd","6617fad957f7c6a12ea16e26","6622c0b5a3f5e707c22795ca","fixation cross","null","","","","","","","","","","","",""
"","810","html-keyboard-response","308","309758","0.0-13.0-1.32","NAw3IORdyj","65c128e33e63ff895c314fbd","6617fad957f7c6a12ea16e26","6622c0b5a3f5e707c22795ca","image grid","q","","","","","Phylogenetic_Distractor_Threat_target","2500","ongrid","q","6","Phylogenetic","true","experimental"
"","null","html-keyboard-response","309","309911","0.0-13.0-2.32","NAw3IORdyj","65c128e33e63ff895c314fbd","6617fad957f7c6a12ea16e26","6622c0b5a3f5e707c22795ca","
    <div id=""grid-container"">
        <!-- Grid items will be dynamically added here -->
    </div>    ","null","","","","","","","","","","","",""
"","null","html-keyboard-response","310","310613","0.0-13.0-0.33","NAw3IORdyj","65c128e33e63ff895c314fbd","6617fad957f7c6a12ea16e26","6622c0b5a3f5e707c22795ca","fixation cross","null","","","","","","","","","","","",""
"","823","html-keyboard-response","311","311436","0.0-13.0-1.33","NAw3IORdyj","65c128e33e63ff895c314fbd","6617fad957f7c6a12ea16e26","6622c0b5a3f5e707c22795ca","image grid","q","","","","","Phylogenetic_Distractor_Threat_target","2500","ongrid","q","4","Phylogenetic","true","experimental"
"","null","html-keyboard-response","312","311588","0.0-13.0-2.33","NAw3IORdyj","65c128e33e63ff895c314fbd","6617fad957f7c6a12ea16e26","6622c0b5a3f5e707c22795ca","
    <div id=""grid-container"">
        <!-- Grid items will be dynamically added here -->
    </div>    ","null","","","","","","","","","","","",""
"","null","html-keyboard-response","313","312292","0.0-13.0-0.34","NAw3IORdyj","65c128e33e63ff895c314fbd","6617fad957f7c6a12ea16e26","6622c0b5a3f5e707c22795ca","fixation cross","null","","","","","","","","","","","",""
"","693","html-keyboard-response","314","312987","0.0-13.0-1.34","NAw3IORdyj","65c128e33e63ff895c314fbd","6617fad957f7c6a12ea16e26","6622c0b5a3f5e707c22795ca","image grid","p","","","","","Phylogenetic_Distractor_Nonthreat_target","2500","ongrid","p","3","Phylogenetic","true","experimental"
"","null","html-keyboard-response","315","313140","0.0-13.0-2.34","NAw3IORdyj","65c128e33e63ff895c314fbd","6617fad957f7c6a12ea16e26","6622c0b5a3f5e707c22795ca","
    <div id=""grid-container"">
        <!-- Grid items will be dynamically added here -->
    </div>    ","null","","","","","","","","","","","",""
"","null","html-keyboard-response","316","313844","0.0-13.0-0.35","NAw3IORdyj","65c128e33e63ff895c314fbd","6617fad957f7c6a12ea16e26","6622c0b5a3f5e707c22795ca","fixation cross","null","","","","","","","","","","","",""
"","664","html-keyboard-response","317","314509","0.0-13.0-1.35","NAw3IORdyj","65c128e33e63ff895c314fbd","6617fad957f7c6a12ea16e26","6622c0b5a3f5e707c22795ca","image grid","q","","","","","Phylogenetic_Distractor_Threat_target","2500","ongrid","q","5","Phylogenetic","true","experimental"
"","null","html-keyboard-response","318","314662","0.0-13.0-2.35","NAw3IORdyj","65c128e33e63ff895c314fbd","6617fad957f7c6a12ea16e26","6622c0b5a3f5e707c22795ca","
    <div id=""grid-container"">
        <!-- Grid items will be dynamically added here -->
    </div>    ","null","","","","","","","","","","","",""
"","null","html-keyboard-response","319","315365","0.0-13.0-0.36","NAw3IORdyj","65c128e33e63ff895c314fbd","6617fad957f7c6a12ea16e26","6622c0b5a3f5e707c22795ca","fixation cross","null","","","","","","","","","","","",""
"","779","html-keyboard-response","320","316145","0.0-13.0-1.36","NAw3IORdyj","65c128e33e63ff895c314fbd","6617fad957f7c6a12ea16e26","6622c0b5a3f5e707c22795ca","image grid","p","","","","","Phylogenetic_Distractor_Nonthreat_target","2500","ongrid","p","2","Phylogenetic","true","experimental"
"","null","html-keyboard-response","321","316298","0.0-13.0-2.36","NAw3IORdyj","65c128e33e63ff895c314fbd","6617fad957f7c6a12ea16e26","6622c0b5a3f5e707c22795ca","
    <div id=""grid-container"">
        <!-- Grid items will be dynamically added here -->
    </div>    ","null","","","","","","","","","","","",""
"","null","html-keyboard-response","322","317000","0.0-13.0-0.37","NAw3IORdyj","65c128e33e63ff895c314fbd","6617fad957f7c6a12ea16e26","6622c0b5a3f5e707c22795ca","fixation cross","null","","","","","","","","","","","",""
"","858","html-keyboard-response","323","317859","0.0-13.0-1.37","NAw3IORdyj","65c128e33e63ff895c314fbd","6617fad957f7c6a12ea16e26","6622c0b5a3f5e707c22795ca","image grid","p","","","","","Phylogenetic_Distractor_Nonthreat_target","2500","ongrid","p","9","Phylogenetic","true","experimental"
"","null","html-keyboard-response","324","318011","0.0-13.0-2.37","NAw3IORdyj","65c128e33e63ff895c314fbd","6617fad957f7c6a12ea16e26","6622c0b5a3f5e707c22795ca","
    <div id=""grid-container"">
        <!-- Grid items will be dynamically added here -->
    </div>    ","null","","","","","","","","","","","",""
"","null","html-keyboard-response","325","318715","0.0-13.0-0.38","NAw3IORdyj","65c128e33e63ff895c314fbd","6617fad957f7c6a12ea16e26","6622c0b5a3f5e707c22795ca","fixation cross","null","","","","","","","","","","","",""
"","733","html-keyboard-response","326","319449","0.0-13.0-1.38","NAw3IORdyj","65c128e33e63ff895c314fbd","6617fad957f7c6a12ea16e26","6622c0b5a3f5e707c22795ca","image grid","q","","","","","Phylogenetic_Distractor_Threat_target","2500","ongrid","q","9","Phylogenetic","true","experimental"
"","null","html-keyboard-response","327","319602","0.0-13.0-2.38","NAw3IORdyj","65c128e33e63ff895c314fbd","6617fad957f7c6a12ea16e26","6622c0b5a3f5e707c22795ca","
    <div id=""grid-container"">
        <!-- Grid items will be dynamically added here -->
    </div>    ","null","","","","","","","","","","","",""
"","null","html-keyboard-response","328","320305","0.0-13.0-0.39","NAw3IORdyj","65c128e33e63ff895c314fbd","6617fad957f7c6a12ea16e26","6622c0b5a3f5e707c22795ca","fixation cross","null","","","","","","","","","","","",""
"","1100","html-keyboard-response","329","321406","0.0-13.0-1.39","NAw3IORdyj","65c128e33e63ff895c314fbd","6617fad957f7c6a12ea16e26","6622c0b5a3f5e707c22795ca","image grid","p","","","","","Phylogenetic_Distractor_notarget","2500","ongrid"," ","5","Phylogenetic","false","experimental"
"","null","html-keyboard-response","330","321559","0.0-13.0-2.39","NAw3IORdyj","65c128e33e63ff895c314fbd","6617fad957f7c6a12ea16e26","6622c0b5a3f5e707c22795ca","
    <div id=""grid-container"">
        <!-- Grid items will be dynamically added here -->
    </div>    ","null","","","","","","","","","","","",""
"","17767","html-keyboard-response","331","339531","0.0-14.0","NAw3IORdyj","65c128e33e63ff895c314fbd","6617fad957f7c6a12ea16e26","6622c0b5a3f5e707c22795ca","break screen"," ","","","","","","","","","","","",""
"","null","html-keyboard-response","332","342034","0.0-15.0-0.0","NAw3IORdyj","65c128e33e63ff895c314fbd","6617fad957f7c6a12ea16e26","6622c0b5a3f5e707c22795ca","fixation cross","null","","","","","","","","","","","",""
"","606","html-keyboard-response","333","342640","0.0-15.0-1.0","NAw3IORdyj","65c128e33e63ff895c314fbd","6617fad957f7c6a12ea16e26","6622c0b5a3f5e707c22795ca","image grid","q","","","","","Phylogenetic_Distractor_Threat_target","2500","ongrid","q","6","Phylogenetic","true","experimental"
"","null","html-keyboard-response","334","342793","0.0-15.0-2.0","NAw3IORdyj","65c128e33e63ff895c314fbd","6617fad957f7c6a12ea16e26","6622c0b5a3f5e707c22795ca","
    <div id=""grid-container"">
        <!-- Grid items will be dynamically added here -->
    </div>    ","null","","","","","","","","","","","",""
"","null","html-keyboard-response","335","343496","0.0-15.0-0.1","NAw3IORdyj","65c128e33e63ff895c314fbd","6617fad957f7c6a12ea16e26","6622c0b5a3f5e707c22795ca","fixation cross","null","","","","","","","","","","","",""
"","792","html-keyboard-response","336","344288","0.0-15.0-1.1","NAw3IORdyj","65c128e33e63ff895c314fbd","6617fad957f7c6a12ea16e26","6622c0b5a3f5e707c22795ca","image grid","q","","","","","Phylogenetic_Distractor_Nonthreat_target","2500","ongrid","p","4","Phylogenetic","false","experimental"
"","null","html-keyboard-response","337","344441","0.0-15.0-2.1","NAw3IORdyj","65c128e33e63ff895c314fbd","6617fad957f7c6a12ea16e26","6622c0b5a3f5e707c22795ca","
    <div id=""grid-container"">
        <!-- Grid items will be dynamically added here -->
    </div>    ","null","","","","","","","","","","","",""
"","null","html-keyboard-response","338","345144","0.0-15.0-0.2","NAw3IORdyj","65c128e33e63ff895c314fbd","6617fad957f7c6a12ea16e26","6622c0b5a3f5e707c22795ca","fixation cross","null","","","","","","","","","","","",""
"","747","html-keyboard-response","339","345892","0.0-15.0-1.2","NAw3IORdyj","65c128e33e63ff895c314fbd","6617fad957f7c6a12ea16e26","6622c0b5a3f5e707c22795ca","image grid","q","","","","","Phylogenetic_Distractor_Threat_target","2500","ongrid","q","7","Phylogenetic","true","experimental"
"","null","html-keyboard-response","340","346044","0.0-15.0-2.2","NAw3IORdyj","65c128e33e63ff895c314fbd","6617fad957f7c6a12ea16e26","6622c0b5a3f5e707c22795ca","
    <div id=""grid-container"">
        <!-- Grid items will be dynamically added here -->
    </div>    ","null","","","","","","","","","","","",""
"","null","html-keyboard-response","341","346748","0.0-15.0-0.3","NAw3IORdyj","65c128e33e63ff895c314fbd","6617fad957f7c6a12ea16e26","6622c0b5a3f5e707c22795ca","fixation cross","null","","","","","","","","","","","",""
"","495","html-keyboard-response","342","347244","0.0-15.0-1.3","NAw3IORdyj","65c128e33e63ff895c314fbd","6617fad957f7c6a12ea16e26","6622c0b5a3f5e707c22795ca","image grid","q","","","","","Phylogenetic_Distractor_Threat_target","2500","ongrid","q","5","Phylogenetic","true","experimental"
"","null","html-keyboard-response","343","347398","0.0-15.0-2.3","NAw3IORdyj","65c128e33e63ff895c314fbd","6617fad957f7c6a12ea16e26","6622c0b5a3f5e707c22795ca","
    <div id=""grid-container"">
        <!-- Grid items will be dynamically added here -->
    </div>    ","null","","","","","","","","","","","",""
"","null","html-keyboard-response","344","348101","0.0-15.0-0.4","NAw3IORdyj","65c128e33e63ff895c314fbd","6617fad957f7c6a12ea16e26","6622c0b5a3f5e707c22795ca","fixation cross","null","","","","","","","","","","","",""
"","710","html-keyboard-response","345","348811","0.0-15.0-1.4","NAw3IORdyj","65c128e33e63ff895c314fbd","6617fad957f7c6a12ea16e26","6622c0b5a3f5e707c22795ca","image grid","q","","","","","Phylogenetic_Distractor_Threat_target","2500","ongrid","q","8","Phylogenetic","true","experimental"
"","null","html-keyboard-response","346","348964","0.0-15.0-2.4","NAw3IORdyj","65c128e33e63ff895c314fbd","6617fad957f7c6a12ea16e26","6622c0b5a3f5e707c22795ca","
    <div id=""grid-container"">
        <!-- Grid items will be dynamically added here -->
    </div>    ","null","","","","","","","","","","","",""
"","null","html-keyboard-response","347","349668","0.0-15.0-0.5","NAw3IORdyj","65c128e33e63ff895c314fbd","6617fad957f7c6a12ea16e26","6622c0b5a3f5e707c22795ca","fixation cross","null","","","","","","","","","","","",""
"","545","html-keyboard-response","348","350214","0.0-15.0-1.5","NAw3IORdyj","65c128e33e63ff895c314fbd","6617fad957f7c6a12ea16e26","6622c0b5a3f5e707c22795ca","image grid","q","","","","","Phylogenetic_Distractor_Threat_target","2500","ongrid","q","6","Phylogenetic","true","experimental"
"","null","html-keyboard-response","349","350366","0.0-15.0-2.5","NAw3IORdyj","65c128e33e63ff895c314fbd","6617fad957f7c6a12ea16e26","6622c0b5a3f5e707c22795ca","
    <div id=""grid-container"">
        <!-- Grid items will be dynamically added here -->
    </div>    ","null","","","","","","","","","","","",""
"","null","html-keyboard-response","350","351070","0.0-15.0-0.6","NAw3IORdyj","65c128e33e63ff895c314fbd","6617fad957f7c6a12ea16e26","6622c0b5a3f5e707c22795ca","fixation cross","null","","","","","","","","","","","",""
"","621","html-keyboard-response","351","351692","0.0-15.0-1.6","NAw3IORdyj","65c128e33e63ff895c314fbd","6617fad957f7c6a12ea16e26","6622c0b5a3f5e707c22795ca","image grid","p","","","","","Phylogenetic_Distractor_Nonthreat_target","2500","ongrid","p","7","Phylogenetic","true","experimental"
"","null","html-keyboard-response","352","351846","0.0-15.0-2.6","NAw3IORdyj","65c128e33e63ff895c314fbd","6617fad957f7c6a12ea16e26","6622c0b5a3f5e707c22795ca","
    <div id=""grid-container"">
        <!-- Grid items will be dynamically added here -->
    </div>    ","null","","","","","","","","","","","",""
"","null","html-keyboard-response","353","352548","0.0-15.0-0.7","NAw3IORdyj","65c128e33e63ff895c314fbd","6617fad957f7c6a12ea16e26","6622c0b5a3f5e707c22795ca","fixation cross","null","","","","","","","","","","","",""
"","835","html-keyboard-response","354","353384","0.0-15.0-1.7","NAw3IORdyj","65c128e33e63ff895c314fbd","6617fad957f7c6a12ea16e26","6622c0b5a3f5e707c22795ca","image grid"," ","","","","","Phylogenetic_Distractor_notarget","2500","ongrid"," ","6","Phylogenetic","true","experimental"
"","null","html-keyboard-response","355","353538","0.0-15.0-2.7","NAw3IORdyj","65c128e33e63ff895c314fbd","6617fad957f7c6a12ea16e26","6622c0b5a3f5e707c22795ca","
    <div id=""grid-container"">
        <!-- Grid items will be dynamically added here -->
    </div>    ","null","","","","","","","","","","","",""
"","null","html-keyboard-response","356","354242","0.0-15.0-0.8","NAw3IORdyj","65c128e33e63ff895c314fbd","6617fad957f7c6a12ea16e26","6622c0b5a3f5e707c22795ca","fixation cross","null","","","","","","","","","","","",""
"","697","html-keyboard-response","357","354939","0.0-15.0-1.8","NAw3IORdyj","65c128e33e63ff895c314fbd","6617fad957f7c6a12ea16e26","6622c0b5a3f5e707c22795ca","image grid","q","","","","","Phylogenetic_Distractor_Threat_target","2500","ongrid","q","4","Phylogenetic","true","experimental"
"","null","html-keyboard-response","358","355092","0.0-15.0-2.8","NAw3IORdyj","65c128e33e63ff895c314fbd","6617fad957f7c6a12ea16e26","6622c0b5a3f5e707c22795ca","
    <div id=""grid-container"">
        <!-- Grid items will be dynamically added here -->
    </div>    ","null","","","","","","","","","","","",""
"","null","html-keyboard-response","359","355795","0.0-15.0-0.9","NAw3IORdyj","65c128e33e63ff895c314fbd","6617fad957f7c6a12ea16e26","6622c0b5a3f5e707c22795ca","fixation cross","null","","","","","","","","","","","",""
"","761","html-keyboard-response","360","356557","0.0-15.0-1.9","NAw3IORdyj","65c128e33e63ff895c314fbd","6617fad957f7c6a12ea16e26","6622c0b5a3f5e707c22795ca","image grid","p","","","","","Phylogenetic_Distractor_notarget","2500","ongrid"," ","8","Phylogenetic","false","experimental"
"","null","html-keyboard-response","361","356710","0.0-15.0-2.9","NAw3IORdyj","65c128e33e63ff895c314fbd","6617fad957f7c6a12ea16e26","6622c0b5a3f5e707c22795ca","
    <div id=""grid-container"">
        <!-- Grid items will be dynamically added here -->
    </div>    ","null","","","","","","","","","","","",""
"","null","html-keyboard-response","362","357413","0.0-15.0-0.10","NAw3IORdyj","65c128e33e63ff895c314fbd","6617fad957f7c6a12ea16e26","6622c0b5a3f5e707c22795ca","fixation cross","null","","","","","","","","","","","",""
"","834","html-keyboard-response","363","358248","0.0-15.0-1.10","NAw3IORdyj","65c128e33e63ff895c314fbd","6617fad957f7c6a12ea16e26","6622c0b5a3f5e707c22795ca","image grid","p","","","","","Phylogenetic_Distractor_Nonthreat_target","2500","ongrid","p","5","Phylogenetic","true","experimental"
"","null","html-keyboard-response","364","358401","0.0-15.0-2.10","NAw3IORdyj","65c128e33e63ff895c314fbd","6617fad957f7c6a12ea16e26","6622c0b5a3f5e707c22795ca","
    <div id=""grid-container"">
        <!-- Grid items will be dynamically added here -->
    </div>    ","null","","","","","","","","","","","",""
"","null","html-keyboard-response","365","359105","0.0-15.0-0.11","NAw3IORdyj","65c128e33e63ff895c314fbd","6617fad957f7c6a12ea16e26","6622c0b5a3f5e707c22795ca","fixation cross","null","","","","","","","","","","","",""
"","588","html-keyboard-response","366","359694","0.0-15.0-1.11","NAw3IORdyj","65c128e33e63ff895c314fbd","6617fad957f7c6a12ea16e26","6622c0b5a3f5e707c22795ca","image grid","q","","","","","Phylogenetic_Distractor_Threat_target","2500","ongrid","q","2","Phylogenetic","true","experimental"
"","null","html-keyboard-response","367","359847","0.0-15.0-2.11","NAw3IORdyj","65c128e33e63ff895c314fbd","6617fad957f7c6a12ea16e26","6622c0b5a3f5e707c22795ca","
    <div id=""grid-container"">
        <!-- Grid items will be dynamically added here -->
    </div>    ","null","","","","","","","","","","","",""
"","null","html-keyboard-response","368","360551","0.0-15.0-0.12","NAw3IORdyj","65c128e33e63ff895c314fbd","6617fad957f7c6a12ea16e26","6622c0b5a3f5e707c22795ca","fixation cross","null","","","","","","","","","","","",""
"","692","html-keyboard-response","369","361244","0.0-15.0-1.12","NAw3IORdyj","65c128e33e63ff895c314fbd","6617fad957f7c6a12ea16e26","6622c0b5a3f5e707c22795ca","image grid","p","","","","","Phylogenetic_Distractor_Nonthreat_target","2500","ongrid","p","2","Phylogenetic","true","experimental"
"","null","html-keyboard-response","370","361397","0.0-15.0-2.12","NAw3IORdyj","65c128e33e63ff895c314fbd","6617fad957f7c6a12ea16e26","6622c0b5a3f5e707c22795ca","
    <div id=""grid-container"">
        <!-- Grid items will be dynamically added here -->
