"success","rt","trial_type","trial_index","time_elapsed","internal_node_id","unique_identifier","subject_id","study_id","session_id","stimulus","response","timeout","failed_images","failed_audio","failed_video","task","respondedwhen","time_manipulation","correctresponse","targetimagelocation","blocktype","correct","roundtype"
"true","3500","fullscreen","0","4509","0.0-0.0","ggJTmBvICF","5e8537fe23609011fe987ca7","6617fad957f7c6a12ea16e26","6622cf444892fad802096e1e","","","","","","","","","","","","","",""
"","21798","html-keyboard-response","1","26316","0.0-1.0","ggJTmBvICF","5e8537fe23609011fe987ca7","6617fad957f7c6a12ea16e26","6622cf444892fad802096e1e","instruction screen 0"," ","","","","","","","","","","","",""
"true","","preload","2","38279","0.0-2.0","ggJTmBvICF","5e8537fe23609011fe987ca7","6617fad957f7c6a12ea16e26","6622cf444892fad802096e1e","","","false","[]","[]","[]","","","","","","","",""
"","12809","html-keyboard-response","3","51090","0.0-3.0","ggJTmBvICF","5e8537fe23609011fe987ca7","6617fad957f7c6a12ea16e26","6622cf444892fad802096e1e","instruction screen 1"," ","","","","","","","","","","","",""
"","6412","html-keyboard-response","4","57513","0.0-4.0","ggJTmBvICF","5e8537fe23609011fe987ca7","6617fad957f7c6a12ea16e26","6622cf444892fad802096e1e","instruction screen 2","q","","","","","","","","","","","",""
"","7141","html-keyboard-response","5","64664","0.0-5.0","ggJTmBvICF","5e8537fe23609011fe987ca7","6617fad957f7c6a12ea16e26","6622cf444892fad802096e1e","instruction screen 3","p","","","","","","","","","","","",""
"","12180","html-keyboard-response","6","76853","0.0-6.0","ggJTmBvICF","5e8537fe23609011fe987ca7","6617fad957f7c6a12ea16e26","6622cf444892fad802096e1e","instruction screen 4"," ","","","","","","","","","","","",""
"","24944","html-keyboard-response","7","101808","0.0-7.0","ggJTmBvICF","5e8537fe23609011fe987ca7","6617fad957f7c6a12ea16e26","6622cf444892fad802096e1e","instruction screen 5"," ","","","","","","","","","","","",""
"","null","html-keyboard-response","8","102335","0.0-8.0","ggJTmBvICF","5e8537fe23609011fe987ca7","6617fad957f7c6a12ea16e26","6622cf444892fad802096e1e","fixation cross","null","","","","","","","","","","","",""
"","null","html-keyboard-response","9","102837","0.0-9.0-0.0","ggJTmBvICF","5e8537fe23609011fe987ca7","6617fad957f7c6a12ea16e26","6622cf444892fad802096e1e","fixation cross","null","","","","","","","","","","","",""
"","null","html-keyboard-response","10","105846","0.0-9.0-1.0","ggJTmBvICF","5e8537fe23609011fe987ca7","6617fad957f7c6a12ea16e26","6622cf444892fad802096e1e","
        <div id=""grid-container"">
        <!-- Grid items will be dynamically added here -->
    </div>    ","null","","","","","","","","","","","",""
"","4209","html-keyboard-response","11","107056","0.0-9.0-2.0","ggJTmBvICF","5e8537fe23609011fe987ca7","6617fad957f7c6a12ea16e26","6622cf444892fad802096e1e","mask grid","p","","","","","Phylogenetic_Distractor_Nonthreat_target","onmask","3000","p","1","Ontogenetic","true","practice"
"","null","html-keyboard-response","12","108290","0.0-9.0-3.0","ggJTmBvICF","5e8537fe23609011fe987ca7","6617fad957f7c6a12ea16e26","6622cf444892fad802096e1e","feedback screen","null","","","","","","","","","","","",""
"","null","html-keyboard-response","13","108803","0.0-9.0-0.1","ggJTmBvICF","5e8537fe23609011fe987ca7","6617fad957f7c6a12ea16e26","6622cf444892fad802096e1e","fixation cross","null","","","","","","","","","","","",""
"","2157","html-keyboard-response","14","110961","0.0-9.0-1.1","ggJTmBvICF","5e8537fe23609011fe987ca7","6617fad957f7c6a12ea16e26","6622cf444892fad802096e1e","image grid","p","","","","","Ontogenetic_Distractor_Nonthreat_target","ongrid","2900","p","9","Ontogenetic","true","practice"
"","null","html-keyboard-response","15","111122","0.0-9.0-2.1","ggJTmBvICF","5e8537fe23609011fe987ca7","6617fad957f7c6a12ea16e26","6622cf444892fad802096e1e","
    <div id=""grid-container"">
        <!-- Grid items will be dynamically added here -->
    </div>    ","null","","","","","","","","","","","",""
"","null","html-keyboard-response","16","112350","0.0-9.0-3.1","ggJTmBvICF","5e8537fe23609011fe987ca7","6617fad957f7c6a12ea16e26","6622cf444892fad802096e1e","feedback screen","null","","","","","","","","","","","",""
"","null","html-keyboard-response","17","112880","0.0-9.0-0.2","ggJTmBvICF","5e8537fe23609011fe987ca7","6617fad957f7c6a12ea16e26","6622cf444892fad802096e1e","fixation cross","null","","","","","","","","","","","",""
"","2599","html-keyboard-response","18","115480","0.0-9.0-1.2","ggJTmBvICF","5e8537fe23609011fe987ca7","6617fad957f7c6a12ea16e26","6622cf444892fad802096e1e","image grid","q","","","","","Phylogenetic_Distractor_Threat_target","ongrid","2800","q","7","Ontogenetic","true","practice"
"","null","html-keyboard-response","19","115653","0.0-9.0-2.2","ggJTmBvICF","5e8537fe23609011fe987ca7","6617fad957f7c6a12ea16e26","6622cf444892fad802096e1e","
    <div id=""grid-container"">
        <!-- Grid items will be dynamically added here -->
    </div>    ","null","","","","","","","","","","","",""
"","null","html-keyboard-response","20","116882","0.0-9.0-3.2","ggJTmBvICF","5e8537fe23609011fe987ca7","6617fad957f7c6a12ea16e26","6622cf444892fad802096e1e","feedback screen","null","","","","","","","","","","","",""
"","null","html-keyboard-response","21","117412","0.0-9.0-0.3","ggJTmBvICF","5e8537fe23609011fe987ca7","6617fad957f7c6a12ea16e26","6622cf444892fad802096e1e","fixation cross","null","","","","","","","","","","","",""
"","null","html-keyboard-response","22","120126","0.0-9.0-1.3","ggJTmBvICF","5e8537fe23609011fe987ca7","6617fad957f7c6a12ea16e26","6622cf444892fad802096e1e","
        <div id=""grid-container"">
        <!-- Grid items will be dynamically added here -->
    </div>    ","null","","","","","","","","","","","",""
"","3854","html-keyboard-response","23","121281","0.0-9.0-2.3","ggJTmBvICF","5e8537fe23609011fe987ca7","6617fad957f7c6a12ea16e26","6622cf444892fad802096e1e","mask grid"," ","","","","","Phylogenetic_Distractor_notarget","onmask","2700"," ","6","Ontogenetic","true","practice"
"","null","html-keyboard-response","24","122516","0.0-9.0-3.3","ggJTmBvICF","5e8537fe23609011fe987ca7","6617fad957f7c6a12ea16e26","6622cf444892fad802096e1e","feedback screen","null","","","","","","","","","","","",""
"","null","html-keyboard-response","25","123040","0.0-9.0-0.4","ggJTmBvICF","5e8537fe23609011fe987ca7","6617fad957f7c6a12ea16e26","6622cf444892fad802096e1e","fixation cross","null","","","","","","","","","","","",""
"","null","html-keyboard-response","26","125657","0.0-9.0-1.4","ggJTmBvICF","5e8537fe23609011fe987ca7","6617fad957f7c6a12ea16e26","6622cf444892fad802096e1e","
        <div id=""grid-container"">
        <!-- Grid items will be dynamically added here -->
    </div>    ","null","","","","","","","","","","","",""
"","2754","html-keyboard-response","27","125811","0.0-9.0-2.4","ggJTmBvICF","5e8537fe23609011fe987ca7","6617fad957f7c6a12ea16e26","6622cf444892fad802096e1e","mask grid"," ","","","","","Phylogenetic_Distractor_notarget","onmask","2600"," ","5","Ontogenetic","true","practice"
"","null","html-keyboard-response","28","127032","0.0-9.0-3.4","ggJTmBvICF","5e8537fe23609011fe987ca7","6617fad957f7c6a12ea16e26","6622cf444892fad802096e1e","feedback screen","null","","","","","","","","","","","",""
"","null","html-keyboard-response","29","127557","0.0-9.0-0.5","ggJTmBvICF","5e8537fe23609011fe987ca7","6617fad957f7c6a12ea16e26","6622cf444892fad802096e1e","fixation cross","null","","","","","","","","","","","",""
"","1459","html-keyboard-response","30","129018","0.0-9.0-1.5","ggJTmBvICF","5e8537fe23609011fe987ca7","6617fad957f7c6a12ea16e26","6622cf444892fad802096e1e","image grid","q","","","","","Phylogenetic_Distractor_Threat_target","ongrid","2500","q","3","Ontogenetic","true","practice"
"","null","html-keyboard-response","31","129175","0.0-9.0-2.5","ggJTmBvICF","5e8537fe23609011fe987ca7","6617fad957f7c6a12ea16e26","6622cf444892fad802096e1e","
    <div id=""grid-container"">
        <!-- Grid items will be dynamically added here -->
    </div>    ","null","","","","","","","","","","","",""
"","567","html-keyboard-response","32","129958","0.0-9.0-3.5","ggJTmBvICF","5e8537fe23609011fe987ca7","6617fad957f7c6a12ea16e26","6622cf444892fad802096e1e","feedback screen"," ","","","","","","","","","","","",""
"","null","html-keyboard-response","33","130495","0.0-9.0-0.6","ggJTmBvICF","5e8537fe23609011fe987ca7","6617fad957f7c6a12ea16e26","6622cf444892fad802096e1e","fixation cross","null","","","","","","","","","","","",""
"","1367","html-keyboard-response","34","131862","0.0-9.0-1.6","ggJTmBvICF","5e8537fe23609011fe987ca7","6617fad957f7c6a12ea16e26","6622cf444892fad802096e1e","image grid","q","","","","","Ontogenetic_Distractor_Threat_target","ongrid","2400","q","5","Ontogenetic","true","practice"
"","null","html-keyboard-response","35","132027","0.0-9.0-2.6","ggJTmBvICF","5e8537fe23609011fe987ca7","6617fad957f7c6a12ea16e26","6622cf444892fad802096e1e","
    <div id=""grid-container"">
        <!-- Grid items will be dynamically added here -->
    </div>    ","null","","","","","","","","","","","",""
"","859","html-keyboard-response","36","133088","0.0-9.0-3.6","ggJTmBvICF","5e8537fe23609011fe987ca7","6617fad957f7c6a12ea16e26","6622cf444892fad802096e1e","feedback screen"," ","","","","","","","","","","","",""
"","null","html-keyboard-response","37","133603","0.0-9.0-0.7","ggJTmBvICF","5e8537fe23609011fe987ca7","6617fad957f7c6a12ea16e26","6622cf444892fad802096e1e","fixation cross","null","","","","","","","","","","","",""
"","1117","html-keyboard-response","38","134722","0.0-9.0-1.7","ggJTmBvICF","5e8537fe23609011fe987ca7","6617fad957f7c6a12ea16e26","6622cf444892fad802096e1e","image grid","p","","","","","Ontogenetic_Distractor_Nonthreat_target","ongrid","2300","p","8","Ontogenetic","true","practice"
"","null","html-keyboard-response","39","134877","0.0-9.0-2.7","ggJTmBvICF","5e8537fe23609011fe987ca7","6617fad957f7c6a12ea16e26","6622cf444892fad802096e1e","
    <div id=""grid-container"">
        <!-- Grid items will be dynamically added here -->
    </div>    ","null","","","","","","","","","","","",""
"","708","html-keyboard-response","40","135802","0.0-9.0-3.7","ggJTmBvICF","5e8537fe23609011fe987ca7","6617fad957f7c6a12ea16e26","6622cf444892fad802096e1e","feedback screen"," ","","","","","","","","","","","",""
"","null","html-keyboard-response","41","136334","0.0-9.0-0.8","ggJTmBvICF","5e8537fe23609011fe987ca7","6617fad957f7c6a12ea16e26","6622cf444892fad802096e1e","fixation cross","null","","","","","","","","","","","",""
"","1966","html-keyboard-response","42","138301","0.0-9.0-1.8","ggJTmBvICF","5e8537fe23609011fe987ca7","6617fad957f7c6a12ea16e26","6622cf444892fad802096e1e","image grid"," ","","","","","Ontogenetic_Distractor_notarget","ongrid","2200"," ","9","Ontogenetic","true","practice"
"","null","html-keyboard-response","43","138461","0.0-9.0-2.8","ggJTmBvICF","5e8537fe23609011fe987ca7","6617fad957f7c6a12ea16e26","6622cf444892fad802096e1e","
    <div id=""grid-container"">
        <!-- Grid items will be dynamically added here -->
    </div>    ","null","","","","","","","","","","","",""
"","null","html-keyboard-response","44","139687","0.0-9.0-3.8","ggJTmBvICF","5e8537fe23609011fe987ca7","6617fad957f7c6a12ea16e26","6622cf444892fad802096e1e","feedback screen","null","","","","","","","","","","","",""
"","null","html-keyboard-response","45","140211","0.0-9.0-0.9","ggJTmBvICF","5e8537fe23609011fe987ca7","6617fad957f7c6a12ea16e26","6622cf444892fad802096e1e","fixation cross","null","","","","","","","","","","","",""
"","2070","html-keyboard-response","46","142283","0.0-9.0-1.9","ggJTmBvICF","5e8537fe23609011fe987ca7","6617fad957f7c6a12ea16e26","6622cf444892fad802096e1e","image grid","q","","","","","Phylogenetic_Distractor_Threat_target","ongrid","2100","q","7","Ontogenetic","true","practice"
"","null","html-keyboard-response","47","142447","0.0-9.0-2.9","ggJTmBvICF","5e8537fe23609011fe987ca7","6617fad957f7c6a12ea16e26","6622cf444892fad802096e1e","
    <div id=""grid-container"">
        <!-- Grid items will be dynamically added here -->
    </div>    ","null","","","","","","","","","","","",""
"","878","html-keyboard-response","48","143541","0.0-9.0-3.9","ggJTmBvICF","5e8537fe23609011fe987ca7","6617fad957f7c6a12ea16e26","6622cf444892fad802096e1e","feedback screen"," ","","","","","","","","","","","",""
"","null","html-keyboard-response","49","144069","0.0-9.0-0.10","ggJTmBvICF","5e8537fe23609011fe987ca7","6617fad957f7c6a12ea16e26","6622cf444892fad802096e1e","fixation cross","null","","","","","","","","","","","",""
"","1340","html-keyboard-response","50","145411","0.0-9.0-1.10","ggJTmBvICF","5e8537fe23609011fe987ca7","6617fad957f7c6a12ea16e26","6622cf444892fad802096e1e","image grid","q","","","","","Phylogenetic_Distractor_Threat_target","ongrid","2000","q","6","Ontogenetic","true","practice"
"","null","html-keyboard-response","51","145563","0.0-9.0-2.10","ggJTmBvICF","5e8537fe23609011fe987ca7","6617fad957f7c6a12ea16e26","6622cf444892fad802096e1e","
    <div id=""grid-container"">
        <!-- Grid items will be dynamically added here -->
    </div>    ","null","","","","","","","","","","","",""
"","793","html-keyboard-response","52","146573","0.0-9.0-3.10","ggJTmBvICF","5e8537fe23609011fe987ca7","6617fad957f7c6a12ea16e26","6622cf444892fad802096e1e","feedback screen"," ","","","","","","","","","","","",""
"","null","html-keyboard-response","53","147108","0.0-9.0-0.11","ggJTmBvICF","5e8537fe23609011fe987ca7","6617fad957f7c6a12ea16e26","6622cf444892fad802096e1e","fixation cross","null","","","","","","","","","","","",""
"","1762","html-keyboard-response","54","148871","0.0-9.0-1.11","ggJTmBvICF","5e8537fe23609011fe987ca7","6617fad957f7c6a12ea16e26","6622cf444892fad802096e1e","image grid","p","","","","","Phylogenetic_Distractor_Nonthreat_target","ongrid","1900","p","5","Ontogenetic","true","practice"
"","null","html-keyboard-response","55","149031","0.0-9.0-2.11","ggJTmBvICF","5e8537fe23609011fe987ca7","6617fad957f7c6a12ea16e26","6622cf444892fad802096e1e","
    <div id=""grid-container"">
        <!-- Grid items will be dynamically added here -->
    </div>    ","null","","","","","","","","","","","",""
"","725","html-keyboard-response","56","149973","0.0-9.0-3.11","ggJTmBvICF","5e8537fe23609011fe987ca7","6617fad957f7c6a12ea16e26","6622cf444892fad802096e1e","feedback screen"," ","","","","","","","","","","","",""
"","null","html-keyboard-response","57","150490","0.0-9.0-0.12","ggJTmBvICF","5e8537fe23609011fe987ca7","6617fad957f7c6a12ea16e26","6622cf444892fad802096e1e","fixation cross","null","","","","","","","","","","","",""
"","1280","html-keyboard-response","58","151770","0.0-9.0-1.12","ggJTmBvICF","5e8537fe23609011fe987ca7","6617fad957f7c6a12ea16e26","6622cf444892fad802096e1e","image grid","q","","","","","Ontogenetic_Distractor_Threat_target","ongrid","1800","q","3","Ontogenetic","true","practice"
"","null","html-keyboard-response","59","151931","0.0-9.0-2.12","ggJTmBvICF","5e8537fe23609011fe987ca7","6617fad957f7c6a12ea16e26","6622cf444892fad802096e1e","
    <div id=""grid-container"">
        <!-- Grid items will be dynamically added here -->
    </div>    ","null","","","","","","","","","","","",""
"","716","html-keyboard-response","60","152866","0.0-9.0-3.12","ggJTmBvICF","5e8537fe23609011fe987ca7","6617fad957f7c6a12ea16e26","6622cf444892fad802096e1e","feedback screen"," ","","","","","","","","","","","",""
"","null","html-keyboard-response","61","153385","0.0-9.0-0.13","ggJTmBvICF","5e8537fe23609011fe987ca7","6617fad957f7c6a12ea16e26","6622cf444892fad802096e1e","fixation cross","null","","","","","","","","","","","",""
"","null","html-keyboard-response","62","155108","0.0-9.0-1.13","ggJTmBvICF","5e8537fe23609011fe987ca7","6617fad957f7c6a12ea16e26","6622cf444892fad802096e1e","
        <div id=""grid-container"">
        <!-- Grid items will be dynamically added here -->
    </div>    ","null","","","","","","","","","","","",""
"","2690","html-keyboard-response","63","156099","0.0-9.0-2.13","ggJTmBvICF","5e8537fe23609011fe987ca7","6617fad957f7c6a12ea16e26","6622cf444892fad802096e1e","mask grid"," ","","","","","Phylogenetic_Distractor_Nonthreat_target","onmask","1700","p","4","Ontogenetic","false","practice"
"","null","html-keyboard-response","64","157321","0.0-9.0-3.13","ggJTmBvICF","5e8537fe23609011fe987ca7","6617fad957f7c6a12ea16e26","6622cf444892fad802096e1e","feedback screen","null","","","","","","","","","","","",""
"","null","html-keyboard-response","65","157892","0.0-9.0-0.14","ggJTmBvICF","5e8537fe23609011fe987ca7","6617fad957f7c6a12ea16e26","6622cf444892fad802096e1e","fixation cross","null","","","","","","","","","","","",""
"","null","html-keyboard-response","66","159500","0.0-9.0-1.14","ggJTmBvICF","5e8537fe23609011fe987ca7","6617fad957f7c6a12ea16e26","6622cf444892fad802096e1e","
        <div id=""grid-container"">
        <!-- Grid items will be dynamically added here -->
    </div>    ","null","","","","","","","","","","","",""
"","1770","html-keyboard-response","67","159671","0.0-9.0-2.14","ggJTmBvICF","5e8537fe23609011fe987ca7","6617fad957f7c6a12ea16e26","6622cf444892fad802096e1e","mask grid","p","","","","","Phylogenetic_Distractor_Nonthreat_target","onmask","1600","p","7","Ontogenetic","true","practice"
"","null","html-keyboard-response","68","160900","0.0-9.0-3.14","ggJTmBvICF","5e8537fe23609011fe987ca7","6617fad957f7c6a12ea16e26","6622cf444892fad802096e1e","feedback screen","null","","","","","","","","","","","",""
"","null","html-keyboard-response","69","161432","0.0-9.0-0.15","ggJTmBvICF","5e8537fe23609011fe987ca7","6617fad957f7c6a12ea16e26","6622cf444892fad802096e1e","fixation cross","null","","","","","","","","","","","",""
"","1074","html-keyboard-response","70","162508","0.0-9.0-1.15","ggJTmBvICF","5e8537fe23609011fe987ca7","6617fad957f7c6a12ea16e26","6622cf444892fad802096e1e","image grid","q","","","","","Ontogenetic_Distractor_Threat_target","ongrid","1500","q","1","Ontogenetic","true","practice"
"","null","html-keyboard-response","71","162668","0.0-9.0-2.15","ggJTmBvICF","5e8537fe23609011fe987ca7","6617fad957f7c6a12ea16e26","6622cf444892fad802096e1e","
    <div id=""grid-container"">
        <!-- Grid items will be dynamically added here -->
    </div>    ","null","","","","","","","","","","","",""
"","null","html-keyboard-response","72","163888","0.0-9.0-3.15","ggJTmBvICF","5e8537fe23609011fe987ca7","6617fad957f7c6a12ea16e26","6622cf444892fad802096e1e","feedback screen","null","","","","","","","","","","","",""
"","null","html-keyboard-response","73","164406","0.0-9.0-0.16","ggJTmBvICF","5e8537fe23609011fe987ca7","6617fad957f7c6a12ea16e26","6622cf444892fad802096e1e","fixation cross","null","","","","","","","","","","","",""
"","1125","html-keyboard-response","74","165530","0.0-9.0-1.16","ggJTmBvICF","5e8537fe23609011fe987ca7","6617fad957f7c6a12ea16e26","6622cf444892fad802096e1e","image grid","q","","","","","Ontogenetic_Distractor_Threat_target","ongrid","1400","q","9","Ontogenetic","true","practice"
"","null","html-keyboard-response","75","165685","0.0-9.0-2.16","ggJTmBvICF","5e8537fe23609011fe987ca7","6617fad957f7c6a12ea16e26","6622cf444892fad802096e1e","
    <div id=""grid-container"">
        <!-- Grid items will be dynamically added here -->
    </div>    ","null","","","","","","","","","","","",""
"","null","html-keyboard-response","76","166909","0.0-9.0-3.16","ggJTmBvICF","5e8537fe23609011fe987ca7","6617fad957f7c6a12ea16e26","6622cf444892fad802096e1e","feedback screen","null","","","","","","","","","","","",""
"","null","html-keyboard-response","77","167435","0.0-9.0-0.17","ggJTmBvICF","5e8537fe23609011fe987ca7","6617fad957f7c6a12ea16e26","6622cf444892fad802096e1e","fixation cross","null","","","","","","","","","","","",""
"","1212","html-keyboard-response","78","168649","0.0-9.0-1.17","ggJTmBvICF","5e8537fe23609011fe987ca7","6617fad957f7c6a12ea16e26","6622cf444892fad802096e1e","image grid","p","","","","","Ontogenetic_Distractor_Nonthreat_target","ongrid","1300","p","9","Ontogenetic","true","practice"
"","null","html-keyboard-response","79","168802","0.0-9.0-2.17","ggJTmBvICF","5e8537fe23609011fe987ca7","6617fad957f7c6a12ea16e26","6622cf444892fad802096e1e","
    <div id=""grid-container"">
        <!-- Grid items will be dynamically added here -->
    </div>    ","null","","","","","","","","","","","",""
"","null","html-keyboard-response","80","170028","0.0-9.0-3.17","ggJTmBvICF","5e8537fe23609011fe987ca7","6617fad957f7c6a12ea16e26","6622cf444892fad802096e1e","feedback screen","null","","","","","","","","","","","",""
"","null","html-keyboard-response","81","170550","0.0-9.0-0.18","ggJTmBvICF","5e8537fe23609011fe987ca7","6617fad957f7c6a12ea16e26","6622cf444892fad802096e1e","fixation cross","null","","","","","","","","","","","",""
"","944","html-keyboard-response","82","171495","0.0-9.0-1.18","ggJTmBvICF","5e8537fe23609011fe987ca7","6617fad957f7c6a12ea16e26","6622cf444892fad802096e1e","image grid","p","","","","","Ontogenetic_Distractor_Nonthreat_target","ongrid","1200","p","2","Ontogenetic","true","practice"
"","null","html-keyboard-response","83","171653","0.0-9.0-2.18","ggJTmBvICF","5e8537fe23609011fe987ca7","6617fad957f7c6a12ea16e26","6622cf444892fad802096e1e","
    <div id=""grid-container"">
        <!-- Grid items will be dynamically added here -->
    </div>    ","null","","","","","","","","","","","",""
"","null","html-keyboard-response","84","172870","0.0-9.0-3.18","ggJTmBvICF","5e8537fe23609011fe987ca7","6617fad957f7c6a12ea16e26","6622cf444892fad802096e1e","feedback screen","null","","","","","","","","","","","",""
"","null","html-keyboard-response","85","173405","0.0-9.0-0.19","ggJTmBvICF","5e8537fe23609011fe987ca7","6617fad957f7c6a12ea16e26","6622cf444892fad802096e1e","fixation cross","null","","","","","","","","","","","",""
"","null","html-keyboard-response","86","174520","0.0-9.0-1.19","ggJTmBvICF","5e8537fe23609011fe987ca7","6617fad957f7c6a12ea16e26","6622cf444892fad802096e1e","
        <div id=""grid-container"">
        <!-- Grid items will be dynamically added here -->
    </div>    ","null","","","","","","","","","","","",""
"","1704","html-keyboard-response","87","175124","0.0-9.0-2.19","ggJTmBvICF","5e8537fe23609011fe987ca7","6617fad957f7c6a12ea16e26","6622cf444892fad802096e1e","mask grid"," ","","","","","Ontogenetic_Distractor_notarget","onmask","1100"," ","7","Ontogenetic","true","practice"
"","null","html-keyboard-response","88","176345","0.0-9.0-3.19","ggJTmBvICF","5e8537fe23609011fe987ca7","6617fad957f7c6a12ea16e26","6622cf444892fad802096e1e","feedback screen","null","","","","","","","","","","","",""
"","22835","html-keyboard-response","89","199193","0.0-10.0","ggJTmBvICF","5e8537fe23609011fe987ca7","6617fad957f7c6a12ea16e26","6622cf444892fad802096e1e","pre-experimental_briefing"," ","","","","","","","","","","","",""
"","null","html-keyboard-response","90","201714","0.0-11.0-0.0","ggJTmBvICF","5e8537fe23609011fe987ca7","6617fad957f7c6a12ea16e26","6622cf444892fad802096e1e","fixation cross","null","","","","","","","","","","","",""
"","null","html-keyboard-response","91","202533","0.0-11.0-1.0","ggJTmBvICF","5e8537fe23609011fe987ca7","6617fad957f7c6a12ea16e26","6622cf444892fad802096e1e","
        <div id=""grid-container"">
        <!-- Grid items will be dynamically added here -->
    </div>    ","null","","","","","","","","","","","",""
"","1843","html-keyboard-response","92","203576","0.0-11.0-2.0","ggJTmBvICF","5e8537fe23609011fe987ca7","6617fad957f7c6a12ea16e26","6622cf444892fad802096e1e","mask grid","p","","","","","Ontogenetic_Distractor_Nonthreat_target","onmask","800","p","5","Ontogenetic","true","experimental"
"","null","html-keyboard-response","93","204290","0.0-11.0-0.1","ggJTmBvICF","5e8537fe23609011fe987ca7","6617fad957f7c6a12ea16e26","6622cf444892fad802096e1e","fixation cross","null","","","","","","","","","","","",""
"","null","html-keyboard-response","94","205095","0.0-11.0-1.1","ggJTmBvICF","5e8537fe23609011fe987ca7","6617fad957f7c6a12ea16e26","6622cf444892fad802096e1e","
        <div id=""grid-container"">
        <!-- Grid items will be dynamically added here -->
    </div>    ","null","","","","","","","","","","","",""
"","2236","html-keyboard-response","95","206532","0.0-11.0-2.1","ggJTmBvICF","5e8537fe23609011fe987ca7","6617fad957f7c6a12ea16e26","6622cf444892fad802096e1e","mask grid"," ","","","","","Ontogenetic_Distractor_notarget","onmask","800"," ","3","Ontogenetic","true","experimental"
"","null","html-keyboard-response","96","207273","0.0-11.0-0.2","ggJTmBvICF","5e8537fe23609011fe987ca7","6617fad957f7c6a12ea16e26","6622cf444892fad802096e1e","fixation cross","null","","","","","","","","","","","",""
"","null","html-keyboard-response","97","208075","0.0-11.0-1.2","ggJTmBvICF","5e8537fe23609011fe987ca7","6617fad957f7c6a12ea16e26","6622cf444892fad802096e1e","
        <div id=""grid-container"">
        <!-- Grid items will be dynamically added here -->
    </div>    ","null","","","","","","","","","","","",""
"","1341","html-keyboard-response","98","208618","0.0-11.0-2.2","ggJTmBvICF","5e8537fe23609011fe987ca7","6617fad957f7c6a12ea16e26","6622cf444892fad802096e1e","mask grid","p","","","","","Ontogenetic_Distractor_Nonthreat_target","onmask","800","p","7","Ontogenetic","true","experimental"
"","null","html-keyboard-response","99","209356","0.0-11.0-0.3","ggJTmBvICF","5e8537fe23609011fe987ca7","6617fad957f7c6a12ea16e26","6622cf444892fad802096e1e","fixation cross","null","","","","","","","","","","","",""
"","null","html-keyboard-response","100","210158","0.0-11.0-1.3","ggJTmBvICF","5e8537fe23609011fe987ca7","6617fad957f7c6a12ea16e26","6622cf444892fad802096e1e","
        <div id=""grid-container"">
        <!-- Grid items will be dynamically added here -->
    </div>    ","null","","","","","","","","","","","",""
"","1436","html-keyboard-response","101","210795","0.0-11.0-2.3","ggJTmBvICF","5e8537fe23609011fe987ca7","6617fad957f7c6a12ea16e26","6622cf444892fad802096e1e","mask grid","q","","","","","Ontogenetic_Distractor_Threat_target","onmask","800","q","8","Ontogenetic","true","experimental"
"","null","html-keyboard-response","102","211504","0.0-11.0-0.4","ggJTmBvICF","5e8537fe23609011fe987ca7","6617fad957f7c6a12ea16e26","6622cf444892fad802096e1e","fixation cross","null","","","","","","","","","","","",""
"","null","html-keyboard-response","103","212308","0.0-11.0-1.4","ggJTmBvICF","5e8537fe23609011fe987ca7","6617fad957f7c6a12ea16e26","6622cf444892fad802096e1e","
        <div id=""grid-container"">
        <!-- Grid items will be dynamically added here -->
    </div>    ","null","","","","","","","","","","","",""
"","2226","html-keyboard-response","104","213735","0.0-11.0-2.4","ggJTmBvICF","5e8537fe23609011fe987ca7","6617fad957f7c6a12ea16e26","6622cf444892fad802096e1e","mask grid"," ","","","","","Ontogenetic_Distractor_notarget","onmask","800"," ","5","Ontogenetic","true","experimental"
"","null","html-keyboard-response","105","214454","0.0-11.0-0.5","ggJTmBvICF","5e8537fe23609011fe987ca7","6617fad957f7c6a12ea16e26","6622cf444892fad802096e1e","fixation cross","null","","","","","","","","","","","",""
"","null","html-keyboard-response","106","215275","0.0-11.0-1.5","ggJTmBvICF","5e8537fe23609011fe987ca7","6617fad957f7c6a12ea16e26","6622cf444892fad802096e1e","
        <div id=""grid-container"">
        <!-- Grid items will be dynamically added here -->
    </div>    ","null","","","","","","","","","","","",""
"","1463","html-keyboard-response","107","215939","0.0-11.0-2.5","ggJTmBvICF","5e8537fe23609011fe987ca7","6617fad957f7c6a12ea16e26","6622cf444892fad802096e1e","mask grid","p","","","","","Ontogenetic_Distractor_Nonthreat_target","onmask","800","p","9","Ontogenetic","true","experimental"
"","null","html-keyboard-response","108","216657","0.0-11.0-0.6","ggJTmBvICF","5e8537fe23609011fe987ca7","6617fad957f7c6a12ea16e26","6622cf444892fad802096e1e","fixation cross","null","","","","","","","","","","","",""
"","null","html-keyboard-response","109","217469","0.0-11.0-1.6","ggJTmBvICF","5e8537fe23609011fe987ca7","6617fad957f7c6a12ea16e26","6622cf444892fad802096e1e","
        <div id=""grid-container"">
        <!-- Grid items will be dynamically added here -->
    </div>    ","null","","","","","","","","","","","",""
"","1697","html-keyboard-response","110","218366","0.0-11.0-2.6","ggJTmBvICF","5e8537fe23609011fe987ca7","6617fad957f7c6a12ea16e26","6622cf444892fad802096e1e","mask grid","q","","","","","Ontogenetic_Distractor_Threat_target","onmask","800","q","4","Ontogenetic","true","experimental"
"","null","html-keyboard-response","111","219092","0.0-11.0-0.7","ggJTmBvICF","5e8537fe23609011fe987ca7","6617fad957f7c6a12ea16e26","6622cf444892fad802096e1e","fixation cross","null","","","","","","","","","","","",""
"","null","html-keyboard-response","112","219907","0.0-11.0-1.7","ggJTmBvICF","5e8537fe23609011fe987ca7","6617fad957f7c6a12ea16e26","6622cf444892fad802096e1e","
        <div id=""grid-container"">
        <!-- Grid items will be dynamically added here -->
    </div>    ","null","","","","","","","","","","","",""
"","1755","html-keyboard-response","113","220862","0.0-11.0-2.7","ggJTmBvICF","5e8537fe23609011fe987ca7","6617fad957f7c6a12ea16e26","6622cf444892fad802096e1e","mask grid","q","","","","","Ontogenetic_Distractor_Threat_target","onmask","800","q","7","Ontogenetic","true","experimental"
"","null","html-keyboard-response","114","221573","0.0-11.0-0.8","ggJTmBvICF","5e8537fe23609011fe987ca7","6617fad957f7c6a12ea16e26","6622cf444892fad802096e1e","fixation cross","null","","","","","","","","","","","",""
"","null","html-keyboard-response","115","222377","0.0-11.0-1.8","ggJTmBvICF","5e8537fe23609011fe987ca7","6617fad957f7c6a12ea16e26","6622cf444892fad802096e1e","
        <div id=""grid-container"">
        <!-- Grid items will be dynamically added here -->
    </div>    ","null","","","","","","","","","","","",""
"","1513","html-keyboard-response","116","223090","0.0-11.0-2.8","ggJTmBvICF","5e8537fe23609011fe987ca7","6617fad957f7c6a12ea16e26","6622cf444892fad802096e1e","mask grid","p","","","","","Ontogenetic_Distractor_Nonthreat_target","onmask","800","p","4","Ontogenetic","true","experimental"
"","null","html-keyboard-response","117","223822","0.0-11.0-0.9","ggJTmBvICF","5e8537fe23609011fe987ca7","6617fad957f7c6a12ea16e26","6622cf444892fad802096e1e","fixation cross","null","","","","","","","","","","","",""
"","null","html-keyboard-response","118","224637","0.0-11.0-1.9","ggJTmBvICF","5e8537fe23609011fe987ca7","6617fad957f7c6a12ea16e26","6622cf444892fad802096e1e","
        <div id=""grid-container"">
        <!-- Grid items will be dynamically added here -->
    </div>    ","null","","","","","","","","","","","",""
"","1742","html-keyboard-response","119","225580","0.0-11.0-2.9","ggJTmBvICF","5e8537fe23609011fe987ca7","6617fad957f7c6a12ea16e26","6622cf444892fad802096e1e","mask grid"," ","","","","","Ontogenetic_Distractor_Threat_target","onmask","800","q","5","Ontogenetic","false","experimental"
"","null","html-keyboard-response","120","226291","0.0-11.0-0.10","ggJTmBvICF","5e8537fe23609011fe987ca7","6617fad957f7c6a12ea16e26","6622cf444892fad802096e1e","fixation cross","null","","","","","","","","","","","",""
"","null","html-keyboard-response","121","227093","0.0-11.0-1.10","ggJTmBvICF","5e8537fe23609011fe987ca7","6617fad957f7c6a12ea16e26","6622cf444892fad802096e1e","
        <div id=""grid-container"">
        <!-- Grid items will be dynamically added here -->
    </div>    ","null","","","","","","","","","","","",""
"","1605","html-keyboard-response","122","227897","0.0-11.0-2.10","ggJTmBvICF","5e8537fe23609011fe987ca7","6617fad957f7c6a12ea16e26","6622cf444892fad802096e1e","mask grid"," ","","","","","Ontogenetic_Distractor_Nonthreat_target","onmask","800","p","8","Ontogenetic","false","experimental"
"","null","html-keyboard-response","123","228604","0.0-11.0-0.11","ggJTmBvICF","5e8537fe23609011fe987ca7","6617fad957f7c6a12ea16e26","6622cf444892fad802096e1e","fixation cross","null","","","","","","","","","","","",""
"","null","html-keyboard-response","124","229421","0.0-11.0-1.11","ggJTmBvICF","5e8537fe23609011fe987ca7","6617fad957f7c6a12ea16e26","6622cf444892fad802096e1e","
        <div id=""grid-container"">
        <!-- Grid items will be dynamically added here -->
    </div>    ","null","","","","","","","","","","","",""
"","1479","html-keyboard-response","125","230101","0.0-11.0-2.11","ggJTmBvICF","5e8537fe23609011fe987ca7","6617fad957f7c6a12ea16e26","6622cf444892fad802096e1e","mask grid","q","","","","","Ontogenetic_Distractor_Threat_target","onmask","800","q","5","Ontogenetic","true","experimental"
"","null","html-keyboard-response","126","230826","0.0-11.0-0.12","ggJTmBvICF","5e8537fe23609011fe987ca7","6617fad957f7c6a12ea16e26","6622cf444892fad802096e1e","fixation cross","null","","","","","","","","","","","",""
"","null","html-keyboard-response","127","231632","0.0-11.0-1.12","ggJTmBvICF","5e8537fe23609011fe987ca7","6617fad957f7c6a12ea16e26","6622cf444892fad802096e1e","
        <div id=""grid-container"">
        <!-- Grid items will be dynamically added here -->
    </div>    ","null","","","","","","","","","","","",""
"","1508","html-keyboard-response","128","232341","0.0-11.0-2.12","ggJTmBvICF","5e8537fe23609011fe987ca7","6617fad957f7c6a12ea16e26","6622cf444892fad802096e1e","mask grid"," ","","","","","Ontogenetic_Distractor_notarget","onmask","800"," ","5","Ontogenetic","true","experimental"
"","null","html-keyboard-response","129","233073","0.0-11.0-0.13","ggJTmBvICF","5e8537fe23609011fe987ca7","6617fad957f7c6a12ea16e26","6622cf444892fad802096e1e","fixation cross","null","","","","","","","","","","","",""
"","null","html-keyboard-response","130","233882","0.0-11.0-1.13","ggJTmBvICF","5e8537fe23609011fe987ca7","6617fad957f7c6a12ea16e26","6622cf444892fad802096e1e","
        <div id=""grid-container"">
        <!-- Grid items will be dynamically added here -->
    </div>    ","null","","","","","","","","","","","",""
"","1500","html-keyboard-response","131","234583","0.0-11.0-2.13","ggJTmBvICF","5e8537fe23609011fe987ca7","6617fad957f7c6a12ea16e26","6622cf444892fad802096e1e","mask grid","p","","","","","Ontogenetic_Distractor_Nonthreat_target","onmask","800","p","8","Ontogenetic","true","experimental"
"","null","html-keyboard-response","132","235294","0.0-11.0-0.14","ggJTmBvICF","5e8537fe23609011fe987ca7","6617fad957f7c6a12ea16e26","6622cf444892fad802096e1e","fixation cross","null","","","","","","","","","","","",""
"","null","html-keyboard-response","133","236120","0.0-11.0-1.14","ggJTmBvICF","5e8537fe23609011fe987ca7","6617fad957f7c6a12ea16e26","6622cf444892fad802096e1e","
        <div id=""grid-container"">
        <!-- Grid items will be dynamically added here -->
    </div>    ","null","","","","","","","","","","","",""
"","1546","html-keyboard-response","134","236868","0.0-11.0-2.14","ggJTmBvICF","5e8537fe23609011fe987ca7","6617fad957f7c6a12ea16e26","6622cf444892fad802096e1e","mask grid","p","","","","","Ontogenetic_Distractor_Nonthreat_target","onmask","800","p","6","Ontogenetic","true","experimental"
"","null","html-keyboard-response","135","237592","0.0-11.0-0.15","ggJTmBvICF","5e8537fe23609011fe987ca7","6617fad957f7c6a12ea16e26","6622cf444892fad802096e1e","fixation cross","null","","","","","","","","","","","",""
"","null","html-keyboard-response","136","238413","0.0-11.0-1.15","ggJTmBvICF","5e8537fe23609011fe987ca7","6617fad957f7c6a12ea16e26","6622cf444892fad802096e1e","
        <div id=""grid-container"">
        <!-- Grid items will be dynamically added here -->
    </div>    ","null","","","","","","","","","","","",""
"","1649","html-keyboard-response","137","239262","0.0-11.0-2.15","ggJTmBvICF","5e8537fe23609011fe987ca7","6617fad957f7c6a12ea16e26","6622cf444892fad802096e1e","mask grid","p","","","","","Ontogenetic_Distractor_Nonthreat_target","onmask","800","p","9","Ontogenetic","true","experimental"
"","null","html-keyboard-response","138","239992","0.0-11.0-0.16","ggJTmBvICF","5e8537fe23609011fe987ca7","6617fad957f7c6a12ea16e26","6622cf444892fad802096e1e","fixation cross","null","","","","","","","","","","","",""
"","null","html-keyboard-response","139","240809","0.0-11.0-1.16","ggJTmBvICF","5e8537fe23609011fe987ca7","6617fad957f7c6a12ea16e26","6622cf444892fad802096e1e","
        <div id=""grid-container"">
        <!-- Grid items will be dynamically added here -->
    </div>    ","null","","","","","","","","","","","",""
"","1417","html-keyboard-response","140","241428","0.0-11.0-2.16","ggJTmBvICF","5e8537fe23609011fe987ca7","6617fad957f7c6a12ea16e26","6622cf444892fad802096e1e","mask grid","q","","","","","Ontogenetic_Distractor_Threat_target","onmask","800","q","4","Ontogenetic","true","experimental"
"","null","html-keyboard-response","141","242139","0.0-11.0-0.17","ggJTmBvICF","5e8537fe23609011fe987ca7","6617fad957f7c6a12ea16e26","6622cf444892fad802096e1e","fixation cross","null","","","","","","","","","","","",""
"","null","html-keyboard-response","142","242945","0.0-11.0-1.17","ggJTmBvICF","5e8537fe23609011fe987ca7","6617fad957f7c6a12ea16e26","6622cf444892fad802096e1e","
        <div id=""grid-container"">
        <!-- Grid items will be dynamically added here -->
    </div>    ","null","","","","","","","","","","","",""
"","1574","html-keyboard-response","143","243720","0.0-11.0-2.17","ggJTmBvICF","5e8537fe23609011fe987ca7","6617fad957f7c6a12ea16e26","6622cf444892fad802096e1e","mask grid","q","","","","","Ontogenetic_Distractor_Threat_target","onmask","800","q","6","Ontogenetic","true","experimental"
"","null","html-keyboard-response","144","244428","0.0-11.0-0.18","ggJTmBvICF","5e8537fe23609011fe987ca7","6617fad957f7c6a12ea16e26","6622cf444892fad802096e1e","fixation cross","null","","","","","","","","","","","",""
"","null","html-keyboard-response","145","245232","0.0-11.0-1.18","ggJTmBvICF","5e8537fe23609011fe987ca7","6617fad957f7c6a12ea16e26","6622cf444892fad802096e1e","
        <div id=""grid-container"">
        <!-- Grid items will be dynamically added here -->
    </div>    ","null","","","","","","","","","","","",""
"","1473","html-keyboard-response","146","245906","0.0-11.0-2.18","ggJTmBvICF","5e8537fe23609011fe987ca7","6617fad957f7c6a12ea16e26","6622cf444892fad802096e1e","mask grid","p","","","","","Ontogenetic_Distractor_Nonthreat_target","onmask","800","p","6","Ontogenetic","true","experimental"
"","null","html-keyboard-response","147","246631","0.0-11.0-0.19","ggJTmBvICF","5e8537fe23609011fe987ca7","6617fad957f7c6a12ea16e26","6622cf444892fad802096e1e","fixation cross","null","","","","","","","","","","","",""
"","null","html-keyboard-response","148","247436","0.0-11.0-1.19","ggJTmBvICF","5e8537fe23609011fe987ca7","6617fad957f7c6a12ea16e26","6622cf444892fad802096e1e","
        <div id=""grid-container"">
        <!-- Grid items will be dynamically added here -->
    </div>    ","null","","","","","","","","","","","",""
"","1242","html-keyboard-response","149","247879","0.0-11.0-2.19","ggJTmBvICF","5e8537fe23609011fe987ca7","6617fad957f7c6a12ea16e26","6622cf444892fad802096e1e","mask grid","p","","","","","Ontogenetic_Distractor_Nonthreat_target","onmask","800","p","5","Ontogenetic","true","experimental"
"","null","html-keyboard-response","150","248615","0.0-11.0-0.20","ggJTmBvICF","5e8537fe23609011fe987ca7","6617fad957f7c6a12ea16e26","6622cf444892fad802096e1e","fixation cross","null","","","","","","","","","","","",""
"","null","html-keyboard-response","151","249432","0.0-11.0-1.20","ggJTmBvICF","5e8537fe23609011fe987ca7","6617fad957f7c6a12ea16e26","6622cf444892fad802096e1e","
        <div id=""grid-container"">
        <!-- Grid items will be dynamically added here -->
    </div>    ","null","","","","","","","","","","","",""
"","1399","html-keyboard-response","152","250033","0.0-11.0-2.20","ggJTmBvICF","5e8537fe23609011fe987ca7","6617fad957f7c6a12ea16e26","6622cf444892fad802096e1e","mask grid","q","","","","","Ontogenetic_Distractor_Threat_target","onmask","800","q","1","Ontogenetic","true","experimental"
"","null","html-keyboard-response","153","250758","0.0-11.0-0.21","ggJTmBvICF","5e8537fe23609011fe987ca7","6617fad957f7c6a12ea16e26","6622cf444892fad802096e1e","fixation cross","null","","","","","","","","","","","",""
"","null","html-keyboard-response","154","251563","0.0-11.0-1.21","ggJTmBvICF","5e8537fe23609011fe987ca7","6617fad957f7c6a12ea16e26","6622cf444892fad802096e1e","
        <div id=""grid-container"">
        <!-- Grid items will be dynamically added here -->
    </div>    ","null","","","","","","","","","","","",""
"","1554","html-keyboard-response","155","252319","0.0-11.0-2.21","ggJTmBvICF","5e8537fe23609011fe987ca7","6617fad957f7c6a12ea16e26","6622cf444892fad802096e1e","mask grid","q","","","","","Ontogenetic_Distractor_Threat_target","onmask","800","q","4","Ontogenetic","true","experimental"
"","null","html-keyboard-response","156","253038","0.0-11.0-0.22","ggJTmBvICF","5e8537fe23609011fe987ca7","6617fad957f7c6a12ea16e26","6622cf444892fad802096e1e","fixation cross","null","","","","","","","","","","","",""
"","null","html-keyboard-response","157","253846","0.0-11.0-1.22","ggJTmBvICF","5e8537fe23609011fe987ca7","6617fad957f7c6a12ea16e26","6622cf444892fad802096e1e","
        <div id=""grid-container"">
        <!-- Grid items will be dynamically added here -->
    </div>    ","null","","","","","","","","","","","",""
"","1493","html-keyboard-response","158","254540","0.0-11.0-2.22","ggJTmBvICF","5e8537fe23609011fe987ca7","6617fad957f7c6a12ea16e26","6622cf444892fad802096e1e","mask grid","q","","","","","Ontogenetic_Distractor_Threat_target","onmask","800","q","3","Ontogenetic","true","experimental"
"","null","html-keyboard-response","159","255279","0.0-11.0-0.23","ggJTmBvICF","5e8537fe23609011fe987ca7","6617fad957f7c6a12ea16e26","6622cf444892fad802096e1e","fixation cross","null","","","","","","","","","","","",""
"","null","html-keyboard-response","160","256106","0.0-11.0-1.23","ggJTmBvICF","5e8537fe23609011fe987ca7","6617fad957f7c6a12ea16e26","6622cf444892fad802096e1e","
        <div id=""grid-container"">
        <!-- Grid items will be dynamically added here -->
    </div>    ","null","","","","","","","","","","","",""
"","1444","html-keyboard-response","161","256751","0.0-11.0-2.23","ggJTmBvICF","5e8537fe23609011fe987ca7","6617fad957f7c6a12ea16e26","6622cf444892fad802096e1e","mask grid","p","","","","","Ontogenetic_Distractor_Nonthreat_target","onmask","800","p","9","Ontogenetic","true","experimental"
"","null","html-keyboard-response","162","257462","0.0-11.0-0.24","ggJTmBvICF","5e8537fe23609011fe987ca7","6617fad957f7c6a12ea16e26","6622cf444892fad802096e1e","fixation cross","null","","","","","","","","","","","",""
"","null","html-keyboard-response","163","258274","0.0-11.0-1.24","ggJTmBvICF","5e8537fe23609011fe987ca7","6617fad957f7c6a12ea16e26","6622cf444892fad802096e1e","
        <div id=""grid-container"">
        <!-- Grid items will be dynamically added here -->
    </div>    ","null","","","","","","","","","","","",""
"","1455","html-keyboard-response","164","258931","0.0-11.0-2.24","ggJTmBvICF","5e8537fe23609011fe987ca7","6617fad957f7c6a12ea16e26","6622cf444892fad802096e1e","mask grid","p","","","","","Ontogenetic_Distractor_Nonthreat_target","onmask","800","p","7","Ontogenetic","true","experimental"
"","null","html-keyboard-response","165","259670","0.0-11.0-0.25","ggJTmBvICF","5e8537fe23609011fe987ca7","6617fad957f7c6a12ea16e26","6622cf444892fad802096e1e","fixation cross","null","","","","","","","","","","","",""
"","null","html-keyboard-response","166","260488","0.0-11.0-1.25","ggJTmBvICF","5e8537fe23609011fe987ca7","6617fad957f7c6a12ea16e26","6622cf444892fad802096e1e","
        <div id=""grid-container"">
        <!-- Grid items will be dynamically added here -->
    </div>    ","null","","","","","","","","","","","",""
"","1658","html-keyboard-response","167","261347","0.0-11.0-2.25","ggJTmBvICF","5e8537fe23609011fe987ca7","6617fad957f7c6a12ea16e26","6622cf444892fad802096e1e","mask grid","p","","","","","Ontogenetic_Distractor_Nonthreat_target","onmask","800","p","9","Ontogenetic","true","experimental"
"","null","html-keyboard-response","168","262078","0.0-11.0-0.26","ggJTmBvICF","5e8537fe23609011fe987ca7","6617fad957f7c6a12ea16e26","6622cf444892fad802096e1e","fixation cross","null","","","","","","","","","","","",""
"","null","html-keyboard-response","169","262894","0.0-11.0-1.26","ggJTmBvICF","5e8537fe23609011fe987ca7","6617fad957f7c6a12ea16e26","6622cf444892fad802096e1e","
        <div id=""grid-container"">
        <!-- Grid items will be dynamically added here -->
    </div>    ","null","","","","","","","","","","","",""
"","1401","html-keyboard-response","170","263496","0.0-11.0-2.26","ggJTmBvICF","5e8537fe23609011fe987ca7","6617fad957f7c6a12ea16e26","6622cf444892fad802096e1e","mask grid","q","","","","","Ontogenetic_Distractor_Threat_target","onmask","800","q","2","Ontogenetic","true","experimental"
"","null","html-keyboard-response","171","264218","0.0-11.0-0.27","ggJTmBvICF","5e8537fe23609011fe987ca7","6617fad957f7c6a12ea16e26","6622cf444892fad802096e1e","fixation cross","null","","","","","","","","","","","",""
"","null","html-keyboard-response","172","265028","0.0-11.0-1.27","ggJTmBvICF","5e8537fe23609011fe987ca7","6617fad957f7c6a12ea16e26","6622cf444892fad802096e1e","
        <div id=""grid-container"">
        <!-- Grid items will be dynamically added here -->
    </div>    ","null","","","","","","","","","","","",""
"","1275","html-keyboard-response","173","265504","0.0-11.0-2.27","ggJTmBvICF","5e8537fe23609011fe987ca7","6617fad957f7c6a12ea16e26","6622cf444892fad802096e1e","mask grid","p","","","","","Ontogenetic_Distractor_Nonthreat_target","onmask","800","p","4","Ontogenetic","true","experimental"
"","null","html-keyboard-response","174","266231","0.0-11.0-0.28","ggJTmBvICF","5e8537fe23609011fe987ca7","6617fad957f7c6a12ea16e26","6622cf444892fad802096e1e","fixation cross","null","","","","","","","","","","","",""
"","null","html-keyboard-response","175","267033","0.0-11.0-1.28","ggJTmBvICF","5e8537fe23609011fe987ca7","6617fad957f7c6a12ea16e26","6622cf444892fad802096e1e","
        <div id=""grid-container"">
        <!-- Grid items will be dynamically added here -->
    </div>    ","null","","","","","","","","","","","",""
"","1509","html-keyboard-response","176","267743","0.0-11.0-2.28","ggJTmBvICF","5e8537fe23609011fe987ca7","6617fad957f7c6a12ea16e26","6622cf444892fad802096e1e","mask grid","q","","","","","Ontogenetic_Distractor_Threat_target","onmask","800","q","8","Ontogenetic","true","experimental"
"","null","html-keyboard-response","177","268449","0.0-11.0-0.29","ggJTmBvICF","5e8537fe23609011fe987ca7","6617fad957f7c6a12ea16e26","6622cf444892fad802096e1e","fixation cross","null","","","","","","","","","","","",""
"","null","html-keyboard-response","178","269260","0.0-11.0-1.29","ggJTmBvICF","5e8537fe23609011fe987ca7","6617fad957f7c6a12ea16e26","6622cf444892fad802096e1e","
        <div id=""grid-container"">
        <!-- Grid items will be dynamically added here -->
    </div>    ","null","","","","","","","","","","","",""
"","1586","html-keyboard-response","179","270047","0.0-11.0-2.29","ggJTmBvICF","5e8537fe23609011fe987ca7","6617fad957f7c6a12ea16e26","6622cf444892fad802096e1e","mask grid"," ","","","","","Ontogenetic_Distractor_notarget","onmask","800"," ","7","Ontogenetic","true","experimental"
"","null","html-keyboard-response","180","270770","0.0-11.0-0.30","ggJTmBvICF","5e8537fe23609011fe987ca7","6617fad957f7c6a12ea16e26","6622cf444892fad802096e1e","fixation cross","null","","","","","","","","","","","",""
"","null","html-keyboard-response","181","271574","0.0-11.0-1.30","ggJTmBvICF","5e8537fe23609011fe987ca7","6617fad957f7c6a12ea16e26","6622cf444892fad802096e1e","
        <div id=""grid-container"">
        <!-- Grid items will be dynamically added here -->
    </div>    ","null","","","","","","","","","","","",""
"","1546","html-keyboard-response","182","272320","0.0-11.0-2.30","ggJTmBvICF","5e8537fe23609011fe987ca7","6617fad957f7c6a12ea16e26","6622cf444892fad802096e1e","mask grid","q","","","","","Ontogenetic_Distractor_Threat_target","onmask","800","q","5","Ontogenetic","true","experimental"
"","null","html-keyboard-response","183","273034","0.0-11.0-0.31","ggJTmBvICF","5e8537fe23609011fe987ca7","6617fad957f7c6a12ea16e26","6622cf444892fad802096e1e","fixation cross","null","","","","","","","","","","","",""
"","null","html-keyboard-response","184","273836","0.0-11.0-1.31","ggJTmBvICF","5e8537fe23609011fe987ca7","6617fad957f7c6a12ea16e26","6622cf444892fad802096e1e","
        <div id=""grid-container"">
        <!-- Grid items will be dynamically added here -->
    </div>    ","null","","","","","","","","","","","",""
"","1557","html-keyboard-response","185","274594","0.0-11.0-2.31","ggJTmBvICF","5e8537fe23609011fe987ca7","6617fad957f7c6a12ea16e26","6622cf444892fad802096e1e","mask grid","q","","","","","Ontogenetic_Distractor_Threat_target","onmask","800","q","1","Ontogenetic","true","experimental"
"","null","html-keyboard-response","186","275303","0.0-11.0-0.32","ggJTmBvICF","5e8537fe23609011fe987ca7","6617fad957f7c6a12ea16e26","6622cf444892fad802096e1e","fixation cross","null","","","","","","","","","","","",""
"","null","html-keyboard-response","187","276107","0.0-11.0-1.32","ggJTmBvICF","5e8537fe23609011fe987ca7","6617fad957f7c6a12ea16e26","6622cf444892fad802096e1e","
        <div id=""grid-container"">
        <!-- Grid items will be dynamically added here -->
    </div>    ","null","","","","","","","","","","","",""
"","1703","html-keyboard-response","188","277010","0.0-11.0-2.32","ggJTmBvICF","5e8537fe23609011fe987ca7","6617fad957f7c6a12ea16e26","6622cf444892fad802096e1e","mask grid","p","","","","","Ontogenetic_Distractor_Nonthreat_target","onmask","800","p","3","Ontogenetic","true","experimental"
"","null","html-keyboard-response","189","277725","0.0-11.0-0.33","ggJTmBvICF","5e8537fe23609011fe987ca7","6617fad957f7c6a12ea16e26","6622cf444892fad802096e1e","fixation cross","null","","","","","","","","","","","",""
"","null","html-keyboard-response","190","278536","0.0-11.0-1.33","ggJTmBvICF","5e8537fe23609011fe987ca7","6617fad957f7c6a12ea16e26","6622cf444892fad802096e1e","
        <div id=""grid-container"">
        <!-- Grid items will be dynamically added here -->
    </div>    ","null","","","","","","","","","","","",""
"","1518","html-keyboard-response","191","279254","0.0-11.0-2.33","ggJTmBvICF","5e8537fe23609011fe987ca7","6617fad957f7c6a12ea16e26","6622cf444892fad802096e1e","mask grid","q","","","","","Ontogenetic_Distractor_Threat_target","onmask","800","q","1","Ontogenetic","true","experimental"
"","null","html-keyboard-response","192","279992","0.0-11.0-0.34","ggJTmBvICF","5e8537fe23609011fe987ca7","6617fad957f7c6a12ea16e26","6622cf444892fad802096e1e","fixation cross","null","","","","","","","","","","","",""
"","null","html-keyboard-response","193","280794","0.0-11.0-1.34","ggJTmBvICF","5e8537fe23609011fe987ca7","6617fad957f7c6a12ea16e26","6622cf444892fad802096e1e","
        <div id=""grid-container"">
        <!-- Grid items will be dynamically added here -->
    </div>    ","null","","","","","","","","","","","",""
"","1445","html-keyboard-response","194","281441","0.0-11.0-2.34","ggJTmBvICF","5e8537fe23609011fe987ca7","6617fad957f7c6a12ea16e26","6622cf444892fad802096e1e","mask grid","p","","","","","Ontogenetic_Distractor_Nonthreat_target","onmask","800","p","1","Ontogenetic","true","experimental"
"","null","html-keyboard-response","195","282176","0.0-11.0-0.35","ggJTmBvICF","5e8537fe23609011fe987ca7","6617fad957f7c6a12ea16e26","6622cf444892fad802096e1e","fixation cross","null","","","","","","","","","","","",""
"","null","html-keyboard-response","196","283039","0.0-11.0-1.35","ggJTmBvICF","5e8537fe23609011fe987ca7","6617fad957f7c6a12ea16e26","6622cf444892fad802096e1e","
        <div id=""grid-container"">
        <!-- Grid items will be dynamically added here -->
    </div>    ","null","","","","","","","","","","","",""
"","1490","html-keyboard-response","197","283730","0.0-11.0-2.35","ggJTmBvICF","5e8537fe23609011fe987ca7","6617fad957f7c6a12ea16e26","6622cf444892fad802096e1e","mask grid","q","","","","","Ontogenetic_Distractor_Threat_target","onmask","800","q","3","Ontogenetic","true","experimental"
"","null","html-keyboard-response","198","284453","0.0-11.0-0.36","ggJTmBvICF","5e8537fe23609011fe987ca7","6617fad957f7c6a12ea16e26","6622cf444892fad802096e1e","fixation cross","null","","","","","","","","","","","",""
"","null","html-keyboard-response","199","285254","0.0-11.0-1.36","ggJTmBvICF","5e8537fe23609011fe987ca7","6617fad957f7c6a12ea16e26","6622cf444892fad802096e1e","
        <div id=""grid-container"">
        <!-- Grid items will be dynamically added here -->
    </div>    ","null","","","","","","","","","","","",""
"","1668","html-keyboard-response","200","286124","0.0-11.0-2.36","ggJTmBvICF","5e8537fe23609011fe987ca7","6617fad957f7c6a12ea16e26","6622cf444892fad802096e1e","mask grid","q","","","","","Ontogenetic_Distractor_Threat_target","onmask","800","q","5","Ontogenetic","true","experimental"
"","null","html-keyboard-response","201","286842","0.0-11.0-0.37","ggJTmBvICF","5e8537fe23609011fe987ca7","6617fad957f7c6a12ea16e26","6622cf444892fad802096e1e","fixation cross","null","","","","","","","","","","","",""
"","null","html-keyboard-response","202","287660","0.0-11.0-1.37","ggJTmBvICF","5e8537fe23609011fe987ca7","6617fad957f7c6a12ea16e26","6622cf444892fad802096e1e","
        <div id=""grid-container"">
        <!-- Grid items will be dynamically added here -->
    </div>    ","null","","","","","","","","","","","",""
"","1887","html-keyboard-response","203","288747","0.0-11.0-2.37","ggJTmBvICF","5e8537fe23609011fe987ca7","6617fad957f7c6a12ea16e26","6622cf444892fad802096e1e","mask grid"," ","","","","","Ontogenetic_Distractor_Nonthreat_target","onmask","800","p","6","Ontogenetic","false","experimental"
"","null","html-keyboard-response","204","289463","0.0-11.0-0.38","ggJTmBvICF","5e8537fe23609011fe987ca7","6617fad957f7c6a12ea16e26","6622cf444892fad802096e1e","fixation cross","null","","","","","","","","","","","",""
"","null","html-keyboard-response","205","290272","0.0-11.0-1.38","ggJTmBvICF","5e8537fe23609011fe987ca7","6617fad957f7c6a12ea16e26","6622cf444892fad802096e1e","
        <div id=""grid-container"">
        <!-- Grid items will be dynamically added here -->
    </div>    ","null","","","","","","","","","","","",""
"","1536","html-keyboard-response","206","291009","0.0-11.0-2.38","ggJTmBvICF","5e8537fe23609011fe987ca7","6617fad957f7c6a12ea16e26","6622cf444892fad802096e1e","mask grid","q","","","","","Ontogenetic_Distractor_Threat_target","onmask","800","q","7","Ontogenetic","true","experimental"
"","null","html-keyboard-response","207","291743","0.0-11.0-0.39","ggJTmBvICF","5e8537fe23609011fe987ca7","6617fad957f7c6a12ea16e26","6622cf444892fad802096e1e","fixation cross","null","","","","","","","","","","","",""
"","null","html-keyboard-response","208","292562","0.0-11.0-1.39","ggJTmBvICF","5e8537fe23609011fe987ca7","6617fad957f7c6a12ea16e26","6622cf444892fad802096e1e","
        <div id=""grid-container"">
        <!-- Grid items will be dynamically added here -->
    </div>    ","null","","","","","","","","","","","",""
"","1602","html-keyboard-response","209","293365","0.0-11.0-2.39","ggJTmBvICF","5e8537fe23609011fe987ca7","6617fad957f7c6a12ea16e26","6622cf444892fad802096e1e","mask grid","p","","","","","Ontogenetic_Distractor_Nonthreat_target","onmask","800","p","2","Ontogenetic","true","experimental"
"","16935","html-keyboard-response","210","310513","0.0-12.0","ggJTmBvICF","5e8537fe23609011fe987ca7","6617fad957f7c6a12ea16e26","6622cf444892fad802096e1e","break screen"," ","","","","","","","","","","","",""
"","null","html-keyboard-response","211","313036","0.0-13.0-0.0","ggJTmBvICF","5e8537fe23609011fe987ca7","6617fad957f7c6a12ea16e26","6622cf444892fad802096e1e","fixation cross","null","","","","","","","","","","","",""
"","null","html-keyboard-response","212","313841","0.0-13.0-1.0","ggJTmBvICF","5e8537fe23609011fe987ca7","6617fad957f7c6a12ea16e26","6622cf444892fad802096e1e","
        <div id=""grid-container"">
        <!-- Grid items will be dynamically added here -->
    </div>    ","null","","","","","","","","","","","",""
"","986","html-keyboard-response","213","314028","0.0-13.0-2.0","ggJTmBvICF","5e8537fe23609011fe987ca7","6617fad957f7c6a12ea16e26","6622cf444892fad802096e1e","mask grid","q","","","","","Ontogenetic_Distractor_Threat_target","onmask","800","q","9","Ontogenetic","true","experimental"
"","null","html-keyboard-response","214","314750","0.0-13.0-0.1","ggJTmBvICF","5e8537fe23609011fe987ca7","6617fad957f7c6a12ea16e26","6622cf444892fad802096e1e","fixation cross","null","","","","","","","","","","","",""
"","null","html-keyboard-response","215","315559","0.0-13.0-1.1","ggJTmBvICF","5e8537fe23609011fe987ca7","6617fad957f7c6a12ea16e26","6622cf444892fad802096e1e","
        <div id=""grid-container"">
        <!-- Grid items will be dynamically added here -->
    </div>    ","null","","","","","","","","","","","",""
"","1035","html-keyboard-response","216","315796","0.0-13.0-2.1","ggJTmBvICF","5e8537fe23609011fe987ca7","6617fad957f7c6a12ea16e26","6622cf444892fad802096e1e","mask grid","q","","","","","Ontogenetic_Distractor_Threat_target","onmask","800","q","6","Ontogenetic","true","experimental"
"","null","html-keyboard-response","217","316510","0.0-13.0-0.2","ggJTmBvICF","5e8537fe23609011fe987ca7","6617fad957f7c6a12ea16e26","6622cf444892fad802096e1e","fixation cross","null","","","","","","","","","","","",""
"","null","html-keyboard-response","218","317313","0.0-13.0-1.2","ggJTmBvICF","5e8537fe23609011fe987ca7","6617fad957f7c6a12ea16e26","6622cf444892fad802096e1e","
        <div id=""grid-container"">
        <!-- Grid items will be dynamically added here -->
    </div>    ","null","","","","","","","","","","","",""
"","871","html-keyboard-response","219","317385","0.0-13.0-2.2","ggJTmBvICF","5e8537fe23609011fe987ca7","6617fad957f7c6a12ea16e26","6622cf444892fad802096e1e","mask grid","q","","","","","Ontogenetic_Distractor_Threat_target","onmask","800","q","3","Ontogenetic","true","experimental"
"","null","html-keyboard-response","220","318101","0.0-13.0-0.3","ggJTmBvICF","5e8537fe23609011fe987ca7","6617fad957f7c6a12ea16e26","6622cf444892fad802096e1e","fixation cross","null","","","","","","","","","","","",""
"","null","html-keyboard-response","221","318919","0.0-13.0-1.3","ggJTmBvICF","5e8537fe23609011fe987ca7","6617fad957f7c6a12ea16e26","6622cf444892fad802096e1e","
        <div id=""grid-container"">
        <!-- Grid items will be dynamically added here -->
    </div>    ","null","","","","","","","","","","","",""
"","1165","html-keyboard-response","222","319286","0.0-13.0-2.3","ggJTmBvICF","5e8537fe23609011fe987ca7","6617fad957f7c6a12ea16e26","6622cf444892fad802096e1e","mask grid","p","","","","","Ontogenetic_Distractor_Nonthreat_target","onmask","800","p","7","Ontogenetic","true","experimental"
"","null","html-keyboard-response","223","320003","0.0-13.0-0.4","ggJTmBvICF","5e8537fe23609011fe987ca7","6617fad957f7c6a12ea16e26","6622cf444892fad802096e1e","fixation cross","null","","","","","","","","","","","",""
"","null","html-keyboard-response","224","320826","0.0-13.0-1.4","ggJTmBvICF","5e8537fe23609011fe987ca7","6617fad957f7c6a12ea16e26","6622cf444892fad802096e1e","
        <div id=""grid-container"">
        <!-- Grid items will be dynamically added here -->
    </div>    ","null","","","","","","","","","","","",""
"","955","html-keyboard-response","225","320982","0.0-13.0-2.4","ggJTmBvICF","5e8537fe23609011fe987ca7","6617fad957f7c6a12ea16e26","6622cf444892fad802096e1e","mask grid","q","","","","","Ontogenetic_Distractor_Threat_target","onmask","800","q","4","Ontogenetic","true","experimental"
"","null","html-keyboard-response","226","321703","0.0-13.0-0.5","ggJTmBvICF","5e8537fe23609011fe987ca7","6617fad957f7c6a12ea16e26","6622cf444892fad802096e1e","fixation cross","null","","","","","","","","","","","",""
"","null","html-keyboard-response","227","322529","0.0-13.0-1.5","ggJTmBvICF","5e8537fe23609011fe987ca7","6617fad957f7c6a12ea16e26","6622cf444892fad802096e1e","
        <div id=""grid-container"">
        <!-- Grid items will be dynamically added here -->
    </div>    ","null","","","","","","","","","","","",""
"","1246","html-keyboard-response","228","322976","0.0-13.0-2.5","ggJTmBvICF","5e8537fe23609011fe987ca7","6617fad957f7c6a12ea16e26","6622cf444892fad802096e1e","mask grid","p","","","","","Ontogenetic_Distractor_Nonthreat_target","onmask","800","p","6","Ontogenetic","true","experimental"
"","null","html-keyboard-response","229","323681","0.0-13.0-0.6","ggJTmBvICF","5e8537fe23609011fe987ca7","6617fad957f7c6a12ea16e26","6622cf444892fad802096e1e","fixation cross","null","","","","","","","","","","","",""
"","null","html-keyboard-response","230","324495","0.0-13.0-1.6","ggJTmBvICF","5e8537fe23609011fe987ca7","6617fad957f7c6a12ea16e26","6622cf444892fad802096e1e","
        <div id=""grid-container"">
        <!-- Grid items will be dynamically added here -->
    </div>    ","null","","","","","","","","","","","",""
"","1286","html-keyboard-response","231","324982","0.0-13.0-2.6","ggJTmBvICF","5e8537fe23609011fe987ca7","6617fad957f7c6a12ea16e26","6622cf444892fad802096e1e","mask grid","p","","","","","Ontogenetic_Distractor_Nonthreat_target","onmask","800","p","1","Ontogenetic","true","experimental"
"","null","html-keyboard-response","232","325715","0.0-13.0-0.7","ggJTmBvICF","5e8537fe23609011fe987ca7","6617fad957f7c6a12ea16e26","6622cf444892fad802096e1e","fixation cross","null","","","","","","","","","","","",""
"","null","html-keyboard-response","233","326544","0.0-13.0-1.7","ggJTmBvICF","5e8537fe23609011fe987ca7","6617fad957f7c6a12ea16e26","6622cf444892fad802096e1e","
        <div id=""grid-container"">
        <!-- Grid items will be dynamically added here -->
    </div>    ","null","","","","","","","","","","","",""
"","1209","html-keyboard-response","234","326952","0.0-13.0-2.7","ggJTmBvICF","5e8537fe23609011fe987ca7","6617fad957f7c6a12ea16e26","6622cf444892fad802096e1e","mask grid","q","","","","","Ontogenetic_Distractor_Threat_target","onmask","800","q","7","Ontogenetic","true","experimental"
"","null","html-keyboard-response","235","327679","0.0-13.0-0.8","ggJTmBvICF","5e8537fe23609011fe987ca7","6617fad957f7c6a12ea16e26","6622cf444892fad802096e1e","fixation cross","null","","","","","","","","","","","",""
"","null","html-keyboard-response","236","328552","0.0-13.0-1.8","ggJTmBvICF","5e8537fe23609011fe987ca7","6617fad957f7c6a12ea16e26","6622cf444892fad802096e1e","
        <div id=""grid-container"">
        <!-- Grid items will be dynamically added here -->
    </div>    ","null","","","","","","","","","","","",""
"","1357","html-keyboard-response","237","329109","0.0-13.0-2.8","ggJTmBvICF","5e8537fe23609011fe987ca7","6617fad957f7c6a12ea16e26","6622cf444892fad802096e1e","mask grid","p","","","","","Ontogenetic_Distractor_Nonthreat_target","onmask","800","p","3","Ontogenetic","true","experimental"
"","null","html-keyboard-response","238","329824","0.0-13.0-0.9","ggJTmBvICF","5e8537fe23609011fe987ca7","6617fad957f7c6a12ea16e26","6622cf444892fad802096e1e","fixation cross","null","","","","","","","","","","","",""
"","null","html-keyboard-response","239","330727","0.0-13.0-1.9","ggJTmBvICF","5e8537fe23609011fe987ca7","6617fad957f7c6a12ea16e26","6622cf444892fad802096e1e","
        <div id=""grid-container"">
        <!-- Grid items will be dynamically added here -->
    </div>    ","null","","","","","","","","","","","",""
"","1381","html-keyboard-response","240","331308","0.0-13.0-2.9","ggJTmBvICF","5e8537fe23609011fe987ca7","6617fad957f7c6a12ea16e26","6622cf444892fad802096e1e","mask grid","p","","","","","Ontogenetic_Distractor_Nonthreat_target","onmask","800","p","3","Ontogenetic","true","experimental"
"","null","html-keyboard-response","241","332017","0.0-13.0-0.10","ggJTmBvICF","5e8537fe23609011fe987ca7","6617fad957f7c6a12ea16e26","6622cf444892fad802096e1e","fixation cross","null","","","","","","","","","","","",""
"","null","html-keyboard-response","242","332834","0.0-13.0-1.10","ggJTmBvICF","5e8537fe23609011fe987ca7","6617fad957f7c6a12ea16e26","6622cf444892fad802096e1e","
        <div id=""grid-container"">
        <!-- Grid items will be dynamically added here -->
    </div>    ","null","","","","","","","","","","","",""
"","1402","html-keyboard-response","243","333437","0.0-13.0-2.10","ggJTmBvICF","5e8537fe23609011fe987ca7","6617fad957f7c6a12ea16e26","6622cf444892fad802096e1e","mask grid","q","","","","","Ontogenetic_Distractor_Threat_target","onmask","800","q","4","Ontogenetic","true","experimental"
"","null","html-keyboard-response","244","334153","0.0-13.0-0.11","ggJTmBvICF","5e8537fe23609011fe987ca7","6617fad957f7c6a12ea16e26","6622cf444892fad802096e1e","fixation cross","null","","","","","","","","","","","",""
"","null","html-keyboard-response","245","334958","0.0-13.0-1.11","ggJTmBvICF","5e8537fe23609011fe987ca7","6617fad957f7c6a12ea16e26","6622cf444892fad802096e1e","
        <div id=""grid-container"">
        <!-- Grid items will be dynamically added here -->
    </div>    ","null","","","","","","","","","","","",""
"","1421","html-keyboard-response","246","335580","0.0-13.0-2.11","ggJTmBvICF","5e8537fe23609011fe987ca7","6617fad957f7c6a12ea16e26","6622cf444892fad802096e1e","mask grid","q","","","","","Ontogenetic_Distractor_Threat_target","onmask","800","q","1","Ontogenetic","true","experimental"
"","null","html-keyboard-response","247","336288","0.0-13.0-0.12","ggJTmBvICF","5e8537fe23609011fe987ca7","6617fad957f7c6a12ea16e26","6622cf444892fad802096e1e","fixation cross","null","","","","","","","","","","","",""
"","null","html-keyboard-response","248","337103","0.0-13.0-1.12","ggJTmBvICF","5e8537fe23609011fe987ca7","6617fad957f7c6a12ea16e26","6622cf444892fad802096e1e","
        <div id=""grid-container"">
        <!-- Grid items will be dynamically added here -->
    </div>    ","null","","","","","","","","","","","",""
"","1386","html-keyboard-response","249","337690","0.0-13.0-2.12","ggJTmBvICF","5e8537fe23609011fe987ca7","6617fad957f7c6a12ea16e26","6622cf444892fad802096e1e","mask grid","q","","","","","Ontogenetic_Distractor_Threat_target","onmask","800","q","8","Ontogenetic","true","experimental"
"","null","html-keyboard-response","250","338418","0.0-13.0-0.13","ggJTmBvICF","5e8537fe23609011fe987ca7","6617fad957f7c6a12ea16e26","6622cf444892fad802096e1e","fixation cross","null","","","","","","","","","","","",""
"","null","html-keyboard-response","251","339238","0.0-13.0-1.13","ggJTmBvICF","5e8537fe23609011fe987ca7","6617fad957f7c6a12ea16e26","6622cf444892fad802096e1e","
        <div id=""grid-container"">
        <!-- Grid items will be dynamically added here -->
    </div>    ","null","","","","","","","","","","","",""
"","1439","html-keyboard-response","252","339877","0.0-13.0-2.13","ggJTmBvICF","5e8537fe23609011fe987ca7","6617fad957f7c6a12ea16e26","6622cf444892fad802096e1e","mask grid","q","","","","","Ontogenetic_Distractor_Threat_target","onmask","800","q","3","Ontogenetic","true","experimental"
"","null","html-keyboard-response","253","340593","0.0-13.0-0.14","ggJTmBvICF","5e8537fe23609011fe987ca7","6617fad957f7c6a12ea16e26","6622cf444892fad802096e1e","fixation cross","null","","","","","","","","","","","",""
"","null","html-keyboard-response","254","341413","0.0-13.0-1.14","ggJTmBvICF","5e8537fe23609011fe987ca7","6617fad957f7c6a12ea16e26","6622cf444892fad802096e1e","
        <div id=""grid-container"">
        <!-- Grid items will be dynamically added here -->
    </div>    ","null","","","","","","","","","","","",""
"","1331","html-keyboard-response","255","341944","0.0-13.0-2.14","ggJTmBvICF","5e8537fe23609011fe987ca7","6617fad957f7c6a12ea16e26","6622cf444892fad802096e1e","mask grid","p","","","","","Ontogenetic_Distractor_Nonthreat_target","onmask","800","p","5","Ontogenetic","true","experimental"
"","null","html-keyboard-response","256","342661","0.0-13.0-0.15","ggJTmBvICF","5e8537fe23609011fe987ca7","6617fad957f7c6a12ea16e26","6622cf444892fad802096e1e","fixation cross","null","","","","","","","","","","","",""
"","null","html-keyboard-response","257","343480","0.0-13.0-1.15","ggJTmBvICF","5e8537fe23609011fe987ca7","6617fad957f7c6a12ea16e26","6622cf444892fad802096e1e","
        <div id=""grid-container"">
        <!-- Grid items will be dynamically added here -->
    </div>    ","null","","","","","","","","","","","",""
"","1382","html-keyboard-response","258","344064","0.0-13.0-2.15","ggJTmBvICF","5e8537fe23609011fe987ca7","6617fad957f7c6a12ea16e26","6622cf444892fad802096e1e","mask grid","q","","","","","Ontogenetic_Distractor_Threat_target","onmask","800","q","8","Ontogenetic","true","experimental"
"","null","html-keyboard-response","259","344769","0.0-13.0-0.16","ggJTmBvICF","5e8537fe23609011fe987ca7","6617fad957f7c6a12ea16e26","6622cf444892fad802096e1e","fixation cross","null","","","","","","","","","","","",""
"","null","html-keyboard-response","260","345587","0.0-13.0-1.16","ggJTmBvICF","5e8537fe23609011fe987ca7","6617fad957f7c6a12ea16e26","6622cf444892fad802096e1e","
        <div id=""grid-container"">
        <!-- Grid items will be dynamically added here -->
    </div>    ","null","","","","","","","","","","","",""
"","1440","html-keyboard-response","261","346227","0.0-13.0-2.16","ggJTmBvICF","5e8537fe23609011fe987ca7","6617fad957f7c6a12ea16e26","6622cf444892fad802096e1e","mask grid","p","","","","","Ontogenetic_Distractor_Nonthreat_target","onmask","800","p","8","Ontogenetic","true","experimental"
"","null","html-keyboard-response","262","346950","0.0-13.0-0.17","ggJTmBvICF","5e8537fe23609011fe987ca7","6617fad957f7c6a12ea16e26","6622cf444892fad802096e1e","fixation cross","null","","","","","","","","","","","",""
"","null","html-keyboard-response","263","347761","0.0-13.0-1.17","ggJTmBvICF","5e8537fe23609011fe987ca7","6617fad957f7c6a12ea16e26","6622cf444892fad802096e1e","
        <div id=""grid-container"">
        <!-- Grid items will be dynamically added here -->
    </div>    ","null","","","","","","","","","","","",""
"","1697","html-keyboard-response","264","348658","0.0-13.0-2.17","ggJTmBvICF","5e8537fe23609011fe987ca7","6617fad957f7c6a12ea16e26","6622cf444892fad802096e1e","mask grid"," ","","","","","Ontogenetic_Distractor_notarget","onmask","800"," ","5","Ontogenetic","true","experimental"
"","null","html-keyboard-response","265","349385","0.0-13.0-0.18","ggJTmBvICF","5e8537fe23609011fe987ca7","6617fad957f7c6a12ea16e26","6622cf444892fad802096e1e","fixation cross","null","","","","","","","","","","","",""
"","null","html-keyboard-response","266","350204","0.0-13.0-1.18","ggJTmBvICF","5e8537fe23609011fe987ca7","6617fad957f7c6a12ea16e26","6622cf444892fad802096e1e","
        <div id=""grid-container"">
        <!-- Grid items will be dynamically added here -->
    </div>    ","null","","","","","","","","","","","",""
"","1273","html-keyboard-response","267","350678","0.0-13.0-2.18","ggJTmBvICF","5e8537fe23609011fe987ca7","6617fad957f7c6a12ea16e26","6622cf444892fad802096e1e","mask grid","p","","","","","Ontogenetic_Distractor_Nonthreat_target","onmask","800","p","5","Ontogenetic","true","experimental"
"","null","html-keyboard-response","268","351397","0.0-13.0-0.19","ggJTmBvICF","5e8537fe23609011fe987ca7","6617fad957f7c6a12ea16e26","6622cf444892fad802096e1e","fixation cross","null","","","","","","","","","","","",""
"","null","html-keyboard-response","269","352208","0.0-13.0-1.19","ggJTmBvICF","5e8537fe23609011fe987ca7","6617fad957f7c6a12ea16e26","6622cf444892fad802096e1e","
        <div id=""grid-container"">
        <!-- Grid items will be dynamically added here -->
    </div>    ","null","","","","","","","","","","","",""
"","1230","html-keyboard-response","270","352639","0.0-13.0-2.19","ggJTmBvICF","5e8537fe23609011fe987ca7","6617fad957f7c6a12ea16e26","6622cf444892fad802096e1e","mask grid","q","","","","","Ontogenetic_Distractor_Threat_target","onmask","800","q","8","Ontogenetic","true","experimental"
"","null","html-keyboard-response","271","353359","0.0-13.0-0.20","ggJTmBvICF","5e8537fe23609011fe987ca7","6617fad957f7c6a12ea16e26","6622cf444892fad802096e1e","fixation cross","null","","","","","","","","","","","",""
"","null","html-keyboard-response","272","354164","0.0-13.0-1.20","ggJTmBvICF","5e8537fe23609011fe987ca7","6617fad957f7c6a12ea16e26","6622cf444892fad802096e1e","
        <div id=""grid-container"">
        <!-- Grid items will be dynamically added here -->
    </div>    ","null","","","","","","","","","","","",""
"","1067","html-keyboard-response","273","354431","0.0-13.0-2.20","ggJTmBvICF","5e8537fe23609011fe987ca7","6617fad957f7c6a12ea16e26","6622cf444892fad802096e1e","mask grid","p","","","","","Ontogenetic_Distractor_Nonthreat_target","onmask","800","p","2","Ontogenetic","true","experimental"
"","null","html-keyboard-response","274","355142","0.0-13.0-0.21","ggJTmBvICF","5e8537fe23609011fe987ca7","6617fad957f7c6a12ea16e26","6622cf444892fad802096e1e","fixation cross","null","","","","","","","","","","","",""
"","null","html-keyboard-response","275","355946","0.0-13.0-1.21","ggJTmBvICF","5e8537fe23609011fe987ca7","6617fad957f7c6a12ea16e26","6622cf444892fad802096e1e","
        <div id=""grid-container"">
        <!-- Grid items will be dynamically added here -->
    </div>    ","null","","","","","","","","","","","",""
"","1338","html-keyboard-response","276","356483","0.0-13.0-2.21","ggJTmBvICF","5e8537fe23609011fe987ca7","6617fad957f7c6a12ea16e26","6622cf444892fad802096e1e","mask grid"," ","","","","","Ontogenetic_Distractor_notarget","onmask","800"," ","6","Ontogenetic","true","experimental"
"","null","html-keyboard-response","277","357190","0.0-13.0-0.22","ggJTmBvICF","5e8537fe23609011fe987ca7","6617fad957f7c6a12ea16e26","6622cf444892fad802096e1e","fixation cross","null","","","","","","","","","","","",""
"","null","html-keyboard-response","278","358004","0.0-13.0-1.22","ggJTmBvICF","5e8537fe23609011fe987ca7","6617fad957f7c6a12ea16e26","6622cf444892fad802096e1e","
        <div id=""grid-container"">
        <!-- Grid items will be dynamically added here -->
    </div>    ","null","","","","","","","","","","","",""
"","1390","html-keyboard-response","279","358595","0.0-13.0-2.22","ggJTmBvICF","5e8537fe23609011fe987ca7","6617fad957f7c6a12ea16e26","6622cf444892fad802096e1e","mask grid","q","","","","","Ontogenetic_Distractor_Threat_target","onmask","800","q","9","Ontogenetic","true","experimental"
"","null","html-keyboard-response","280","359308","0.0-13.0-0.23","ggJTmBvICF","5e8537fe23609011fe987ca7","6617fad957f7c6a12ea16e26","6622cf444892fad802096e1e","fixation cross","null","","","","","","","","","","","",""
"","null","html-keyboard-response","281","360112","0.0-13.0-1.23","ggJTmBvICF","5e8537fe23609011fe987ca7","6617fad957f7c6a12ea16e26","6622cf444892fad802096e1e","
        <div id=""grid-container"">
        <!-- Grid items will be dynamically added here -->
    </div>    ","null","","","","","","","","","","","",""
"","1845","html-keyboard-response","282","361157","0.0-13.0-2.23","ggJTmBvICF","5e8537fe23609011fe987ca7","6617fad957f7c6a12ea16e26","6622cf444892fad802096e1e","mask grid"," ","","","","","Ontogenetic_Distractor_notarget","onmask","800"," ","6","Ontogenetic","true","experimental"
"","null","html-keyboard-response","283","361878","0.0-13.0-0.24","ggJTmBvICF","5e8537fe23609011fe987ca7","6617fad957f7c6a12ea16e26","6622cf444892fad802096e1e","fixation cross","null","","","","","","","","","","","",""
"","null","html-keyboard-response","284","362691","0.0-13.0-1.24","ggJTmBvICF","5e8537fe23609011fe987ca7","6617fad957f7c6a12ea16e26","6622cf444892fad802096e1e","
        <div id=""grid-container"">
        <!-- Grid items will be dynamically added here -->
    </div>    ","null","","","","","","","","","","","",""
"","1498","html-keyboard-response","285","363389","0.0-13.0-2.24","ggJTmBvICF","5e8537fe23609011fe987ca7","6617fad957f7c6a12ea16e26","6622cf444892fad802096e1e","mask grid","q","","","","","Ontogenetic_Distractor_Threat_target","onmask","800","q","2","Ontogenetic","true","experimental"
"","null","html-keyboard-response","286","364113","0.0-13.0-0.25","ggJTmBvICF","5e8537fe23609011fe987ca7","6617fad957f7c6a12ea16e26","6622cf444892fad802096e1e","fixation cross","null","","","","","","","","","","","",""
"","null","html-keyboard-response","287","364925","0.0-13.0-1.25","ggJTmBvICF","5e8537fe23609011fe987ca7","6617fad957f7c6a12ea16e26","6622cf444892fad802096e1e","
        <div id=""grid-container"">
        <!-- Grid items will be dynamically added here -->
    </div>    ","null","","","","","","","","","","","",""
"","1423","html-keyboard-response","288","365551","0.0-13.0-2.25","ggJTmBvICF","5e8537fe23609011fe987ca7","6617fad957f7c6a12ea16e26","6622cf444892fad802096e1e","mask grid","q","","","","","Ontogenetic_Distractor_Threat_target","onmask","800","q","2","Ontogenetic","true","experimental"
"","null","html-keyboard-response","289","366281","0.0-13.0-0.26","ggJTmBvICF","5e8537fe23609011fe987ca7","6617fad957f7c6a12ea16e26","6622cf444892fad802096e1e","fixation cross","null","","","","","","","","","","","",""
"","null","html-keyboard-response","290","367095","0.0-13.0-1.26","ggJTmBvICF","5e8537fe23609011fe987ca7","6617fad957f7c6a12ea16e26","6622cf444892fad802096e1e","
        <div id=""grid-container"">
        <!-- Grid items will be dynamically added here -->
    </div>    ","null","","","","","","","","","","","",""
"","1408","html-keyboard-response","291","367704","0.0-13.0-2.26","ggJTmBvICF","5e8537fe23609011fe987ca7","6617fad957f7c6a12ea16e26","6622cf444892fad802096e1e","mask grid","p","","","","","Ontogenetic_Distractor_Nonthreat_target","onmask","800","p","7","Ontogenetic","true","experimental"
"","null","html-keyboard-response","292","368427","0.0-13.0-0.27","ggJTmBvICF","5e8537fe23609011fe987ca7","6617fad957f7c6a12ea16e26","6622cf444892fad802096e1e","fixation cross","null","","","","","","","","","","","",""
"","null","html-keyboard-response","293","369235","0.0-13.0-1.27","ggJTmBvICF","5e8537fe23609011fe987ca7","6617fad957f7c6a12ea16e26","6622cf444892fad802096e1e","
        <div id=""grid-container"">
        <!-- Grid items will be dynamically added here -->
    </div>    ","null","","","","","","","","","","","",""
"","1432","html-keyboard-response","294","369869","0.0-13.0-2.27","ggJTmBvICF","5e8537fe23609011fe987ca7","6617fad957f7c6a12ea16e26","6622cf444892fad802096e1e","mask grid","p","","","","","Ontogenetic_Distractor_Nonthreat_target","onmask","800","p","2","Ontogenetic","true","experimental"
"","null","html-keyboard-response","295","370587","0.0-13.0-0.28","ggJTmBvICF","5e8537fe23609011fe987ca7","6617fad957f7c6a12ea16e26","6622cf444892fad802096e1e","fixation cross","null","","","","","","","","","","","",""
"","null","html-keyboard-response","296","371393","0.0-13.0-1.28","ggJTmBvICF","5e8537fe23609011fe987ca7","6617fad957f7c6a12ea16e26","6622cf444892fad802096e1e","
        <div id=""grid-container"">
        <!-- Grid items will be dynamically added here -->
    </div>    ","null","","","","","","","","","","","",""
"","1522","html-keyboard-response","297","372115","0.0-13.0-2.28","ggJTmBvICF","5e8537fe23609011fe987ca7","6617fad957f7c6a12ea16e26","6622cf444892fad802096e1e","mask grid"," ","","","","","Ontogenetic_Distractor_notarget","onmask","800"," ","3","Ontogenetic","true","experimental"
"","null","html-keyboard-response","298","372842","0.0-13.0-0.29","ggJTmBvICF","5e8537fe23609011fe987ca7","6617fad957f7c6a12ea16e26","6622cf444892fad802096e1e","fixation cross","null","","","","","","","","","","","",""
"","null","html-keyboard-response","299","373644","0.0-13.0-1.29","ggJTmBvICF","5e8537fe23609011fe987ca7","6617fad957f7c6a12ea16e26","6622cf444892fad802096e1e","
        <div id=""grid-container"">
        <!-- Grid items will be dynamically added here -->
    </div>    ","null","","","","","","","","","","","",""
"","1289","html-keyboard-response","300","374134","0.0-13.0-2.29","ggJTmBvICF","5e8537fe23609011fe987ca7","6617fad957f7c6a12ea16e26","6622cf444892fad802096e1e","mask grid","p","","","","","Ontogenetic_Distractor_Nonthreat_target","onmask","800","p","4","Ontogenetic","true","experimental"
"","null","html-keyboard-response","301","374849","0.0-13.0-0.30","ggJTmBvICF","5e8537fe23609011fe987ca7","6617fad957f7c6a12ea16e26","6622cf444892fad802096e1e","fixation cross","null","","","","","","","","","","","",""
"","null","html-keyboard-response","302","375660","0.0-13.0-1.30","ggJTmBvICF","5e8537fe23609011fe987ca7","6617fad957f7c6a12ea16e26","6622cf444892fad802096e1e","
        <div id=""grid-container"">
        <!-- Grid items will be dynamically added here -->
    </div>    ","null","","","","","","","","","","","",""
"","1355","html-keyboard-response","303","376216","0.0-13.0-2.30","ggJTmBvICF","5e8537fe23609011fe987ca7","6617fad957f7c6a12ea16e26","6622cf444892fad802096e1e","mask grid","p","","","","","Ontogenetic_Distractor_Nonthreat_target","onmask","800","p","6","Ontogenetic","true","experimental"
"","null","html-keyboard-response","304","376942","0.0-13.0-0.31","ggJTmBvICF","5e8537fe23609011fe987ca7","6617fad957f7c6a12ea16e26","6622cf444892fad802096e1e","fixation cross","null","","","","","","","","","","","",""
"","null","html-keyboard-response","305","377746","0.0-13.0-1.31","ggJTmBvICF","5e8537fe23609011fe987ca7","6617fad957f7c6a12ea16e26","6622cf444892fad802096e1e","
        <div id=""grid-container"">
        <!-- Grid items will be dynamically added here -->
    </div>    ","null","","","","","","","","","","","",""
"","1269","html-keyboard-response","306","378217","0.0-13.0-2.31","ggJTmBvICF","5e8537fe23609011fe987ca7","6617fad957f7c6a12ea16e26","6622cf444892fad802096e1e","mask grid","q","","","","","Ontogenetic_Distractor_Threat_target","onmask","800","q","2","Ontogenetic","true","experimental"
"","null","html-keyboard-response","307","378932","0.0-13.0-0.32","ggJTmBvICF","5e8537fe23609011fe987ca7","6617fad957f7c6a12ea16e26","6622cf444892fad802096e1e","fixation cross","null","","","","","","","","","","","",""
"","null","html-keyboard-response","308","379733","0.0-13.0-1.32","ggJTmBvICF","5e8537fe23609011fe987ca7","6617fad957f7c6a12ea16e26","6622cf444892fad802096e1e","
        <div id=""grid-container"">
        <!-- Grid items will be dynamically added here -->
    </div>    ","null","","","","","","","","","","","",""
"","1650","html-keyboard-response","309","380584","0.0-13.0-2.32","ggJTmBvICF","5e8537fe23609011fe987ca7","6617fad957f7c6a12ea16e26","6622cf444892fad802096e1e","mask grid","q","","","","","Ontogenetic_Distractor_Threat_target","onmask","800","q","8","Ontogenetic","true","experimental"
"","null","html-keyboard-response","310","381319","0.0-13.0-0.33","ggJTmBvICF","5e8537fe23609011fe987ca7","6617fad957f7c6a12ea16e26","6622cf444892fad802096e1e","fixation cross","null","","","","","","","","","","","",""
"","null","html-keyboard-response","311","382130","0.0-13.0-1.33","ggJTmBvICF","5e8537fe23609011fe987ca7","6617fad957f7c6a12ea16e26","6622cf444892fad802096e1e","
        <div id=""grid-container"">
        <!-- Grid items will be dynamically added here -->
    </div>    ","null","","","","","","","","","","","",""
"","1344","html-keyboard-response","312","382676","0.0-13.0-2.33","ggJTmBvICF","5e8537fe23609011fe987ca7","6617fad957f7c6a12ea16e26","6622cf444892fad802096e1e","mask grid","q","","","","","Ontogenetic_Distractor_Threat_target","onmask","800","q","2","Ontogenetic","true","experimental"
"","null","html-keyboard-response","313","383382","0.0-13.0-0.34","ggJTmBvICF","5e8537fe23609011fe987ca7","6617fad957f7c6a12ea16e26","6622cf444892fad802096e1e","fixation cross","null","","","","","","","","","","","",""
"","null","html-keyboard-response","314","384187","0.0-13.0-1.34","ggJTmBvICF","5e8537fe23609011fe987ca7","6617fad957f7c6a12ea16e26","6622cf444892fad802096e1e","
        <div id=""grid-container"">
        <!-- Grid items will be dynamically added here -->
    </div>    ","null","","","","","","","","","","","",""
"","1452","html-keyboard-response","315","384840","0.0-13.0-2.34","ggJTmBvICF","5e8537fe23609011fe987ca7","6617fad957f7c6a12ea16e26","6622cf444892fad802096e1e","mask grid","q","","","","","Ontogenetic_Distractor_Threat_target","onmask","800","q","8","Ontogenetic","true","experimental"
"","null","html-keyboard-response","316","385549","0.0-13.0-0.35","ggJTmBvICF","5e8537fe23609011fe987ca7","6617fad957f7c6a12ea16e26","6622cf444892fad802096e1e","fixation cross","null","","","","","","","","","","","",""
"","null","html-keyboard-response","317","386371","0.0-13.0-1.35","ggJTmBvICF","5e8537fe23609011fe987ca7","6617fad957f7c6a12ea16e26","6622cf444892fad802096e1e","
        <div id=""grid-container"">
        <!-- Grid items will be dynamically added here -->
    </div>    ","null","","","","","","","","","","","",""
"","1480","html-keyboard-response","318","387052","0.0-13.0-2.35","ggJTmBvICF","5e8537fe23609011fe987ca7","6617fad957f7c6a12ea16e26","6622cf444892fad802096e1e","mask grid","p","","","","","Ontogenetic_Distractor_Nonthreat_target","onmask","800","p","6","Ontogenetic","true","experimental"
"","null","html-keyboard-response","319","387782","0.0-13.0-0.36","ggJTmBvICF","5e8537fe23609011fe987ca7","6617fad957f7c6a12ea16e26","6622cf444892fad802096e1e","fixation cross","null","","","","","","","","","","","",""
"","null","html-keyboard-response","320","388596","0.0-13.0-1.36","ggJTmBvICF","5e8537fe23609011fe987ca7","6617fad957f7c6a12ea16e26","6622cf444892fad802096e1e","
        <div id=""grid-container"">
        <!-- Grid items will be dynamically added here -->
    </div>    ","null","","","","","","","","","","","",""
"","1793","html-keyboard-response","321","389592","0.0-13.0-2.36","ggJTmBvICF","5e8537fe23609011fe987ca7","6617fad957f7c6a12ea16e26","6622cf444892fad802096e1e","mask grid","p","","","","","Ontogenetic_Distractor_Nonthreat_target","onmask","800","p","9","Ontogenetic","true","experimental"
"","null","html-keyboard-response","322","390320","0.0-13.0-0.37","ggJTmBvICF","5e8537fe23609011fe987ca7","6617fad957f7c6a12ea16e26","6622cf444892fad802096e1e","fixation cross","null","","","","","","","","","","","",""
"","null","html-keyboard-response","323","391134","0.0-13.0-1.37","ggJTmBvICF","5e8537fe23609011fe987ca7","6617fad957f7c6a12ea16e26","6622cf444892fad802096e1e","
        <div id=""grid-container"">
        <!-- Grid items will be dynamically added here -->
    </div>    ","null","","","","","","","","","","","",""
"","1517","html-keyboard-response","324","391851","0.0-13.0-2.37","ggJTmBvICF","5e8537fe23609011fe987ca7","6617fad957f7c6a12ea16e26","6622cf444892fad802096e1e","mask grid","p","","","","","Ontogenetic_Distractor_Nonthreat_target","onmask","800","p","7","Ontogenetic","true","experimental"
"","null","html-keyboard-response","325","392580","0.0-13.0-0.38","ggJTmBvICF","5e8537fe23609011fe987ca7","6617fad957f7c6a12ea16e26","6622cf444892fad802096e1e","fixation cross","null","","","","","","","","","","","",""
"","null","html-keyboard-response","326","393385","0.0-13.0-1.38","ggJTmBvICF","5e8537fe23609011fe987ca7","6617fad957f7c6a12ea16e26","6622cf444892fad802096e1e","
        <div id=""grid-container"">
        <!-- Grid items will be dynamically added here -->
    </div>    ","null","","","","","","","","","","","",""
"","1461","html-keyboard-response","327","394048","0.0-13.0-2.38","ggJTmBvICF","5e8537fe23609011fe987ca7","6617fad957f7c6a12ea16e26","6622cf444892fad802096e1e","mask grid","p","","","","","Ontogenetic_Distractor_Nonthreat_target","onmask","800","p","8","Ontogenetic","true","experimental"
"","null","html-keyboard-response","328","394785","0.0-13.0-0.39","ggJTmBvICF","5e8537fe23609011fe987ca7","6617fad957f7c6a12ea16e26","6622cf444892fad802096e1e","fixation cross","null","","","","","","","","","","","",""
"","null","html-keyboard-response","329","395590","0.0-13.0-1.39","ggJTmBvICF","5e8537fe23609011fe987ca7","6617fad957f7c6a12ea16e26","6622cf444892fad802096e1e","
        <div id=""grid-container"">
        <!-- Grid items will be dynamically added here -->
    </div>    ","null","","","","","","","","","","","",""
"","1500","html-keyboard-response","330","396290","0.0-13.0-2.39","ggJTmBvICF","5e8537fe23609011fe987ca7","6617fad957f7c6a12ea16e26","6622cf444892fad802096e1e","mask grid","p","","","","","Ontogenetic_Distractor_Nonthreat_target","onmask","800","p","6","Ontogenetic","true","experimental"
"","24146","html-keyboard-response","331","420650","0.0-14.0","ggJTmBvICF","5e8537fe23609011fe987ca7","6617fad957f7c6a12ea16e26","6622cf444892fad802096e1e","break screen"," ","","","","","","","","","","","",""
"","null","html-keyboard-response","332","423179","0.0-15.0-0.0","ggJTmBvICF","5e8537fe23609011fe987ca7","6617fad957f7c6a12ea16e26","6622cf444892fad802096e1e","fixation cross","null","","","","","","","","","","","",""
"","2314","html-keyboard-response","333","425494","0.0-15.0-1.0","ggJTmBvICF","5e8537fe23609011fe987ca7","6617fad957f7c6a12ea16e26","6622cf444892fad802096e1e","image grid","q","","","","","Phylogenetic_Distractor_Threat_target","ongrid","2500","q","6","Phylogenetic","true","experimental"
"","null","html-keyboard-response","334","425657","0.0-15.0-2.0","ggJTmBvICF","5e8537fe23609011fe987ca7","6617fad957f7c6a12ea16e26","6622cf444892fad802096e1e","
    <div id=""grid-container"">
        <!-- Grid items will be dynamically added here -->
    </div>    ","null","","","","","","","","","","","",""
"","null","html-keyboard-response","335","426386","0.0-15.0-0.1","ggJTmBvICF","5e8537fe23609011fe987ca7","6617fad957f7c6a12ea16e26","6622cf444892fad802096e1e","fixation cross","null","","","","","","","","","","","",""
"","1027","html-keyboard-response","336","427414","0.0-15.0-1.1","ggJTmBvICF","5e8537fe23609011fe987ca7","6617fad957f7c6a12ea16e26","6622cf444892fad802096e1e","image grid","q","","","","","Phylogenetic_Distractor_Threat_target","ongrid","2500","q","7","Phylogenetic","true","experimental"
"","null","html-keyboard-response","337","427573","0.0-15.0-2.1","ggJTmBvICF","5e8537fe23609011fe987ca7","6617fad957f7c6a12ea16e26","6622cf444892fad802096e1e","
    <div id=""grid-container"">
        <!-- Grid items will be dynamically added here -->
    </div>    ","null","","","","","","","","","","","",""
"","null","html-keyboard-response","338","428296","0.0-15.0-0.2","ggJTmBvICF","5e8537fe23609011fe987ca7","6617fad957f7c6a12ea16e26","6622cf444892fad802096e1e","fixation cross","null","","","","","","","","","","","",""
"","1483","html-keyboard-response","339","429780","0.0-15.0-1.2","ggJTmBvICF","5e8537fe23609011fe987ca7","6617fad957f7c6a12ea16e26","6622cf444892fad802096e1e","image grid","q","","","","","Phylogenetic_Distractor_Threat_target","ongrid","2500","q","3","Phylogenetic","true","experimental"
"","null","html-keyboard-response","340","429941","0.0-15.0-2.2","ggJTmBvICF","5e8537fe23609011fe987ca7","6617fad957f7c6a12ea16e26","6622cf444892fad802096e1e","
    <div id=""grid-container"">
        <!-- Grid items will be dynamically added here -->
    </div>    ","null","","","","","","","","","","","",""
"","null","html-keyboard-response","341","430663","0.0-15.0-0.3","ggJTmBvICF","5e8537fe23609011fe987ca7","6617fad957f7c6a12ea16e26","6622cf444892fad802096e1e","fixation cross","null","","","","","","","","","","","",""
"","1253","html-keyboard-response","342","431916","0.0-15.0-1.3","ggJTmBvICF","5e8537fe23609011fe987ca7","6617fad957f7c6a12ea16e26","6622cf444892fad802096e1e","image grid","p","","","","","Phylogenetic_Distractor_Nonthreat_target","ongrid","2500","p","4","Phylogenetic","true","experimental"
"","null","html-keyboard-response","343","432075","0.0-15.0-2.3","ggJTmBvICF","5e8537fe23609011fe987ca7","6617fad957f7c6a12ea16e26","6622cf444892fad802096e1e","
    <div id=""grid-container"">
        <!-- Grid items will be dynamically added here -->
    </div>    ","null","","","","","","","","","","","",""
"","null","html-keyboard-response","344","432809","0.0-15.0-0.4","ggJTmBvICF","5e8537fe23609011fe987ca7","6617fad957f7c6a12ea16e26","6622cf444892fad802096e1e","fixation cross","null","","","","","","","","","","","",""
"","809","html-keyboard-response","345","433618","0.0-15.0-1.4","ggJTmBvICF","5e8537fe23609011fe987ca7","6617fad957f7c6a12ea16e26","6622cf444892fad802096e1e","image grid","q","","","","","Phylogenetic_Distractor_Threat_target","ongrid","2500","q","4","Phylogenetic","true","experimental"
"","null","html-keyboard-response","346","433792","0.0-15.0-2.4","ggJTmBvICF","5e8537fe23609011fe987ca7","6617fad957f7c6a12ea16e26","6622cf444892fad802096e1e","
    <div id=""grid-container"">
        <!-- Grid items will be dynamically added here -->
    </div>    ","null","","","","","","","","","","","",""
"","null","html-keyboard-response","347","434509","0.0-15.0-0.5","ggJTmBvICF","5e8537fe23609011fe987ca7","6617fad957f7c6a12ea16e26","6622cf444892fad802096e1e","fixation cross","null","","","","","","","","","","","",""
"","939","html-keyboard-response","348","435449","0.0-15.0-1.5","ggJTmBvICF","5e8537fe23609011fe987ca7","6617fad957f7c6a12ea16e26","6622cf444892fad802096e1e","image grid","q","","","","","Phylogenetic_Distractor_Threat_target","ongrid","2500","q","8","Phylogenetic","true","experimental"
"","null","html-keyboard-response","349","435625","0.0-15.0-2.5","ggJTmBvICF","5e8537fe23609011fe987ca7","6617fad957f7c6a12ea16e26","6622cf444892fad802096e1e","
    <div id=""grid-container"">
        <!-- Grid items will be dynamically added here -->
    </div>    ","null","","","","","","","","","","","",""
"","null","html-keyboard-response","350","436347","0.0-15.0-0.6","ggJTmBvICF","5e8537fe23609011fe987ca7","6617fad957f7c6a12ea16e26","6622cf444892fad802096e1e","fixation cross","null","","","","","","","","","","","",""
"","960","html-keyboard-response","351","437308","0.0-15.0-1.6","ggJTmBvICF","5e8537fe23609011fe987ca7","6617fad957f7c6a12ea16e26","6622cf444892fad802096e1e","image grid","p","","","","","Phylogenetic_Distractor_Nonthreat_target","ongrid","2500","p","5","Phylogenetic","true","experimental"
"","null","html-keyboard-response","352","437475","0.0-15.0-2.6","ggJTmBvICF","5e8537fe23609011fe987ca7","6617fad957f7c6a12ea16e26","6622cf444892fad802096e1e","
    <div id=""grid-container"">
        <!-- Grid items will be dynamically added here -->
    </div>    ","null","","","","","","","","","","","",""
"","null","html-keyboard-response","353","438195","0.0-15.0-0.7","ggJTmBvICF","5e8537fe23609011fe987ca7","6617fad957f7c6a12ea16e26","6622cf444892fad802096e1e","fixation cross","null","","","","","","","","","","","",""
"","1802","html-keyboard-response","354","439999","0.0-15.0-1.7","ggJTmBvICF","5e8537fe23609011fe987ca7","6617fad957f7c6a12ea16e26","6622cf444892fad802096e1e","image grid","q","","","","","Phylogenetic_Distractor_Threat_target","ongrid","2500","q","7","Phylogenetic","true","experimental"
"","null","html-keyboard-response","355","440160","0.0-15.0-2.7","ggJTmBvICF","5e8537fe23609011fe987ca7","6617fad957f7c6a12ea16e26","6622cf444892fad802096e1e","
    <div id=""grid-container"">
        <!-- Grid items will be dynamically added here -->
    </div>    ","null","","","","","","","","","","","",""
"","null","html-keyboard-response","356","440896","0.0-15.0-0.8","ggJTmBvICF","5e8537fe23609011fe987ca7","6617fad957f7c6a12ea16e26","6622cf444892fad802096e1e","fixation cross","null","","","","","","","","","","","",""
"","1619","html-keyboard-response","357","442517","0.0-15.0-1.8","ggJTmBvICF","5e8537fe23609011fe987ca7","6617fad957f7c6a12ea16e26","6622cf444892fad802096e1e","image grid","p","","","","","Phylogenetic_Distractor_Nonthreat_target","ongrid","2500","p","1","Phylogenetic","true","experimental"
"","null","html-keyboard-response","358","442678","0.0-15.0-2.8","ggJTmBvICF","5e8537fe23609011fe987ca7","6617fad957f7c6a12ea16e26","6622cf444892fad802096e1e","
    <div id=""grid-container"">
        <!-- Grid items will be dynamically added here -->
    </div>    ","null","","","","","","","","","","","",""
"","null","html-keyboard-response","359","443402","0.0-15.0-0.9","ggJTmBvICF","5e8537fe23609011fe987ca7","6617fad957f7c6a12ea16e26","6622cf444892fad802096e1e","fixation cross","null","","","","","","","","","","","",""
"","963","html-keyboard-response","360","444365","0.0-15.0-1.9","ggJTmBvICF","5e8537fe23609011fe987ca7","6617fad957f7c6a12ea16e26","6622cf444892fad802096e1e","image grid","q","","","","","Phylogenetic_Distractor_Threat_target","ongrid","2500","q","2","Phylogenetic","true","experimental"
"","null","html-keyboard-response","361","444528","0.0-15.0-2.9","ggJTmBvICF","5e8537fe23609011fe987ca7","6617fad957f7c6a12ea16e26","6622cf444892fad802096e1e","
    <div id=""grid-container"">
        <!-- Grid items will be dynamically added here -->
    </div>    ","null","","","","","","","","","","","",""
"","null","html-keyboard-response","362","445263","0.0-15.0-0.10","ggJTmBvICF","5e8537fe23609011fe987ca7","6617fad957f7c6a12ea16e26","6622cf444892fad802096e1e","fixation cross","null","","","","","","","","","","","",""
"","1672","html-keyboard-response","363","446937","0.0-15.0-1.10","ggJTmBvICF","5e8537fe23609011fe987ca7","6617fad957f7c6a12ea16e26","6622cf444892fad802096e1e","image grid","p","","","","","Phylogenetic_Distractor_Nonthreat_target","ongrid","2500","p","7","Phylogenetic","true","experimental"
"","null","html-keyboard-response","364","447095","0.0-15.0-2.10","ggJTmBvICF","5e8537fe23609011fe987ca7","6617fad957f7c6a12ea16e26","6622cf444892fad802096e1e","
    <div id=""grid-container"">
        <!-- Grid items will be dynamically added here -->
    </div>    ","null","","","","","","","","","","","",""
"","null","html-keyboard-response","365","447822","0.0-15.0-0.11","ggJTmBvICF","5e8537fe23609011fe987ca7","6617fad957f7c6a12ea16e26","6622cf444892fad802096e1e","fixation cross","null","","","","","","","","","","","",""
"","1366","html-keyboard-response","366","449189","0.0-15.0-1.11","ggJTmBvICF","5e8537fe23609011fe987ca7","6617fad957f7c6a12ea16e26","6622cf444892fad802096e1e","image grid","p","","","","","Phylogenetic_Distractor_Nonthreat_target","ongrid","2500","p","6","Phylogenetic","true","experimental"
"","null","html-keyboard-response","367","449363","0.0-15.0-2.11","ggJTmBvICF","5e8537fe23609011fe987ca7","6617fad957f7c6a12ea16e26","6622cf444892fad802096e1e","
    <div id=""grid-container"">
        <!-- Grid items will be dynamically added here -->
    </div>    ","null","","","","","","","","","","","",""
"","null","html-keyboard-response","368","450112","0.0-15.0-0.12","ggJTmBvICF","5e8537fe23609011fe987ca7","6617fad957f7c6a12ea16e26","6622cf444892fad802096e1e","fixation cross","null","","","","","","","","","","","",""
"","1027","html-keyboard-response","369","451140","0.0-15.0-1.12","ggJTmBvICF","5e8537fe23609011fe987ca7","6617fad957f7c6a12ea16e26","6622cf444892fad802096e1e","image grid","p","","","","","Phylogenetic_Distractor_Nonthreat_target","ongrid","2500","p","9","Phylogenetic","true","experimental"
