"success","rt","trial_type","trial_index","time_elapsed","internal_node_id","unique_identifier","subject_id","study_id","session_id","stimulus","response","timeout","failed_images","failed_audio","failed_video","task","time_manipulation","respondedwhen","correctresponse","targetimagelocation","blocktype","correct","roundtype"
"true","1977","fullscreen","0","2984","0.0-0.0","8kYGdQMenz","5adfcb03f6b58c0001fa9083","6617fad957f7c6a12ea16e26","6622cccc292d6e4f66108883","","","","","","","","","","","","","",""
"","9983","html-keyboard-response","1","12969","0.0-1.0","8kYGdQMenz","5adfcb03f6b58c0001fa9083","6617fad957f7c6a12ea16e26","6622cccc292d6e4f66108883","instruction screen 0"," ","","","","","","","","","","","",""
"true","","preload","2","15157","0.0-2.0","8kYGdQMenz","5adfcb03f6b58c0001fa9083","6617fad957f7c6a12ea16e26","6622cccc292d6e4f66108883","","","false","[]","[]","[]","","","","","","","",""
"","14059","html-keyboard-response","3","29217","0.0-3.0","8kYGdQMenz","5adfcb03f6b58c0001fa9083","6617fad957f7c6a12ea16e26","6622cccc292d6e4f66108883","instruction screen 1"," ","","","","","","","","","","","",""
"","10042","html-keyboard-response","4","39265","0.0-4.0","8kYGdQMenz","5adfcb03f6b58c0001fa9083","6617fad957f7c6a12ea16e26","6622cccc292d6e4f66108883","instruction screen 2","q","","","","","","","","","","","",""
"","6564","html-keyboard-response","5","45834","0.0-5.0","8kYGdQMenz","5adfcb03f6b58c0001fa9083","6617fad957f7c6a12ea16e26","6622cccc292d6e4f66108883","instruction screen 3","p","","","","","","","","","","","",""
"","4929","html-keyboard-response","6","50767","0.0-6.0","8kYGdQMenz","5adfcb03f6b58c0001fa9083","6617fad957f7c6a12ea16e26","6622cccc292d6e4f66108883","instruction screen 4"," ","","","","","","","","","","","",""
"","9570","html-keyboard-response","7","60342","0.0-7.0","8kYGdQMenz","5adfcb03f6b58c0001fa9083","6617fad957f7c6a12ea16e26","6622cccc292d6e4f66108883","instruction screen 5"," ","","","","","","","","","","","",""
"","null","html-keyboard-response","8","60848","0.0-8.0","8kYGdQMenz","5adfcb03f6b58c0001fa9083","6617fad957f7c6a12ea16e26","6622cccc292d6e4f66108883","fixation cross","null","","","","","","","","","","","",""
"","null","html-keyboard-response","9","61363","0.0-9.0-0.0","8kYGdQMenz","5adfcb03f6b58c0001fa9083","6617fad957f7c6a12ea16e26","6622cccc292d6e4f66108883","fixation cross","null","","","","","","","","","","","",""
"","1779","html-keyboard-response","10","63143","0.0-9.0-1.0","8kYGdQMenz","5adfcb03f6b58c0001fa9083","6617fad957f7c6a12ea16e26","6622cccc292d6e4f66108883","image grid","q","","","","","Ontogenetic_Distractor_Threat_target","3000","ongrid","q","4","Phylogenetic","true","practice"
"","null","html-keyboard-response","11","63303","0.0-9.0-2.0","8kYGdQMenz","5adfcb03f6b58c0001fa9083","6617fad957f7c6a12ea16e26","6622cccc292d6e4f66108883","
    <div id=""grid-container"">
        <!-- Grid items will be dynamically added here -->
    </div>    ","null","","","","","","","","","","","",""
"","null","html-keyboard-response","12","64515","0.0-9.0-3.0","8kYGdQMenz","5adfcb03f6b58c0001fa9083","6617fad957f7c6a12ea16e26","6622cccc292d6e4f66108883","feedback screen","null","","","","","","","","","","","",""
"","null","html-keyboard-response","13","65029","0.0-9.0-0.1","8kYGdQMenz","5adfcb03f6b58c0001fa9083","6617fad957f7c6a12ea16e26","6622cccc292d6e4f66108883","fixation cross","null","","","","","","","","","","","",""
"","null","html-keyboard-response","14","67942","0.0-9.0-1.1","8kYGdQMenz","5adfcb03f6b58c0001fa9083","6617fad957f7c6a12ea16e26","6622cccc292d6e4f66108883","
        <div id=""grid-container"">
        <!-- Grid items will be dynamically added here -->
    </div>    ","null","","","","","","","","","","","",""
"","2900","html-keyboard-response","15","72954","0.0-9.0-2.1","8kYGdQMenz","5adfcb03f6b58c0001fa9083","6617fad957f7c6a12ea16e26","6622cccc292d6e4f66108883","mask grid","null","","","","","Phylogenetic_Distractor_Nonthreat_target","2900","onmask","p","1","Phylogenetic","false","practice"
"","null","html-keyboard-response","16","74169","0.0-9.0-3.1","8kYGdQMenz","5adfcb03f6b58c0001fa9083","6617fad957f7c6a12ea16e26","6622cccc292d6e4f66108883","feedback screen","null","","","","","","","","","","","",""
"","null","html-keyboard-response","17","74678","0.0-9.0-0.2","8kYGdQMenz","5adfcb03f6b58c0001fa9083","6617fad957f7c6a12ea16e26","6622cccc292d6e4f66108883","fixation cross","null","","","","","","","","","","","",""
"","1978","html-keyboard-response","18","76657","0.0-9.0-1.2","8kYGdQMenz","5adfcb03f6b58c0001fa9083","6617fad957f7c6a12ea16e26","6622cccc292d6e4f66108883","image grid","p","","","","","Ontogenetic_Distractor_Nonthreat_target","2800","ongrid","p","8","Phylogenetic","true","practice"
"","null","html-keyboard-response","19","76814","0.0-9.0-2.2","8kYGdQMenz","5adfcb03f6b58c0001fa9083","6617fad957f7c6a12ea16e26","6622cccc292d6e4f66108883","
    <div id=""grid-container"">
        <!-- Grid items will be dynamically added here -->
    </div>    ","null","","","","","","","","","","","",""
"","null","html-keyboard-response","20","78029","0.0-9.0-3.2","8kYGdQMenz","5adfcb03f6b58c0001fa9083","6617fad957f7c6a12ea16e26","6622cccc292d6e4f66108883","feedback screen","null","","","","","","","","","","","",""
"","null","html-keyboard-response","21","78543","0.0-9.0-0.3","8kYGdQMenz","5adfcb03f6b58c0001fa9083","6617fad957f7c6a12ea16e26","6622cccc292d6e4f66108883","fixation cross","null","","","","","","","","","","","",""
"","1257","html-keyboard-response","22","79800","0.0-9.0-1.3","8kYGdQMenz","5adfcb03f6b58c0001fa9083","6617fad957f7c6a12ea16e26","6622cccc292d6e4f66108883","image grid","q","","","","","Ontogenetic_Distractor_Threat_target","2700","ongrid","q","7","Phylogenetic","true","practice"
"","null","html-keyboard-response","23","79960","0.0-9.0-2.3","8kYGdQMenz","5adfcb03f6b58c0001fa9083","6617fad957f7c6a12ea16e26","6622cccc292d6e4f66108883","
    <div id=""grid-container"">
        <!-- Grid items will be dynamically added here -->
    </div>    ","null","","","","","","","","","","","",""
"","null","html-keyboard-response","24","81172","0.0-9.0-3.3","8kYGdQMenz","5adfcb03f6b58c0001fa9083","6617fad957f7c6a12ea16e26","6622cccc292d6e4f66108883","feedback screen","null","","","","","","","","","","","",""
"","null","html-keyboard-response","25","81690","0.0-9.0-0.4","8kYGdQMenz","5adfcb03f6b58c0001fa9083","6617fad957f7c6a12ea16e26","6622cccc292d6e4f66108883","fixation cross","null","","","","","","","","","","","",""
"","1154","html-keyboard-response","26","82844","0.0-9.0-1.4","8kYGdQMenz","5adfcb03f6b58c0001fa9083","6617fad957f7c6a12ea16e26","6622cccc292d6e4f66108883","image grid","q","","","","","Ontogenetic_Distractor_Threat_target","2600","ongrid","q","7","Phylogenetic","true","practice"
"","null","html-keyboard-response","27","82999","0.0-9.0-2.4","8kYGdQMenz","5adfcb03f6b58c0001fa9083","6617fad957f7c6a12ea16e26","6622cccc292d6e4f66108883","
    <div id=""grid-container"">
        <!-- Grid items will be dynamically added here -->
    </div>    ","null","","","","","","","","","","","",""
"","null","html-keyboard-response","28","84229","0.0-9.0-3.4","8kYGdQMenz","5adfcb03f6b58c0001fa9083","6617fad957f7c6a12ea16e26","6622cccc292d6e4f66108883","feedback screen","null","","","","","","","","","","","",""
"","null","html-keyboard-response","29","84745","0.0-9.0-0.5","8kYGdQMenz","5adfcb03f6b58c0001fa9083","6617fad957f7c6a12ea16e26","6622cccc292d6e4f66108883","fixation cross","null","","","","","","","","","","","",""
"","2197","html-keyboard-response","30","86943","0.0-9.0-1.5","8kYGdQMenz","5adfcb03f6b58c0001fa9083","6617fad957f7c6a12ea16e26","6622cccc292d6e4f66108883","image grid"," ","","","","","Phylogenetic_Distractor_Threat_target","2500","ongrid","q","1","Phylogenetic","false","practice"
"","null","html-keyboard-response","31","87098","0.0-9.0-2.5","8kYGdQMenz","5adfcb03f6b58c0001fa9083","6617fad957f7c6a12ea16e26","6622cccc292d6e4f66108883","
    <div id=""grid-container"">
        <!-- Grid items will be dynamically added here -->
    </div>    ","null","","","","","","","","","","","",""
"","null","html-keyboard-response","32","88318","0.0-9.0-3.5","8kYGdQMenz","5adfcb03f6b58c0001fa9083","6617fad957f7c6a12ea16e26","6622cccc292d6e4f66108883","feedback screen","null","","","","","","","","","","","",""
"","null","html-keyboard-response","33","88830","0.0-9.0-0.6","8kYGdQMenz","5adfcb03f6b58c0001fa9083","6617fad957f7c6a12ea16e26","6622cccc292d6e4f66108883","fixation cross","null","","","","","","","","","","","",""
"","1518","html-keyboard-response","34","90348","0.0-9.0-1.6","8kYGdQMenz","5adfcb03f6b58c0001fa9083","6617fad957f7c6a12ea16e26","6622cccc292d6e4f66108883","image grid","q","","","","","Phylogenetic_Distractor_Threat_target","2400","ongrid","q","4","Phylogenetic","true","practice"
"","null","html-keyboard-response","35","90510","0.0-9.0-2.6","8kYGdQMenz","5adfcb03f6b58c0001fa9083","6617fad957f7c6a12ea16e26","6622cccc292d6e4f66108883","
    <div id=""grid-container"">
        <!-- Grid items will be dynamically added here -->
    </div>    ","null","","","","","","","","","","","",""
"","null","html-keyboard-response","36","91721","0.0-9.0-3.6","8kYGdQMenz","5adfcb03f6b58c0001fa9083","6617fad957f7c6a12ea16e26","6622cccc292d6e4f66108883","feedback screen","null","","","","","","","","","","","",""
"","null","html-keyboard-response","37","92231","0.0-9.0-0.7","8kYGdQMenz","5adfcb03f6b58c0001fa9083","6617fad957f7c6a12ea16e26","6622cccc292d6e4f66108883","fixation cross","null","","","","","","","","","","","",""
"","2067","html-keyboard-response","38","94298","0.0-9.0-1.7","8kYGdQMenz","5adfcb03f6b58c0001fa9083","6617fad957f7c6a12ea16e26","6622cccc292d6e4f66108883","image grid","p","","","","","Phylogenetic_Distractor_Nonthreat_target","2300","ongrid","p","9","Phylogenetic","true","practice"
"","null","html-keyboard-response","39","94461","0.0-9.0-2.7","8kYGdQMenz","5adfcb03f6b58c0001fa9083","6617fad957f7c6a12ea16e26","6622cccc292d6e4f66108883","
    <div id=""grid-container"">
        <!-- Grid items will be dynamically added here -->
    </div>    ","null","","","","","","","","","","","",""
"","null","html-keyboard-response","40","95669","0.0-9.0-3.7","8kYGdQMenz","5adfcb03f6b58c0001fa9083","6617fad957f7c6a12ea16e26","6622cccc292d6e4f66108883","feedback screen","null","","","","","","","","","","","",""
"","null","html-keyboard-response","41","96183","0.0-9.0-0.8","8kYGdQMenz","5adfcb03f6b58c0001fa9083","6617fad957f7c6a12ea16e26","6622cccc292d6e4f66108883","fixation cross","null","","","","","","","","","","","",""
"","1141","html-keyboard-response","42","97325","0.0-9.0-1.8","8kYGdQMenz","5adfcb03f6b58c0001fa9083","6617fad957f7c6a12ea16e26","6622cccc292d6e4f66108883","image grid","q","","","","","Ontogenetic_Distractor_Threat_target","2200","ongrid","q","1","Phylogenetic","true","practice"
"","null","html-keyboard-response","43","97479","0.0-9.0-2.8","8kYGdQMenz","5adfcb03f6b58c0001fa9083","6617fad957f7c6a12ea16e26","6622cccc292d6e4f66108883","
    <div id=""grid-container"">
        <!-- Grid items will be dynamically added here -->
    </div>    ","null","","","","","","","","","","","",""
"","null","html-keyboard-response","44","98689","0.0-9.0-3.8","8kYGdQMenz","5adfcb03f6b58c0001fa9083","6617fad957f7c6a12ea16e26","6622cccc292d6e4f66108883","feedback screen","null","","","","","","","","","","","",""
"","null","html-keyboard-response","45","99199","0.0-9.0-0.9","8kYGdQMenz","5adfcb03f6b58c0001fa9083","6617fad957f7c6a12ea16e26","6622cccc292d6e4f66108883","fixation cross","null","","","","","","","","","","","",""
"","1922","html-keyboard-response","46","101122","0.0-9.0-1.9","8kYGdQMenz","5adfcb03f6b58c0001fa9083","6617fad957f7c6a12ea16e26","6622cccc292d6e4f66108883","image grid"," ","","","","","Phylogenetic_Distractor_Nonthreat_target","2100","ongrid","p","5","Phylogenetic","false","practice"
"","null","html-keyboard-response","47","101288","0.0-9.0-2.9","8kYGdQMenz","5adfcb03f6b58c0001fa9083","6617fad957f7c6a12ea16e26","6622cccc292d6e4f66108883","
    <div id=""grid-container"">
        <!-- Grid items will be dynamically added here -->
    </div>    ","null","","","","","","","","","","","",""
"","null","html-keyboard-response","48","102505","0.0-9.0-3.9","8kYGdQMenz","5adfcb03f6b58c0001fa9083","6617fad957f7c6a12ea16e26","6622cccc292d6e4f66108883","feedback screen","null","","","","","","","","","","","",""
"","null","html-keyboard-response","49","103019","0.0-9.0-0.10","8kYGdQMenz","5adfcb03f6b58c0001fa9083","6617fad957f7c6a12ea16e26","6622cccc292d6e4f66108883","fixation cross","null","","","","","","","","","","","",""
"","1670","html-keyboard-response","50","104690","0.0-9.0-1.10","8kYGdQMenz","5adfcb03f6b58c0001fa9083","6617fad957f7c6a12ea16e26","6622cccc292d6e4f66108883","image grid","p","","","","","Ontogenetic_Distractor_Nonthreat_target","2000","ongrid","p","4","Phylogenetic","true","practice"
"","null","html-keyboard-response","51","104855","0.0-9.0-2.10","8kYGdQMenz","5adfcb03f6b58c0001fa9083","6617fad957f7c6a12ea16e26","6622cccc292d6e4f66108883","
    <div id=""grid-container"">
        <!-- Grid items will be dynamically added here -->
    </div>    ","null","","","","","","","","","","","",""
"","null","html-keyboard-response","52","106069","0.0-9.0-3.10","8kYGdQMenz","5adfcb03f6b58c0001fa9083","6617fad957f7c6a12ea16e26","6622cccc292d6e4f66108883","feedback screen","null","","","","","","","","","","","",""
"","null","html-keyboard-response","53","106583","0.0-9.0-0.11","8kYGdQMenz","5adfcb03f6b58c0001fa9083","6617fad957f7c6a12ea16e26","6622cccc292d6e4f66108883","fixation cross","null","","","","","","","","","","","",""
"","null","html-keyboard-response","54","108484","0.0-9.0-1.11","8kYGdQMenz","5adfcb03f6b58c0001fa9083","6617fad957f7c6a12ea16e26","6622cccc292d6e4f66108883","
        <div id=""grid-container"">
        <!-- Grid items will be dynamically added here -->
    </div>    ","null","","","","","","","","","","","",""
"","2306","html-keyboard-response","55","108891","0.0-9.0-2.11","8kYGdQMenz","5adfcb03f6b58c0001fa9083","6617fad957f7c6a12ea16e26","6622cccc292d6e4f66108883","mask grid","p","","","","","Phylogenetic_Distractor_Nonthreat_target","1900","onmask","p","3","Phylogenetic","true","practice"
"","null","html-keyboard-response","56","110099","0.0-9.0-3.11","8kYGdQMenz","5adfcb03f6b58c0001fa9083","6617fad957f7c6a12ea16e26","6622cccc292d6e4f66108883","feedback screen","null","","","","","","","","","","","",""
"","null","html-keyboard-response","57","110613","0.0-9.0-0.12","8kYGdQMenz","5adfcb03f6b58c0001fa9083","6617fad957f7c6a12ea16e26","6622cccc292d6e4f66108883","fixation cross","null","","","","","","","","","","","",""
"","1270","html-keyboard-response","58","111884","0.0-9.0-1.12","8kYGdQMenz","5adfcb03f6b58c0001fa9083","6617fad957f7c6a12ea16e26","6622cccc292d6e4f66108883","image grid","q","","","","","Phylogenetic_Distractor_Threat_target","1800","ongrid","q","2","Phylogenetic","true","practice"
"","null","html-keyboard-response","59","112049","0.0-9.0-2.12","8kYGdQMenz","5adfcb03f6b58c0001fa9083","6617fad957f7c6a12ea16e26","6622cccc292d6e4f66108883","
    <div id=""grid-container"">
        <!-- Grid items will be dynamically added here -->
    </div>    ","null","","","","","","","","","","","",""
"","null","html-keyboard-response","60","113281","0.0-9.0-3.12","8kYGdQMenz","5adfcb03f6b58c0001fa9083","6617fad957f7c6a12ea16e26","6622cccc292d6e4f66108883","feedback screen","null","","","","","","","","","","","",""
"","null","html-keyboard-response","61","113796","0.0-9.0-0.13","8kYGdQMenz","5adfcb03f6b58c0001fa9083","6617fad957f7c6a12ea16e26","6622cccc292d6e4f66108883","fixation cross","null","","","","","","","","","","","",""
"","null","html-keyboard-response","62","115506","0.0-9.0-1.13","8kYGdQMenz","5adfcb03f6b58c0001fa9083","6617fad957f7c6a12ea16e26","6622cccc292d6e4f66108883","
        <div id=""grid-container"">
        <!-- Grid items will be dynamically added here -->
    </div>    ","null","","","","","","","","","","","",""
"","1986","html-keyboard-response","63","115793","0.0-9.0-2.13","8kYGdQMenz","5adfcb03f6b58c0001fa9083","6617fad957f7c6a12ea16e26","6622cccc292d6e4f66108883","mask grid","q","","","","","Phylogenetic_Distractor_Threat_target","1700","onmask","q","2","Phylogenetic","true","practice"
"","null","html-keyboard-response","64","117011","0.0-9.0-3.13","8kYGdQMenz","5adfcb03f6b58c0001fa9083","6617fad957f7c6a12ea16e26","6622cccc292d6e4f66108883","feedback screen","null","","","","","","","","","","","",""
"","null","html-keyboard-response","65","117525","0.0-9.0-0.14","8kYGdQMenz","5adfcb03f6b58c0001fa9083","6617fad957f7c6a12ea16e26","6622cccc292d6e4f66108883","fixation cross","null","","","","","","","","","","","",""
"","null","html-keyboard-response","66","119131","0.0-9.0-1.14","8kYGdQMenz","5adfcb03f6b58c0001fa9083","6617fad957f7c6a12ea16e26","6622cccc292d6e4f66108883","
        <div id=""grid-container"">
        <!-- Grid items will be dynamically added here -->
    </div>    ","null","","","","","","","","","","","",""
"","1671","html-keyboard-response","67","119203","0.0-9.0-2.14","8kYGdQMenz","5adfcb03f6b58c0001fa9083","6617fad957f7c6a12ea16e26","6622cccc292d6e4f66108883","mask grid"," ","","","","","Phylogenetic_Distractor_notarget","1600","onmask"," ","7","Phylogenetic","true","practice"
"","null","html-keyboard-response","68","120413","0.0-9.0-3.14","8kYGdQMenz","5adfcb03f6b58c0001fa9083","6617fad957f7c6a12ea16e26","6622cccc292d6e4f66108883","feedback screen","null","","","","","","","","","","","",""
"","null","html-keyboard-response","69","120930","0.0-9.0-0.15","8kYGdQMenz","5adfcb03f6b58c0001fa9083","6617fad957f7c6a12ea16e26","6622cccc292d6e4f66108883","fixation cross","null","","","","","","","","","","","",""
"","null","html-keyboard-response","70","122438","0.0-9.0-1.15","8kYGdQMenz","5adfcb03f6b58c0001fa9083","6617fad957f7c6a12ea16e26","6622cccc292d6e4f66108883","
        <div id=""grid-container"">
        <!-- Grid items will be dynamically added here -->
    </div>    ","null","","","","","","","","","","","",""
"","1758","html-keyboard-response","71","122697","0.0-9.0-2.15","8kYGdQMenz","5adfcb03f6b58c0001fa9083","6617fad957f7c6a12ea16e26","6622cccc292d6e4f66108883","mask grid"," ","","","","","Phylogenetic_Distractor_notarget","1500","onmask"," ","6","Phylogenetic","true","practice"
"","null","html-keyboard-response","72","123915","0.0-9.0-3.15","8kYGdQMenz","5adfcb03f6b58c0001fa9083","6617fad957f7c6a12ea16e26","6622cccc292d6e4f66108883","feedback screen","null","","","","","","","","","","","",""
"","null","html-keyboard-response","73","124430","0.0-9.0-0.16","8kYGdQMenz","5adfcb03f6b58c0001fa9083","6617fad957f7c6a12ea16e26","6622cccc292d6e4f66108883","fixation cross","null","","","","","","","","","","","",""
"","1265","html-keyboard-response","74","125696","0.0-9.0-1.16","8kYGdQMenz","5adfcb03f6b58c0001fa9083","6617fad957f7c6a12ea16e26","6622cccc292d6e4f66108883","image grid","p","","","","","Ontogenetic_Distractor_Nonthreat_target","1400","ongrid","p","3","Phylogenetic","true","practice"
"","null","html-keyboard-response","75","125851","0.0-9.0-2.16","8kYGdQMenz","5adfcb03f6b58c0001fa9083","6617fad957f7c6a12ea16e26","6622cccc292d6e4f66108883","
    <div id=""grid-container"">
        <!-- Grid items will be dynamically added here -->
    </div>    ","null","","","","","","","","","","","",""
"","null","html-keyboard-response","76","127064","0.0-9.0-3.16","8kYGdQMenz","5adfcb03f6b58c0001fa9083","6617fad957f7c6a12ea16e26","6622cccc292d6e4f66108883","feedback screen","null","","","","","","","","","","","",""
"","null","html-keyboard-response","77","127579","0.0-9.0-0.17","8kYGdQMenz","5adfcb03f6b58c0001fa9083","6617fad957f7c6a12ea16e26","6622cccc292d6e4f66108883","fixation cross","null","","","","","","","","","","","",""
"","null","html-keyboard-response","78","128885","0.0-9.0-1.17","8kYGdQMenz","5adfcb03f6b58c0001fa9083","6617fad957f7c6a12ea16e26","6622cccc292d6e4f66108883","
        <div id=""grid-container"">
        <!-- Grid items will be dynamically added here -->
    </div>    ","null","","","","","","","","","","","",""
"","1530","html-keyboard-response","79","129116","0.0-9.0-2.17","8kYGdQMenz","5adfcb03f6b58c0001fa9083","6617fad957f7c6a12ea16e26","6622cccc292d6e4f66108883","mask grid","p","","","","","Ontogenetic_Distractor_Nonthreat_target","1300","onmask","p","5","Phylogenetic","true","practice"
"","null","html-keyboard-response","80","130335","0.0-9.0-3.17","8kYGdQMenz","5adfcb03f6b58c0001fa9083","6617fad957f7c6a12ea16e26","6622cccc292d6e4f66108883","feedback screen","null","","","","","","","","","","","",""
"","null","html-keyboard-response","81","130849","0.0-9.0-0.18","8kYGdQMenz","5adfcb03f6b58c0001fa9083","6617fad957f7c6a12ea16e26","6622cccc292d6e4f66108883","fixation cross","null","","","","","","","","","","","",""
"","null","html-keyboard-response","82","132055","0.0-9.0-1.18","8kYGdQMenz","5adfcb03f6b58c0001fa9083","6617fad957f7c6a12ea16e26","6622cccc292d6e4f66108883","
        <div id=""grid-container"">
        <!-- Grid items will be dynamically added here -->
    </div>    ","null","","","","","","","","","","","",""
"","1740","html-keyboard-response","83","132596","0.0-9.0-2.18","8kYGdQMenz","5adfcb03f6b58c0001fa9083","6617fad957f7c6a12ea16e26","6622cccc292d6e4f66108883","mask grid"," ","","","","","Ontogenetic_Distractor_notarget","1200","onmask"," ","8","Phylogenetic","true","practice"
"","null","html-keyboard-response","84","133819","0.0-9.0-3.18","8kYGdQMenz","5adfcb03f6b58c0001fa9083","6617fad957f7c6a12ea16e26","6622cccc292d6e4f66108883","feedback screen","null","","","","","","","","","","","",""
"","null","html-keyboard-response","85","134334","0.0-9.0-0.19","8kYGdQMenz","5adfcb03f6b58c0001fa9083","6617fad957f7c6a12ea16e26","6622cccc292d6e4f66108883","fixation cross","null","","","","","","","","","","","",""
"","null","html-keyboard-response","86","135437","0.0-9.0-1.19","8kYGdQMenz","5adfcb03f6b58c0001fa9083","6617fad957f7c6a12ea16e26","6622cccc292d6e4f66108883","
        <div id=""grid-container"">
        <!-- Grid items will be dynamically added here -->
    </div>    ","null","","","","","","","","","","","",""
"","1349","html-keyboard-response","87","135687","0.0-9.0-2.19","8kYGdQMenz","5adfcb03f6b58c0001fa9083","6617fad957f7c6a12ea16e26","6622cccc292d6e4f66108883","mask grid"," ","","","","","Ontogenetic_Distractor_notarget","1100","onmask"," ","3","Phylogenetic","true","practice"
"","null","html-keyboard-response","88","136909","0.0-9.0-3.19","8kYGdQMenz","5adfcb03f6b58c0001fa9083","6617fad957f7c6a12ea16e26","6622cccc292d6e4f66108883","feedback screen","null","","","","","","","","","","","",""
"","6495","html-keyboard-response","89","143451","0.0-10.0","8kYGdQMenz","5adfcb03f6b58c0001fa9083","6617fad957f7c6a12ea16e26","6622cccc292d6e4f66108883","pre-experimental_briefing"," ","","","","","","","","","","","",""
"","null","html-keyboard-response","90","146007","0.0-11.0-0.0","8kYGdQMenz","5adfcb03f6b58c0001fa9083","6617fad957f7c6a12ea16e26","6622cccc292d6e4f66108883","fixation cross","null","","","","","","","","","","","",""
"","null","html-keyboard-response","91","146817","0.0-11.0-1.0","8kYGdQMenz","5adfcb03f6b58c0001fa9083","6617fad957f7c6a12ea16e26","6622cccc292d6e4f66108883","
        <div id=""grid-container"">
        <!-- Grid items will be dynamically added here -->
    </div>    ","null","","","","","","","","","","","",""
"","1699","html-keyboard-response","92","147717","0.0-11.0-2.0","8kYGdQMenz","5adfcb03f6b58c0001fa9083","6617fad957f7c6a12ea16e26","6622cccc292d6e4f66108883","mask grid","p","","","","","Phylogenetic_Distractor_Nonthreat_target","800","onmask","p","9","Phylogenetic","true","experimental"
"","null","html-keyboard-response","93","148428","0.0-11.0-0.1","8kYGdQMenz","5adfcb03f6b58c0001fa9083","6617fad957f7c6a12ea16e26","6622cccc292d6e4f66108883","fixation cross","null","","","","","","","","","","","",""
"","null","html-keyboard-response","94","149240","0.0-11.0-1.1","8kYGdQMenz","5adfcb03f6b58c0001fa9083","6617fad957f7c6a12ea16e26","6622cccc292d6e4f66108883","
        <div id=""grid-container"">
        <!-- Grid items will be dynamically added here -->
    </div>    ","null","","","","","","","","","","","",""
"","1052","html-keyboard-response","95","149492","0.0-11.0-2.1","8kYGdQMenz","5adfcb03f6b58c0001fa9083","6617fad957f7c6a12ea16e26","6622cccc292d6e4f66108883","mask grid"," ","","","","","Phylogenetic_Distractor_Threat_target","800","onmask","q","6","Phylogenetic","false","experimental"
"","null","html-keyboard-response","96","150221","0.0-11.0-0.2","8kYGdQMenz","5adfcb03f6b58c0001fa9083","6617fad957f7c6a12ea16e26","6622cccc292d6e4f66108883","fixation cross","null","","","","","","","","","","","",""
"","null","html-keyboard-response","97","151031","0.0-11.0-1.2","8kYGdQMenz","5adfcb03f6b58c0001fa9083","6617fad957f7c6a12ea16e26","6622cccc292d6e4f66108883","
        <div id=""grid-container"">
        <!-- Grid items will be dynamically added here -->
    </div>    ","null","","","","","","","","","","","",""
"","1008","html-keyboard-response","98","151240","0.0-11.0-2.2","8kYGdQMenz","5adfcb03f6b58c0001fa9083","6617fad957f7c6a12ea16e26","6622cccc292d6e4f66108883","mask grid","p","","","","","Phylogenetic_Distractor_Nonthreat_target","800","onmask","p","8","Phylogenetic","true","experimental"
"","null","html-keyboard-response","99","151961","0.0-11.0-0.3","8kYGdQMenz","5adfcb03f6b58c0001fa9083","6617fad957f7c6a12ea16e26","6622cccc292d6e4f66108883","fixation cross","null","","","","","","","","","","","",""
"","null","html-keyboard-response","100","152774","0.0-11.0-1.3","8kYGdQMenz","5adfcb03f6b58c0001fa9083","6617fad957f7c6a12ea16e26","6622cccc292d6e4f66108883","
        <div id=""grid-container"">
        <!-- Grid items will be dynamically added here -->
    </div>    ","null","","","","","","","","","","","",""
"","1291","html-keyboard-response","101","153265","0.0-11.0-2.3","8kYGdQMenz","5adfcb03f6b58c0001fa9083","6617fad957f7c6a12ea16e26","6622cccc292d6e4f66108883","mask grid","q","","","","","Phylogenetic_Distractor_Threat_target","800","onmask","q","9","Phylogenetic","true","experimental"
"","null","html-keyboard-response","102","153991","0.0-11.0-0.4","8kYGdQMenz","5adfcb03f6b58c0001fa9083","6617fad957f7c6a12ea16e26","6622cccc292d6e4f66108883","fixation cross","null","","","","","","","","","","","",""
"","null","html-keyboard-response","103","154802","0.0-11.0-1.4","8kYGdQMenz","5adfcb03f6b58c0001fa9083","6617fad957f7c6a12ea16e26","6622cccc292d6e4f66108883","
        <div id=""grid-container"">
        <!-- Grid items will be dynamically added here -->
    </div>    ","null","","","","","","","","","","","",""
"","929","html-keyboard-response","104","154931","0.0-11.0-2.4","8kYGdQMenz","5adfcb03f6b58c0001fa9083","6617fad957f7c6a12ea16e26","6622cccc292d6e4f66108883","mask grid"," ","","","","","Phylogenetic_Distractor_Nonthreat_target","800","onmask","p","8","Phylogenetic","false","experimental"
"","null","html-keyboard-response","105","155644","0.0-11.0-0.5","8kYGdQMenz","5adfcb03f6b58c0001fa9083","6617fad957f7c6a12ea16e26","6622cccc292d6e4f66108883","fixation cross","null","","","","","","","","","","","",""
"","null","html-keyboard-response","106","156449","0.0-11.0-1.5","8kYGdQMenz","5adfcb03f6b58c0001fa9083","6617fad957f7c6a12ea16e26","6622cccc292d6e4f66108883","
        <div id=""grid-container"">
        <!-- Grid items will be dynamically added here -->
    </div>    ","null","","","","","","","","","","","",""
"","1110","html-keyboard-response","107","156760","0.0-11.0-2.5","8kYGdQMenz","5adfcb03f6b58c0001fa9083","6617fad957f7c6a12ea16e26","6622cccc292d6e4f66108883","mask grid","p","","","","","Phylogenetic_Distractor_Threat_target","800","onmask","q","7","Phylogenetic","false","experimental"
"","null","html-keyboard-response","108","157474","0.0-11.0-0.6","8kYGdQMenz","5adfcb03f6b58c0001fa9083","6617fad957f7c6a12ea16e26","6622cccc292d6e4f66108883","fixation cross","null","","","","","","","","","","","",""
"","null","html-keyboard-response","109","158282","0.0-11.0-1.6","8kYGdQMenz","5adfcb03f6b58c0001fa9083","6617fad957f7c6a12ea16e26","6622cccc292d6e4f66108883","
        <div id=""grid-container"">
        <!-- Grid items will be dynamically added here -->
    </div>    ","null","","","","","","","","","","","",""
"","1511","html-keyboard-response","110","158994","0.0-11.0-2.6","8kYGdQMenz","5adfcb03f6b58c0001fa9083","6617fad957f7c6a12ea16e26","6622cccc292d6e4f66108883","mask grid"," ","","","","","Phylogenetic_Distractor_Threat_target","800","onmask","q","2","Phylogenetic","false","experimental"
"","null","html-keyboard-response","111","159701","0.0-11.0-0.7","8kYGdQMenz","5adfcb03f6b58c0001fa9083","6617fad957f7c6a12ea16e26","6622cccc292d6e4f66108883","fixation cross","null","","","","","","","","","","","",""
"","null","html-keyboard-response","112","160511","0.0-11.0-1.7","8kYGdQMenz","5adfcb03f6b58c0001fa9083","6617fad957f7c6a12ea16e26","6622cccc292d6e4f66108883","
        <div id=""grid-container"">
        <!-- Grid items will be dynamically added here -->
    </div>    ","null","","","","","","","","","","","",""
"","1357","html-keyboard-response","113","161069","0.0-11.0-2.7","8kYGdQMenz","5adfcb03f6b58c0001fa9083","6617fad957f7c6a12ea16e26","6622cccc292d6e4f66108883","mask grid","p","","","","","Phylogenetic_Distractor_Nonthreat_target","800","onmask","p","1","Phylogenetic","true","experimental"
"","null","html-keyboard-response","114","161790","0.0-11.0-0.8","8kYGdQMenz","5adfcb03f6b58c0001fa9083","6617fad957f7c6a12ea16e26","6622cccc292d6e4f66108883","fixation cross","null","","","","","","","","","","","",""
"","null","html-keyboard-response","115","162600","0.0-11.0-1.8","8kYGdQMenz","5adfcb03f6b58c0001fa9083","6617fad957f7c6a12ea16e26","6622cccc292d6e4f66108883","
        <div id=""grid-container"">
        <!-- Grid items will be dynamically added here -->
    </div>    ","null","","","","","","","","","","","",""
"","1365","html-keyboard-response","116","163166","0.0-11.0-2.8","8kYGdQMenz","5adfcb03f6b58c0001fa9083","6617fad957f7c6a12ea16e26","6622cccc292d6e4f66108883","mask grid","q","","","","","Phylogenetic_Distractor_Threat_target","800","onmask","q","4","Phylogenetic","true","experimental"
"","null","html-keyboard-response","117","163889","0.0-11.0-0.9","8kYGdQMenz","5adfcb03f6b58c0001fa9083","6617fad957f7c6a12ea16e26","6622cccc292d6e4f66108883","fixation cross","null","","","","","","","","","","","",""
"","null","html-keyboard-response","118","164703","0.0-11.0-1.9","8kYGdQMenz","5adfcb03f6b58c0001fa9083","6617fad957f7c6a12ea16e26","6622cccc292d6e4f66108883","
        <div id=""grid-container"">
        <!-- Grid items will be dynamically added here -->
    </div>    ","null","","","","","","","","","","","",""
"","1763","html-keyboard-response","119","165667","0.0-11.0-2.9","8kYGdQMenz","5adfcb03f6b58c0001fa9083","6617fad957f7c6a12ea16e26","6622cccc292d6e4f66108883","mask grid","p","","","","","Phylogenetic_Distractor_Nonthreat_target","800","onmask","p","1","Phylogenetic","true","experimental"
"","null","html-keyboard-response","120","166386","0.0-11.0-0.10","8kYGdQMenz","5adfcb03f6b58c0001fa9083","6617fad957f7c6a12ea16e26","6622cccc292d6e4f66108883","fixation cross","null","","","","","","","","","","","",""
"","null","html-keyboard-response","121","167193","0.0-11.0-1.10","8kYGdQMenz","5adfcb03f6b58c0001fa9083","6617fad957f7c6a12ea16e26","6622cccc292d6e4f66108883","
        <div id=""grid-container"">
        <!-- Grid items will be dynamically added here -->
    </div>    ","null","","","","","","","","","","","",""
"","1587","html-keyboard-response","122","167980","0.0-11.0-2.10","8kYGdQMenz","5adfcb03f6b58c0001fa9083","6617fad957f7c6a12ea16e26","6622cccc292d6e4f66108883","mask grid"," ","","","","","Phylogenetic_Distractor_Threat_target","800","onmask","q","5","Phylogenetic","false","experimental"
"","null","html-keyboard-response","123","168704","0.0-11.0-0.11","8kYGdQMenz","5adfcb03f6b58c0001fa9083","6617fad957f7c6a12ea16e26","6622cccc292d6e4f66108883","fixation cross","null","","","","","","","","","","","",""
"","null","html-keyboard-response","124","169515","0.0-11.0-1.11","8kYGdQMenz","5adfcb03f6b58c0001fa9083","6617fad957f7c6a12ea16e26","6622cccc292d6e4f66108883","
        <div id=""grid-container"">
        <!-- Grid items will be dynamically added here -->
    </div>    ","null","","","","","","","","","","","",""
"","2020","html-keyboard-response","125","170735","0.0-11.0-2.11","8kYGdQMenz","5adfcb03f6b58c0001fa9083","6617fad957f7c6a12ea16e26","6622cccc292d6e4f66108883","mask grid"," ","","","","","Phylogenetic_Distractor_notarget","800","onmask"," ","5","Phylogenetic","true","experimental"
"","null","html-keyboard-response","126","171445","0.0-11.0-0.12","8kYGdQMenz","5adfcb03f6b58c0001fa9083","6617fad957f7c6a12ea16e26","6622cccc292d6e4f66108883","fixation cross","null","","","","","","","","","","","",""
"","null","html-keyboard-response","127","172254","0.0-11.0-1.12","8kYGdQMenz","5adfcb03f6b58c0001fa9083","6617fad957f7c6a12ea16e26","6622cccc292d6e4f66108883","
        <div id=""grid-container"">
        <!-- Grid items will be dynamically added here -->
    </div>    ","null","","","","","","","","","","","",""
"","1900","html-keyboard-response","128","173355","0.0-11.0-2.12","8kYGdQMenz","5adfcb03f6b58c0001fa9083","6617fad957f7c6a12ea16e26","6622cccc292d6e4f66108883","mask grid","q","","","","","Phylogenetic_Distractor_Threat_target","800","onmask","q","2","Phylogenetic","true","experimental"
"","null","html-keyboard-response","129","174073","0.0-11.0-0.13","8kYGdQMenz","5adfcb03f6b58c0001fa9083","6617fad957f7c6a12ea16e26","6622cccc292d6e4f66108883","fixation cross","null","","","","","","","","","","","",""
"","null","html-keyboard-response","130","174884","0.0-11.0-1.13","8kYGdQMenz","5adfcb03f6b58c0001fa9083","6617fad957f7c6a12ea16e26","6622cccc292d6e4f66108883","
        <div id=""grid-container"">
        <!-- Grid items will be dynamically added here -->
    </div>    ","null","","","","","","","","","","","",""
"","1585","html-keyboard-response","131","175670","0.0-11.0-2.13","8kYGdQMenz","5adfcb03f6b58c0001fa9083","6617fad957f7c6a12ea16e26","6622cccc292d6e4f66108883","mask grid"," ","","","","","Phylogenetic_Distractor_Nonthreat_target","800","onmask","p","5","Phylogenetic","false","experimental"
"","null","html-keyboard-response","132","176394","0.0-11.0-0.14","8kYGdQMenz","5adfcb03f6b58c0001fa9083","6617fad957f7c6a12ea16e26","6622cccc292d6e4f66108883","fixation cross","null","","","","","","","","","","","",""
"","null","html-keyboard-response","133","177204","0.0-11.0-1.14","8kYGdQMenz","5adfcb03f6b58c0001fa9083","6617fad957f7c6a12ea16e26","6622cccc292d6e4f66108883","
        <div id=""grid-container"">
        <!-- Grid items will be dynamically added here -->
    </div>    ","null","","","","","","","","","","","",""
"","1426","html-keyboard-response","134","177830","0.0-11.0-2.14","8kYGdQMenz","5adfcb03f6b58c0001fa9083","6617fad957f7c6a12ea16e26","6622cccc292d6e4f66108883","mask grid","p","","","","","Phylogenetic_Distractor_Nonthreat_target","800","onmask","p","8","Phylogenetic","true","experimental"
"","null","html-keyboard-response","135","178558","0.0-11.0-0.15","8kYGdQMenz","5adfcb03f6b58c0001fa9083","6617fad957f7c6a12ea16e26","6622cccc292d6e4f66108883","fixation cross","null","","","","","","","","","","","",""
"","null","html-keyboard-response","136","179369","0.0-11.0-1.15","8kYGdQMenz","5adfcb03f6b58c0001fa9083","6617fad957f7c6a12ea16e26","6622cccc292d6e4f66108883","
        <div id=""grid-container"">
        <!-- Grid items will be dynamically added here -->
    </div>    ","null","","","","","","","","","","","",""
"","1780","html-keyboard-response","137","180349","0.0-11.0-2.15","8kYGdQMenz","5adfcb03f6b58c0001fa9083","6617fad957f7c6a12ea16e26","6622cccc292d6e4f66108883","mask grid","p","","","","","Phylogenetic_Distractor_Nonthreat_target","800","onmask","p","7","Phylogenetic","true","experimental"
"","null","html-keyboard-response","138","181077","0.0-11.0-0.16","8kYGdQMenz","5adfcb03f6b58c0001fa9083","6617fad957f7c6a12ea16e26","6622cccc292d6e4f66108883","fixation cross","null","","","","","","","","","","","",""
"","null","html-keyboard-response","139","181885","0.0-11.0-1.16","8kYGdQMenz","5adfcb03f6b58c0001fa9083","6617fad957f7c6a12ea16e26","6622cccc292d6e4f66108883","
        <div id=""grid-container"">
        <!-- Grid items will be dynamically added here -->
    </div>    ","null","","","","","","","","","","","",""
"","1311","html-keyboard-response","140","182397","0.0-11.0-2.16","8kYGdQMenz","5adfcb03f6b58c0001fa9083","6617fad957f7c6a12ea16e26","6622cccc292d6e4f66108883","mask grid","q","","","","","Phylogenetic_Distractor_Threat_target","800","onmask","q","9","Phylogenetic","true","experimental"
"","null","html-keyboard-response","141","183109","0.0-11.0-0.17","8kYGdQMenz","5adfcb03f6b58c0001fa9083","6617fad957f7c6a12ea16e26","6622cccc292d6e4f66108883","fixation cross","null","","","","","","","","","","","",""
"","null","html-keyboard-response","142","183919","0.0-11.0-1.17","8kYGdQMenz","5adfcb03f6b58c0001fa9083","6617fad957f7c6a12ea16e26","6622cccc292d6e4f66108883","
        <div id=""grid-container"">
        <!-- Grid items will be dynamically added here -->
    </div>    ","null","","","","","","","","","","","",""
"","2186","html-keyboard-response","143","185305","0.0-11.0-2.17","8kYGdQMenz","5adfcb03f6b58c0001fa9083","6617fad957f7c6a12ea16e26","6622cccc292d6e4f66108883","mask grid","p","","","","","Phylogenetic_Distractor_Threat_target","800","onmask","q","6","Phylogenetic","false","experimental"
"","null","html-keyboard-response","144","186023","0.0-11.0-0.18","8kYGdQMenz","5adfcb03f6b58c0001fa9083","6617fad957f7c6a12ea16e26","6622cccc292d6e4f66108883","fixation cross","null","","","","","","","","","","","",""
"","null","html-keyboard-response","145","186833","0.0-11.0-1.18","8kYGdQMenz","5adfcb03f6b58c0001fa9083","6617fad957f7c6a12ea16e26","6622cccc292d6e4f66108883","
        <div id=""grid-container"">
        <!-- Grid items will be dynamically added here -->
    </div>    ","null","","","","","","","","","","","",""
"","1477","html-keyboard-response","146","187510","0.0-11.0-2.18","8kYGdQMenz","5adfcb03f6b58c0001fa9083","6617fad957f7c6a12ea16e26","6622cccc292d6e4f66108883","mask grid","q","","","","","Phylogenetic_Distractor_Threat_target","800","onmask","q","3","Phylogenetic","true","experimental"
"","null","html-keyboard-response","147","188235","0.0-11.0-0.19","8kYGdQMenz","5adfcb03f6b58c0001fa9083","6617fad957f7c6a12ea16e26","6622cccc292d6e4f66108883","fixation cross","null","","","","","","","","","","","",""
"","null","html-keyboard-response","148","189044","0.0-11.0-1.19","8kYGdQMenz","5adfcb03f6b58c0001fa9083","6617fad957f7c6a12ea16e26","6622cccc292d6e4f66108883","
        <div id=""grid-container"">
        <!-- Grid items will be dynamically added here -->
    </div>    ","null","","","","","","","","","","","",""
"","1803","html-keyboard-response","149","190047","0.0-11.0-2.19","8kYGdQMenz","5adfcb03f6b58c0001fa9083","6617fad957f7c6a12ea16e26","6622cccc292d6e4f66108883","mask grid","q","","","","","Phylogenetic_Distractor_Threat_target","800","onmask","q","5","Phylogenetic","true","experimental"
"","null","html-keyboard-response","150","190772","0.0-11.0-0.20","8kYGdQMenz","5adfcb03f6b58c0001fa9083","6617fad957f7c6a12ea16e26","6622cccc292d6e4f66108883","fixation cross","null","","","","","","","","","","","",""
"","null","html-keyboard-response","151","191585","0.0-11.0-1.20","8kYGdQMenz","5adfcb03f6b58c0001fa9083","6617fad957f7c6a12ea16e26","6622cccc292d6e4f66108883","
        <div id=""grid-container"">
        <!-- Grid items will be dynamically added here -->
    </div>    ","null","","","","","","","","","","","",""
"","2006","html-keyboard-response","152","192792","0.0-11.0-2.20","8kYGdQMenz","5adfcb03f6b58c0001fa9083","6617fad957f7c6a12ea16e26","6622cccc292d6e4f66108883","mask grid"," ","","","","","Phylogenetic_Distractor_notarget","800","onmask"," ","6","Phylogenetic","true","experimental"
"","null","html-keyboard-response","153","193518","0.0-11.0-0.21","8kYGdQMenz","5adfcb03f6b58c0001fa9083","6617fad957f7c6a12ea16e26","6622cccc292d6e4f66108883","fixation cross","null","","","","","","","","","","","",""
"","null","html-keyboard-response","154","194330","0.0-11.0-1.21","8kYGdQMenz","5adfcb03f6b58c0001fa9083","6617fad957f7c6a12ea16e26","6622cccc292d6e4f66108883","
        <div id=""grid-container"">
        <!-- Grid items will be dynamically added here -->
    </div>    ","null","","","","","","","","","","","",""
"","1743","html-keyboard-response","155","195273","0.0-11.0-2.21","8kYGdQMenz","5adfcb03f6b58c0001fa9083","6617fad957f7c6a12ea16e26","6622cccc292d6e4f66108883","mask grid","p","","","","","Phylogenetic_Distractor_Nonthreat_target","800","onmask","p","8","Phylogenetic","true","experimental"
"","null","html-keyboard-response","156","195988","0.0-11.0-0.22","8kYGdQMenz","5adfcb03f6b58c0001fa9083","6617fad957f7c6a12ea16e26","6622cccc292d6e4f66108883","fixation cross","null","","","","","","","","","","","",""
"","null","html-keyboard-response","157","196795","0.0-11.0-1.22","8kYGdQMenz","5adfcb03f6b58c0001fa9083","6617fad957f7c6a12ea16e26","6622cccc292d6e4f66108883","
        <div id=""grid-container"">
        <!-- Grid items will be dynamically added here -->
    </div>    ","null","","","","","","","","","","","",""
"","1613","html-keyboard-response","158","197609","0.0-11.0-2.22","8kYGdQMenz","5adfcb03f6b58c0001fa9083","6617fad957f7c6a12ea16e26","6622cccc292d6e4f66108883","mask grid","p","","","","","Phylogenetic_Distractor_Nonthreat_target","800","onmask","p","9","Phylogenetic","true","experimental"
"","null","html-keyboard-response","159","198339","0.0-11.0-0.23","8kYGdQMenz","5adfcb03f6b58c0001fa9083","6617fad957f7c6a12ea16e26","6622cccc292d6e4f66108883","fixation cross","null","","","","","","","","","","","",""
"","null","html-keyboard-response","160","199142","0.0-11.0-1.23","8kYGdQMenz","5adfcb03f6b58c0001fa9083","6617fad957f7c6a12ea16e26","6622cccc292d6e4f66108883","
        <div id=""grid-container"">
        <!-- Grid items will be dynamically added here -->
    </div>    ","null","","","","","","","","","","","",""
"","2235","html-keyboard-response","161","200577","0.0-11.0-2.23","8kYGdQMenz","5adfcb03f6b58c0001fa9083","6617fad957f7c6a12ea16e26","6622cccc292d6e4f66108883","mask grid","q","","","","","Phylogenetic_Distractor_Threat_target","800","onmask","q","6","Phylogenetic","true","experimental"
"","null","html-keyboard-response","162","201304","0.0-11.0-0.24","8kYGdQMenz","5adfcb03f6b58c0001fa9083","6617fad957f7c6a12ea16e26","6622cccc292d6e4f66108883","fixation cross","null","","","","","","","","","","","",""
"","null","html-keyboard-response","163","202108","0.0-11.0-1.24","8kYGdQMenz","5adfcb03f6b58c0001fa9083","6617fad957f7c6a12ea16e26","6622cccc292d6e4f66108883","
        <div id=""grid-container"">
        <!-- Grid items will be dynamically added here -->
    </div>    ","null","","","","","","","","","","","",""
"","1856","html-keyboard-response","164","203165","0.0-11.0-2.24","8kYGdQMenz","5adfcb03f6b58c0001fa9083","6617fad957f7c6a12ea16e26","6622cccc292d6e4f66108883","mask grid"," ","","","","","Phylogenetic_Distractor_Nonthreat_target","800","onmask","p","9","Phylogenetic","false","experimental"
"","null","html-keyboard-response","165","203883","0.0-11.0-0.25","8kYGdQMenz","5adfcb03f6b58c0001fa9083","6617fad957f7c6a12ea16e26","6622cccc292d6e4f66108883","fixation cross","null","","","","","","","","","","","",""
"","null","html-keyboard-response","166","204693","0.0-11.0-1.25","8kYGdQMenz","5adfcb03f6b58c0001fa9083","6617fad957f7c6a12ea16e26","6622cccc292d6e4f66108883","
        <div id=""grid-container"">
        <!-- Grid items will be dynamically added here -->
    </div>    ","null","","","","","","","","","","","",""
"","1815","html-keyboard-response","167","205708","0.0-11.0-2.25","8kYGdQMenz","5adfcb03f6b58c0001fa9083","6617fad957f7c6a12ea16e26","6622cccc292d6e4f66108883","mask grid","q","","","","","Phylogenetic_Distractor_Threat_target","800","onmask","q","5","Phylogenetic","true","experimental"
"","null","html-keyboard-response","168","206435","0.0-11.0-0.26","8kYGdQMenz","5adfcb03f6b58c0001fa9083","6617fad957f7c6a12ea16e26","6622cccc292d6e4f66108883","fixation cross","null","","","","","","","","","","","",""
"","null","html-keyboard-response","169","207251","0.0-11.0-1.26","8kYGdQMenz","5adfcb03f6b58c0001fa9083","6617fad957f7c6a12ea16e26","6622cccc292d6e4f66108883","
        <div id=""grid-container"">
        <!-- Grid items will be dynamically added here -->
    </div>    ","null","","","","","","","","","","","",""
"","1751","html-keyboard-response","170","208203","0.0-11.0-2.26","8kYGdQMenz","5adfcb03f6b58c0001fa9083","6617fad957f7c6a12ea16e26","6622cccc292d6e4f66108883","mask grid","p","","","","","Phylogenetic_Distractor_Nonthreat_target","800","onmask","p","5","Phylogenetic","true","experimental"
"","null","html-keyboard-response","171","208932","0.0-11.0-0.27","8kYGdQMenz","5adfcb03f6b58c0001fa9083","6617fad957f7c6a12ea16e26","6622cccc292d6e4f66108883","fixation cross","null","","","","","","","","","","","",""
"","83","html-keyboard-response","172","209015","0.0-11.0-1.27","8kYGdQMenz","5adfcb03f6b58c0001fa9083","6617fad957f7c6a12ea16e26","6622cccc292d6e4f66108883","image grid","p","","","","","Phylogenetic_Distractor_Nonthreat_target","800","ongrid","p","8","Phylogenetic","true","experimental"
"","null","html-keyboard-response","173","209167","0.0-11.0-2.27","8kYGdQMenz","5adfcb03f6b58c0001fa9083","6617fad957f7c6a12ea16e26","6622cccc292d6e4f66108883","
    <div id=""grid-container"">
        <!-- Grid items will be dynamically added here -->
    </div>    ","null","","","","","","","","","","","",""
"","null","html-keyboard-response","174","209896","0.0-11.0-0.28","8kYGdQMenz","5adfcb03f6b58c0001fa9083","6617fad957f7c6a12ea16e26","6622cccc292d6e4f66108883","fixation cross","null","","","","","","","","","","","",""
"","null","html-keyboard-response","175","210707","0.0-11.0-1.28","8kYGdQMenz","5adfcb03f6b58c0001fa9083","6617fad957f7c6a12ea16e26","6622cccc292d6e4f66108883","
        <div id=""grid-container"">
        <!-- Grid items will be dynamically added here -->
    </div>    ","null","","","","","","","","","","","",""
"","1710","html-keyboard-response","176","211618","0.0-11.0-2.28","8kYGdQMenz","5adfcb03f6b58c0001fa9083","6617fad957f7c6a12ea16e26","6622cccc292d6e4f66108883","mask grid","p","","","","","Phylogenetic_Distractor_notarget","800","onmask"," ","1","Phylogenetic","false","experimental"
"","null","html-keyboard-response","177","212336","0.0-11.0-0.29","8kYGdQMenz","5adfcb03f6b58c0001fa9083","6617fad957f7c6a12ea16e26","6622cccc292d6e4f66108883","fixation cross","null","","","","","","","","","","","",""
"","null","html-keyboard-response","178","213146","0.0-11.0-1.29","8kYGdQMenz","5adfcb03f6b58c0001fa9083","6617fad957f7c6a12ea16e26","6622cccc292d6e4f66108883","
        <div id=""grid-container"">
        <!-- Grid items will be dynamically added here -->
    </div>    ","null","","","","","","","","","","","",""
"","2106","html-keyboard-response","179","214453","0.0-11.0-2.29","8kYGdQMenz","5adfcb03f6b58c0001fa9083","6617fad957f7c6a12ea16e26","6622cccc292d6e4f66108883","mask grid"," ","","","","","Phylogenetic_Distractor_notarget","800","onmask"," ","2","Phylogenetic","true","experimental"
"","null","html-keyboard-response","180","215177","0.0-11.0-0.30","8kYGdQMenz","5adfcb03f6b58c0001fa9083","6617fad957f7c6a12ea16e26","6622cccc292d6e4f66108883","fixation cross","null","","","","","","","","","","","",""
"","null","html-keyboard-response","181","215985","0.0-11.0-1.30","8kYGdQMenz","5adfcb03f6b58c0001fa9083","6617fad957f7c6a12ea16e26","6622cccc292d6e4f66108883","
        <div id=""grid-container"">
        <!-- Grid items will be dynamically added here -->
    </div>    ","null","","","","","","","","","","","",""
"","1500","html-keyboard-response","182","216685","0.0-11.0-2.30","8kYGdQMenz","5adfcb03f6b58c0001fa9083","6617fad957f7c6a12ea16e26","6622cccc292d6e4f66108883","mask grid","p","","","","","Phylogenetic_Distractor_Nonthreat_target","800","onmask","p","7","Phylogenetic","true","experimental"
"","null","html-keyboard-response","183","217403","0.0-11.0-0.31","8kYGdQMenz","5adfcb03f6b58c0001fa9083","6617fad957f7c6a12ea16e26","6622cccc292d6e4f66108883","fixation cross","null","","","","","","","","","","","",""
"","null","html-keyboard-response","184","218209","0.0-11.0-1.31","8kYGdQMenz","5adfcb03f6b58c0001fa9083","6617fad957f7c6a12ea16e26","6622cccc292d6e4f66108883","
        <div id=""grid-container"">
        <!-- Grid items will be dynamically added here -->
    </div>    ","null","","","","","","","","","","","",""
"","1214","html-keyboard-response","185","218624","0.0-11.0-2.31","8kYGdQMenz","5adfcb03f6b58c0001fa9083","6617fad957f7c6a12ea16e26","6622cccc292d6e4f66108883","mask grid","q","","","","","Phylogenetic_Distractor_Threat_target","800","onmask","q","7","Phylogenetic","true","experimental"
"","null","html-keyboard-response","186","219342","0.0-11.0-0.32","8kYGdQMenz","5adfcb03f6b58c0001fa9083","6617fad957f7c6a12ea16e26","6622cccc292d6e4f66108883","fixation cross","null","","","","","","","","","","","",""
"","null","html-keyboard-response","187","220148","0.0-11.0-1.32","8kYGdQMenz","5adfcb03f6b58c0001fa9083","6617fad957f7c6a12ea16e26","6622cccc292d6e4f66108883","
        <div id=""grid-container"">
        <!-- Grid items will be dynamically added here -->
    </div>    ","null","","","","","","","","","","","",""
"","1597","html-keyboard-response","188","220946","0.0-11.0-2.32","8kYGdQMenz","5adfcb03f6b58c0001fa9083","6617fad957f7c6a12ea16e26","6622cccc292d6e4f66108883","mask grid","q","","","","","Phylogenetic_Distractor_Threat_target","800","onmask","q","5","Phylogenetic","true","experimental"
"","null","html-keyboard-response","189","221673","0.0-11.0-0.33","8kYGdQMenz","5adfcb03f6b58c0001fa9083","6617fad957f7c6a12ea16e26","6622cccc292d6e4f66108883","fixation cross","null","","","","","","","","","","","",""
"","null","html-keyboard-response","190","222480","0.0-11.0-1.33","8kYGdQMenz","5adfcb03f6b58c0001fa9083","6617fad957f7c6a12ea16e26","6622cccc292d6e4f66108883","
        <div id=""grid-container"">
        <!-- Grid items will be dynamically added here -->
    </div>    ","null","","","","","","","","","","","",""
"","1559","html-keyboard-response","191","223239","0.0-11.0-2.33","8kYGdQMenz","5adfcb03f6b58c0001fa9083","6617fad957f7c6a12ea16e26","6622cccc292d6e4f66108883","mask grid","q","","","","","Phylogenetic_Distractor_Threat_target","800","onmask","q","5","Phylogenetic","true","experimental"
"","null","html-keyboard-response","192","223958","0.0-11.0-0.34","8kYGdQMenz","5adfcb03f6b58c0001fa9083","6617fad957f7c6a12ea16e26","6622cccc292d6e4f66108883","fixation cross","null","","","","","","","","","","","",""
"","null","html-keyboard-response","193","224766","0.0-11.0-1.34","8kYGdQMenz","5adfcb03f6b58c0001fa9083","6617fad957f7c6a12ea16e26","6622cccc292d6e4f66108883","
        <div id=""grid-container"">
        <!-- Grid items will be dynamically added here -->
    </div>    ","null","","","","","","","","","","","",""
"","1502","html-keyboard-response","194","225469","0.0-11.0-2.34","8kYGdQMenz","5adfcb03f6b58c0001fa9083","6617fad957f7c6a12ea16e26","6622cccc292d6e4f66108883","mask grid"," ","","","","","Phylogenetic_Distractor_Nonthreat_target","800","onmask","p","2","Phylogenetic","false","experimental"
"","null","html-keyboard-response","195","226185","0.0-11.0-0.35","8kYGdQMenz","5adfcb03f6b58c0001fa9083","6617fad957f7c6a12ea16e26","6622cccc292d6e4f66108883","fixation cross","null","","","","","","","","","","","",""
"","null","html-keyboard-response","196","226995","0.0-11.0-1.35","8kYGdQMenz","5adfcb03f6b58c0001fa9083","6617fad957f7c6a12ea16e26","6622cccc292d6e4f66108883","
        <div id=""grid-container"">
        <!-- Grid items will be dynamically added here -->
    </div>    ","null","","","","","","","","","","","",""
"","1264","html-keyboard-response","197","227459","0.0-11.0-2.35","8kYGdQMenz","5adfcb03f6b58c0001fa9083","6617fad957f7c6a12ea16e26","6622cccc292d6e4f66108883","mask grid","p","","","","","Phylogenetic_Distractor_Nonthreat_target","800","onmask","p","5","Phylogenetic","true","experimental"
"","null","html-keyboard-response","198","228179","0.0-11.0-0.36","8kYGdQMenz","5adfcb03f6b58c0001fa9083","6617fad957f7c6a12ea16e26","6622cccc292d6e4f66108883","fixation cross","null","","","","","","","","","","","",""
"","null","html-keyboard-response","199","228988","0.0-11.0-1.36","8kYGdQMenz","5adfcb03f6b58c0001fa9083","6617fad957f7c6a12ea16e26","6622cccc292d6e4f66108883","
        <div id=""grid-container"">
        <!-- Grid items will be dynamically added here -->
    </div>    ","null","","","","","","","","","","","",""
"","1159","html-keyboard-response","200","229347","0.0-11.0-2.36","8kYGdQMenz","5adfcb03f6b58c0001fa9083","6617fad957f7c6a12ea16e26","6622cccc292d6e4f66108883","mask grid","q","","","","","Phylogenetic_Distractor_Threat_target","800","onmask","q","8","Phylogenetic","true","experimental"
"","null","html-keyboard-response","201","230077","0.0-11.0-0.37","8kYGdQMenz","5adfcb03f6b58c0001fa9083","6617fad957f7c6a12ea16e26","6622cccc292d6e4f66108883","fixation cross","null","","","","","","","","","","","",""
"","null","html-keyboard-response","202","230887","0.0-11.0-1.37","8kYGdQMenz","5adfcb03f6b58c0001fa9083","6617fad957f7c6a12ea16e26","6622cccc292d6e4f66108883","
        <div id=""grid-container"">
        <!-- Grid items will be dynamically added here -->
    </div>    ","null","","","","","","","","","","","",""
"","1509","html-keyboard-response","203","231597","0.0-11.0-2.37","8kYGdQMenz","5adfcb03f6b58c0001fa9083","6617fad957f7c6a12ea16e26","6622cccc292d6e4f66108883","mask grid","q","","","","","Phylogenetic_Distractor_Threat_target","800","onmask","q","1","Phylogenetic","true","experimental"
"","null","html-keyboard-response","204","232320","0.0-11.0-0.38","8kYGdQMenz","5adfcb03f6b58c0001fa9083","6617fad957f7c6a12ea16e26","6622cccc292d6e4f66108883","fixation cross","null","","","","","","","","","","","",""
"","null","html-keyboard-response","205","233129","0.0-11.0-1.38","8kYGdQMenz","5adfcb03f6b58c0001fa9083","6617fad957f7c6a12ea16e26","6622cccc292d6e4f66108883","
        <div id=""grid-container"">
        <!-- Grid items will be dynamically added here -->
    </div>    ","null","","","","","","","","","","","",""
"","1746","html-keyboard-response","206","234076","0.0-11.0-2.38","8kYGdQMenz","5adfcb03f6b58c0001fa9083","6617fad957f7c6a12ea16e26","6622cccc292d6e4f66108883","mask grid"," ","","","","","Phylogenetic_Distractor_Nonthreat_target","800","onmask","p","9","Phylogenetic","false","experimental"
"","null","html-keyboard-response","207","234795","0.0-11.0-0.39","8kYGdQMenz","5adfcb03f6b58c0001fa9083","6617fad957f7c6a12ea16e26","6622cccc292d6e4f66108883","fixation cross","null","","","","","","","","","","","",""
"","null","html-keyboard-response","208","235605","0.0-11.0-1.39","8kYGdQMenz","5adfcb03f6b58c0001fa9083","6617fad957f7c6a12ea16e26","6622cccc292d6e4f66108883","
        <div id=""grid-container"">
        <!-- Grid items will be dynamically added here -->
    </div>    ","null","","","","","","","","","","","",""
"","1286","html-keyboard-response","209","236091","0.0-11.0-2.39","8kYGdQMenz","5adfcb03f6b58c0001fa9083","6617fad957f7c6a12ea16e26","6622cccc292d6e4f66108883","mask grid","p","","","","","Phylogenetic_Distractor_Nonthreat_target","800","onmask","p","9","Phylogenetic","true","experimental"
"","1645","html-keyboard-response","210","237990","0.0-12.0","8kYGdQMenz","5adfcb03f6b58c0001fa9083","6617fad957f7c6a12ea16e26","6622cccc292d6e4f66108883","break screen"," ","","","","","","","","","","","",""
"","null","html-keyboard-response","211","240512","0.0-13.0-0.0","8kYGdQMenz","5adfcb03f6b58c0001fa9083","6617fad957f7c6a12ea16e26","6622cccc292d6e4f66108883","fixation cross","null","","","","","","","","","","","",""
"","null","html-keyboard-response","212","243025","0.0-13.0-1.0","8kYGdQMenz","5adfcb03f6b58c0001fa9083","6617fad957f7c6a12ea16e26","6622cccc292d6e4f66108883","
        <div id=""grid-container"">
        <!-- Grid items will be dynamically added here -->
    </div>    ","null","","","","","","","","","","","",""
"","3371","html-keyboard-response","213","243896","0.0-13.0-2.0","8kYGdQMenz","5adfcb03f6b58c0001fa9083","6617fad957f7c6a12ea16e26","6622cccc292d6e4f66108883","mask grid","p","","","","","Ontogenetic_Distractor_Nonthreat_target","2500","onmask","p","8","Ontogenetic","true","experimental"
"","null","html-keyboard-response","214","244626","0.0-13.0-0.1","8kYGdQMenz","5adfcb03f6b58c0001fa9083","6617fad957f7c6a12ea16e26","6622cccc292d6e4f66108883","fixation cross","null","","","","","","","","","","","",""
"","1143","html-keyboard-response","215","245769","0.0-13.0-1.1","8kYGdQMenz","5adfcb03f6b58c0001fa9083","6617fad957f7c6a12ea16e26","6622cccc292d6e4f66108883","image grid","q","","","","","Ontogenetic_Distractor_Threat_target","2500","ongrid","q","5","Ontogenetic","true","experimental"
"","null","html-keyboard-response","216","245936","0.0-13.0-2.1","8kYGdQMenz","5adfcb03f6b58c0001fa9083","6617fad957f7c6a12ea16e26","6622cccc292d6e4f66108883","
    <div id=""grid-container"">
        <!-- Grid items will be dynamically added here -->
    </div>    ","null","","","","","","","","","","","",""
"","null","html-keyboard-response","217","246646","0.0-13.0-0.2","8kYGdQMenz","5adfcb03f6b58c0001fa9083","6617fad957f7c6a12ea16e26","6622cccc292d6e4f66108883","fixation cross","null","","","","","","","","","","","",""
"","1100","html-keyboard-response","218","247747","0.0-13.0-1.2","8kYGdQMenz","5adfcb03f6b58c0001fa9083","6617fad957f7c6a12ea16e26","6622cccc292d6e4f66108883","image grid","q","","","","","Ontogenetic_Distractor_Threat_target","2500","ongrid","q","2","Ontogenetic","true","experimental"
"","null","html-keyboard-response","219","247911","0.0-13.0-2.2","8kYGdQMenz","5adfcb03f6b58c0001fa9083","6617fad957f7c6a12ea16e26","6622cccc292d6e4f66108883","
    <div id=""grid-container"">
        <!-- Grid items will be dynamically added here -->
    </div>    ","null","","","","","","","","","","","",""
"","null","html-keyboard-response","220","248629","0.0-13.0-0.3","8kYGdQMenz","5adfcb03f6b58c0001fa9083","6617fad957f7c6a12ea16e26","6622cccc292d6e4f66108883","fixation cross","null","","","","","","","","","","","",""
"","1497","html-keyboard-response","221","250126","0.0-13.0-1.3","8kYGdQMenz","5adfcb03f6b58c0001fa9083","6617fad957f7c6a12ea16e26","6622cccc292d6e4f66108883","image grid","p","","","","","Ontogenetic_Distractor_Nonthreat_target","2500","ongrid","p","9","Ontogenetic","true","experimental"
"","null","html-keyboard-response","222","250280","0.0-13.0-2.3","8kYGdQMenz","5adfcb03f6b58c0001fa9083","6617fad957f7c6a12ea16e26","6622cccc292d6e4f66108883","
    <div id=""grid-container"">
        <!-- Grid items will be dynamically added here -->
    </div>    ","null","","","","","","","","","","","",""
"","null","html-keyboard-response","223","250985","0.0-13.0-0.4","8kYGdQMenz","5adfcb03f6b58c0001fa9083","6617fad957f7c6a12ea16e26","6622cccc292d6e4f66108883","fixation cross","null","","","","","","","","","","","",""
"","1092","html-keyboard-response","224","252078","0.0-13.0-1.4","8kYGdQMenz","5adfcb03f6b58c0001fa9083","6617fad957f7c6a12ea16e26","6622cccc292d6e4f66108883","image grid","p","","","","","Ontogenetic_Distractor_Nonthreat_target","2500","ongrid","p","8","Ontogenetic","true","experimental"
"","null","html-keyboard-response","225","252235","0.0-13.0-2.4","8kYGdQMenz","5adfcb03f6b58c0001fa9083","6617fad957f7c6a12ea16e26","6622cccc292d6e4f66108883","
    <div id=""grid-container"">
        <!-- Grid items will be dynamically added here -->
    </div>    ","null","","","","","","","","","","","",""
"","null","html-keyboard-response","226","252949","0.0-13.0-0.5","8kYGdQMenz","5adfcb03f6b58c0001fa9083","6617fad957f7c6a12ea16e26","6622cccc292d6e4f66108883","fixation cross","null","","","","","","","","","","","",""
"","1762","html-keyboard-response","227","254712","0.0-13.0-1.5","8kYGdQMenz","5adfcb03f6b58c0001fa9083","6617fad957f7c6a12ea16e26","6622cccc292d6e4f66108883","image grid","p","","","","","Ontogenetic_Distractor_notarget","2500","ongrid"," ","5","Ontogenetic","false","experimental"
"","null","html-keyboard-response","228","254876","0.0-13.0-2.5","8kYGdQMenz","5adfcb03f6b58c0001fa9083","6617fad957f7c6a12ea16e26","6622cccc292d6e4f66108883","
    <div id=""grid-container"">
        <!-- Grid items will be dynamically added here -->
    </div>    ","null","","","","","","","","","","","",""
"","null","html-keyboard-response","229","255602","0.0-13.0-0.6","8kYGdQMenz","5adfcb03f6b58c0001fa9083","6617fad957f7c6a12ea16e26","6622cccc292d6e4f66108883","fixation cross","null","","","","","","","","","","","",""
"","1000","html-keyboard-response","230","256603","0.0-13.0-1.6","8kYGdQMenz","5adfcb03f6b58c0001fa9083","6617fad957f7c6a12ea16e26","6622cccc292d6e4f66108883","image grid","q","","","","","Ontogenetic_Distractor_Threat_target","2500","ongrid","q","5","Ontogenetic","true","experimental"
"","null","html-keyboard-response","231","256760","0.0-13.0-2.6","8kYGdQMenz","5adfcb03f6b58c0001fa9083","6617fad957f7c6a12ea16e26","6622cccc292d6e4f66108883","
    <div id=""grid-container"">
        <!-- Grid items will be dynamically added here -->
    </div>    ","null","","","","","","","","","","","",""
"","null","html-keyboard-response","232","257474","0.0-13.0-0.7","8kYGdQMenz","5adfcb03f6b58c0001fa9083","6617fad957f7c6a12ea16e26","6622cccc292d6e4f66108883","fixation cross","null","","","","","","","","","","","",""
"","1309","html-keyboard-response","233","258783","0.0-13.0-1.7","8kYGdQMenz","5adfcb03f6b58c0001fa9083","6617fad957f7c6a12ea16e26","6622cccc292d6e4f66108883","image grid"," ","","","","","Ontogenetic_Distractor_notarget","2500","ongrid"," ","3","Ontogenetic","true","experimental"
"","null","html-keyboard-response","234","258936","0.0-13.0-2.7","8kYGdQMenz","5adfcb03f6b58c0001fa9083","6617fad957f7c6a12ea16e26","6622cccc292d6e4f66108883","
    <div id=""grid-container"">
        <!-- Grid items will be dynamically added here -->
    </div>    ","null","","","","","","","","","","","",""
"","null","html-keyboard-response","235","259653","0.0-13.0-0.8","8kYGdQMenz","5adfcb03f6b58c0001fa9083","6617fad957f7c6a12ea16e26","6622cccc292d6e4f66108883","fixation cross","null","","","","","","","","","","","",""
"","1033","html-keyboard-response","236","260687","0.0-13.0-1.8","8kYGdQMenz","5adfcb03f6b58c0001fa9083","6617fad957f7c6a12ea16e26","6622cccc292d6e4f66108883","image grid","p","","","","","Ontogenetic_Distractor_Nonthreat_target","2500","ongrid","p","6","Ontogenetic","true","experimental"
"","null","html-keyboard-response","237","260849","0.0-13.0-2.8","8kYGdQMenz","5adfcb03f6b58c0001fa9083","6617fad957f7c6a12ea16e26","6622cccc292d6e4f66108883","
    <div id=""grid-container"">
        <!-- Grid items will be dynamically added here -->
    </div>    ","null","","","","","","","","","","","",""
"","null","html-keyboard-response","238","261564","0.0-13.0-0.9","8kYGdQMenz","5adfcb03f6b58c0001fa9083","6617fad957f7c6a12ea16e26","6622cccc292d6e4f66108883","fixation cross","null","","","","","","","","","","","",""
"","1300","html-keyboard-response","239","262865","0.0-13.0-1.9","8kYGdQMenz","5adfcb03f6b58c0001fa9083","6617fad957f7c6a12ea16e26","6622cccc292d6e4f66108883","image grid","q","","","","","Ontogenetic_Distractor_Threat_target","2500","ongrid","q","6","Ontogenetic","true","experimental"
"","null","html-keyboard-response","240","263019","0.0-13.0-2.9","8kYGdQMenz","5adfcb03f6b58c0001fa9083","6617fad957f7c6a12ea16e26","6622cccc292d6e4f66108883","
    <div id=""grid-container"">
        <!-- Grid items will be dynamically added here -->
    </div>    ","null","","","","","","","","","","","",""
"","null","html-keyboard-response","241","263736","0.0-13.0-0.10","8kYGdQMenz","5adfcb03f6b58c0001fa9083","6617fad957f7c6a12ea16e26","6622cccc292d6e4f66108883","fixation cross","null","","","","","","","","","","","",""
"","1468","html-keyboard-response","242","265204","0.0-13.0-1.10","8kYGdQMenz","5adfcb03f6b58c0001fa9083","6617fad957f7c6a12ea16e26","6622cccc292d6e4f66108883","image grid","p","","","","","Ontogenetic_Distractor_Nonthreat_target","2500","ongrid","p","7","Ontogenetic","true","experimental"
"","null","html-keyboard-response","243","265367","0.0-13.0-2.10","8kYGdQMenz","5adfcb03f6b58c0001fa9083","6617fad957f7c6a12ea16e26","6622cccc292d6e4f66108883","
    <div id=""grid-container"">
        <!-- Grid items will be dynamically added here -->
    </div>    ","null","","","","","","","","","","","",""
"","null","html-keyboard-response","244","266096","0.0-13.0-0.11","8kYGdQMenz","5adfcb03f6b58c0001fa9083","6617fad957f7c6a12ea16e26","6622cccc292d6e4f66108883","fixation cross","null","","","","","","","","","","","",""
"","1026","html-keyboard-response","245","267122","0.0-13.0-1.11","8kYGdQMenz","5adfcb03f6b58c0001fa9083","6617fad957f7c6a12ea16e26","6622cccc292d6e4f66108883","image grid","q","","","","","Ontogenetic_Distractor_Threat_target","2500","ongrid","q","2","Ontogenetic","true","experimental"
"","null","html-keyboard-response","246","267279","0.0-13.0-2.11","8kYGdQMenz","5adfcb03f6b58c0001fa9083","6617fad957f7c6a12ea16e26","6622cccc292d6e4f66108883","
    <div id=""grid-container"">
        <!-- Grid items will be dynamically added here -->
    </div>    ","null","","","","","","","","","","","",""
"","null","html-keyboard-response","247","267994","0.0-13.0-0.12","8kYGdQMenz","5adfcb03f6b58c0001fa9083","6617fad957f7c6a12ea16e26","6622cccc292d6e4f66108883","fixation cross","null","","","","","","","","","","","",""
"","1266","html-keyboard-response","248","269261","0.0-13.0-1.12","8kYGdQMenz","5adfcb03f6b58c0001fa9083","6617fad957f7c6a12ea16e26","6622cccc292d6e4f66108883","image grid","q","","","","","Ontogenetic_Distractor_Threat_target","2500","ongrid","q","2","Ontogenetic","true","experimental"
"","null","html-keyboard-response","249","269416","0.0-13.0-2.12","8kYGdQMenz","5adfcb03f6b58c0001fa9083","6617fad957f7c6a12ea16e26","6622cccc292d6e4f66108883","
    <div id=""grid-container"">
        <!-- Grid items will be dynamically added here -->
    </div>    ","null","","","","","","","","","","","",""
"","null","html-keyboard-response","250","270132","0.0-13.0-0.13","8kYGdQMenz","5adfcb03f6b58c0001fa9083","6617fad957f7c6a12ea16e26","6622cccc292d6e4f66108883","fixation cross","null","","","","","","","","","","","",""
"","1272","html-keyboard-response","251","271405","0.0-13.0-1.13","8kYGdQMenz","5adfcb03f6b58c0001fa9083","6617fad957f7c6a12ea16e26","6622cccc292d6e4f66108883","image grid","q","","","","","Ontogenetic_Distractor_Threat_target","2500","ongrid","q","9","Ontogenetic","true","experimental"
"","null","html-keyboard-response","252","271568","0.0-13.0-2.13","8kYGdQMenz","5adfcb03f6b58c0001fa9083","6617fad957f7c6a12ea16e26","6622cccc292d6e4f66108883","
    <div id=""grid-container"">
        <!-- Grid items will be dynamically added here -->
    </div>    ","null","","","","","","","","","","","",""
"","null","html-keyboard-response","253","272287","0.0-13.0-0.14","8kYGdQMenz","5adfcb03f6b58c0001fa9083","6617fad957f7c6a12ea16e26","6622cccc292d6e4f66108883","fixation cross","null","","","","","","","","","","","",""
"","1478","html-keyboard-response","254","273765","0.0-13.0-1.14","8kYGdQMenz","5adfcb03f6b58c0001fa9083","6617fad957f7c6a12ea16e26","6622cccc292d6e4f66108883","image grid","q","","","","","Ontogenetic_Distractor_Threat_target","2500","ongrid","q","4","Ontogenetic","true","experimental"
"","null","html-keyboard-response","255","273922","0.0-13.0-2.14","8kYGdQMenz","5adfcb03f6b58c0001fa9083","6617fad957f7c6a12ea16e26","6622cccc292d6e4f66108883","
    <div id=""grid-container"">
        <!-- Grid items will be dynamically added here -->
    </div>    ","null","","","","","","","","","","","",""
"","null","html-keyboard-response","256","274638","0.0-13.0-0.15","8kYGdQMenz","5adfcb03f6b58c0001fa9083","6617fad957f7c6a12ea16e26","6622cccc292d6e4f66108883","fixation cross","null","","","","","","","","","","","",""
"","1636","html-keyboard-response","257","276274","0.0-13.0-1.15","8kYGdQMenz","5adfcb03f6b58c0001fa9083","6617fad957f7c6a12ea16e26","6622cccc292d6e4f66108883","image grid"," ","","","","","Ontogenetic_Distractor_notarget","2500","ongrid"," ","5","Ontogenetic","true","experimental"
"","null","html-keyboard-response","258","276440","0.0-13.0-2.15","8kYGdQMenz","5adfcb03f6b58c0001fa9083","6617fad957f7c6a12ea16e26","6622cccc292d6e4f66108883","
    <div id=""grid-container"">
        <!-- Grid items will be dynamically added here -->
    </div>    ","null","","","","","","","","","","","",""
"","null","html-keyboard-response","259","277158","0.0-13.0-0.16","8kYGdQMenz","5adfcb03f6b58c0001fa9083","6617fad957f7c6a12ea16e26","6622cccc292d6e4f66108883","fixation cross","null","","","","","","","","","","","",""
"","1050","html-keyboard-response","260","278208","0.0-13.0-1.16","8kYGdQMenz","5adfcb03f6b58c0001fa9083","6617fad957f7c6a12ea16e26","6622cccc292d6e4f66108883","image grid","p","","","","","Ontogenetic_Distractor_Nonthreat_target","2500","ongrid","p","5","Ontogenetic","true","experimental"
"","null","html-keyboard-response","261","278374","0.0-13.0-2.16","8kYGdQMenz","5adfcb03f6b58c0001fa9083","6617fad957f7c6a12ea16e26","6622cccc292d6e4f66108883","
    <div id=""grid-container"">
        <!-- Grid items will be dynamically added here -->
    </div>    ","null","","","","","","","","","","","",""
"","null","html-keyboard-response","262","279091","0.0-13.0-0.17","8kYGdQMenz","5adfcb03f6b58c0001fa9083","6617fad957f7c6a12ea16e26","6622cccc292d6e4f66108883","fixation cross","null","","","","","","","","","","","",""
"","1350","html-keyboard-response","263","280441","0.0-13.0-1.17","8kYGdQMenz","5adfcb03f6b58c0001fa9083","6617fad957f7c6a12ea16e26","6622cccc292d6e4f66108883","image grid","p","","","","","Ontogenetic_Distractor_Nonthreat_target","2500","ongrid","p","7","Ontogenetic","true","experimental"
"","null","html-keyboard-response","264","280602","0.0-13.0-2.17","8kYGdQMenz","5adfcb03f6b58c0001fa9083","6617fad957f7c6a12ea16e26","6622cccc292d6e4f66108883","
    <div id=""grid-container"">
        <!-- Grid items will be dynamically added here -->
    </div>    ","null","","","","","","","","","","","",""
"","null","html-keyboard-response","265","281316","0.0-13.0-0.18","8kYGdQMenz","5adfcb03f6b58c0001fa9083","6617fad957f7c6a12ea16e26","6622cccc292d6e4f66108883","fixation cross","null","","","","","","","","","","","",""
"","1199","html-keyboard-response","266","282516","0.0-13.0-1.18","8kYGdQMenz","5adfcb03f6b58c0001fa9083","6617fad957f7c6a12ea16e26","6622cccc292d6e4f66108883","image grid","p","","","","","Ontogenetic_Distractor_Nonthreat_target","2500","ongrid","p","8","Ontogenetic","true","experimental"
"","null","html-keyboard-response","267","282677","0.0-13.0-2.18","8kYGdQMenz","5adfcb03f6b58c0001fa9083","6617fad957f7c6a12ea16e26","6622cccc292d6e4f66108883","
    <div id=""grid-container"">
        <!-- Grid items will be dynamically added here -->
    </div>    ","null","","","","","","","","","","","",""
"","null","html-keyboard-response","268","283393","0.0-13.0-0.19","8kYGdQMenz","5adfcb03f6b58c0001fa9083","6617fad957f7c6a12ea16e26","6622cccc292d6e4f66108883","fixation cross","null","","","","","","","","","","","",""
"","1237","html-keyboard-response","269","284631","0.0-13.0-1.19","8kYGdQMenz","5adfcb03f6b58c0001fa9083","6617fad957f7c6a12ea16e26","6622cccc292d6e4f66108883","image grid","p","","","","","Ontogenetic_Distractor_Nonthreat_target","2500","ongrid","p","5","Ontogenetic","true","experimental"
"","null","html-keyboard-response","270","284797","0.0-13.0-2.19","8kYGdQMenz","5adfcb03f6b58c0001fa9083","6617fad957f7c6a12ea16e26","6622cccc292d6e4f66108883","
    <div id=""grid-container"">
        <!-- Grid items will be dynamically added here -->
    </div>    ","null","","","","","","","","","","","",""
"","null","html-keyboard-response","271","285512","0.0-13.0-0.20","8kYGdQMenz","5adfcb03f6b58c0001fa9083","6617fad957f7c6a12ea16e26","6622cccc292d6e4f66108883","fixation cross","null","","","","","","","","","","","",""
"","1028","html-keyboard-response","272","286541","0.0-13.0-1.20","8kYGdQMenz","5adfcb03f6b58c0001fa9083","6617fad957f7c6a12ea16e26","6622cccc292d6e4f66108883","image grid","p","","","","","Ontogenetic_Distractor_Nonthreat_target","2500","ongrid","p","9","Ontogenetic","true","experimental"
"","null","html-keyboard-response","273","286694","0.0-13.0-2.20","8kYGdQMenz","5adfcb03f6b58c0001fa9083","6617fad957f7c6a12ea16e26","6622cccc292d6e4f66108883","
    <div id=""grid-container"">
        <!-- Grid items will be dynamically added here -->
    </div>    ","null","","","","","","","","","","","",""
"","null","html-keyboard-response","274","287409","0.0-13.0-0.21","8kYGdQMenz","5adfcb03f6b58c0001fa9083","6617fad957f7c6a12ea16e26","6622cccc292d6e4f66108883","fixation cross","null","","","","","","","","","","","",""
"","973","html-keyboard-response","275","288383","0.0-13.0-1.21","8kYGdQMenz","5adfcb03f6b58c0001fa9083","6617fad957f7c6a12ea16e26","6622cccc292d6e4f66108883","image grid","p","","","","","Ontogenetic_Distractor_Nonthreat_target","2500","ongrid","p","5","Ontogenetic","true","experimental"
"","null","html-keyboard-response","276","288549","0.0-13.0-2.21","8kYGdQMenz","5adfcb03f6b58c0001fa9083","6617fad957f7c6a12ea16e26","6622cccc292d6e4f66108883","
    <div id=""grid-container"">
        <!-- Grid items will be dynamically added here -->
    </div>    ","null","","","","","","","","","","","",""
"","null","html-keyboard-response","277","289266","0.0-13.0-0.22","8kYGdQMenz","5adfcb03f6b58c0001fa9083","6617fad957f7c6a12ea16e26","6622cccc292d6e4f66108883","fixation cross","null","","","","","","","","","","","",""
"","1155","html-keyboard-response","278","290422","0.0-13.0-1.22","8kYGdQMenz","5adfcb03f6b58c0001fa9083","6617fad957f7c6a12ea16e26","6622cccc292d6e4f66108883","image grid","q","","","","","Ontogenetic_Distractor_Threat_target","2500","ongrid","q","5","Ontogenetic","true","experimental"
"","null","html-keyboard-response","279","290574","0.0-13.0-2.22","8kYGdQMenz","5adfcb03f6b58c0001fa9083","6617fad957f7c6a12ea16e26","6622cccc292d6e4f66108883","
    <div id=""grid-container"">
        <!-- Grid items will be dynamically added here -->
    </div>    ","null","","","","","","","","","","","",""
"","null","html-keyboard-response","280","291289","0.0-13.0-0.23","8kYGdQMenz","5adfcb03f6b58c0001fa9083","6617fad957f7c6a12ea16e26","6622cccc292d6e4f66108883","fixation cross","null","","","","","","","","","","","",""
"","1155","html-keyboard-response","281","292445","0.0-13.0-1.23","8kYGdQMenz","5adfcb03f6b58c0001fa9083","6617fad957f7c6a12ea16e26","6622cccc292d6e4f66108883","image grid","p","","","","","Ontogenetic_Distractor_Nonthreat_target","2500","ongrid","p","2","Ontogenetic","true","experimental"
"","null","html-keyboard-response","282","292610","0.0-13.0-2.23","8kYGdQMenz","5adfcb03f6b58c0001fa9083","6617fad957f7c6a12ea16e26","6622cccc292d6e4f66108883","
    <div id=""grid-container"">
        <!-- Grid items will be dynamically added here -->
    </div>    ","null","","","","","","","","","","","",""
"","null","html-keyboard-response","283","293313","0.0-13.0-0.24","8kYGdQMenz","5adfcb03f6b58c0001fa9083","6617fad957f7c6a12ea16e26","6622cccc292d6e4f66108883","fixation cross","null","","","","","","","","","","","",""
"","1242","html-keyboard-response","284","294556","0.0-13.0-1.24","8kYGdQMenz","5adfcb03f6b58c0001fa9083","6617fad957f7c6a12ea16e26","6622cccc292d6e4f66108883","image grid","q","","","","","Ontogenetic_Distractor_Threat_target","2500","ongrid","q","4","Ontogenetic","true","experimental"
"","null","html-keyboard-response","285","294717","0.0-13.0-2.24","8kYGdQMenz","5adfcb03f6b58c0001fa9083","6617fad957f7c6a12ea16e26","6622cccc292d6e4f66108883","
    <div id=""grid-container"">
        <!-- Grid items will be dynamically added here -->
    </div>    ","null","","","","","","","","","","","",""
"","null","html-keyboard-response","286","295442","0.0-13.0-0.25","8kYGdQMenz","5adfcb03f6b58c0001fa9083","6617fad957f7c6a12ea16e26","6622cccc292d6e4f66108883","fixation cross","null","","","","","","","","","","","",""
"","1138","html-keyboard-response","287","296580","0.0-13.0-1.25","8kYGdQMenz","5adfcb03f6b58c0001fa9083","6617fad957f7c6a12ea16e26","6622cccc292d6e4f66108883","image grid","q","","","","","Ontogenetic_Distractor_Threat_target","2500","ongrid","q","4","Ontogenetic","true","experimental"
"","null","html-keyboard-response","288","296738","0.0-13.0-2.25","8kYGdQMenz","5adfcb03f6b58c0001fa9083","6617fad957f7c6a12ea16e26","6622cccc292d6e4f66108883","
    <div id=""grid-container"">
        <!-- Grid items will be dynamically added here -->
    </div>    ","null","","","","","","","","","","","",""
"","null","html-keyboard-response","289","297464","0.0-13.0-0.26","8kYGdQMenz","5adfcb03f6b58c0001fa9083","6617fad957f7c6a12ea16e26","6622cccc292d6e4f66108883","fixation cross","null","","","","","","","","","","","",""
"","1059","html-keyboard-response","290","298523","0.0-13.0-1.26","8kYGdQMenz","5adfcb03f6b58c0001fa9083","6617fad957f7c6a12ea16e26","6622cccc292d6e4f66108883","image grid","q","","","","","Ontogenetic_Distractor_Threat_target","2500","ongrid","q","2","Ontogenetic","true","experimental"
"","null","html-keyboard-response","291","298676","0.0-13.0-2.26","8kYGdQMenz","5adfcb03f6b58c0001fa9083","6617fad957f7c6a12ea16e26","6622cccc292d6e4f66108883","
    <div id=""grid-container"">
        <!-- Grid items will be dynamically added here -->
    </div>    ","null","","","","","","","","","","","",""
"","null","html-keyboard-response","292","299391","0.0-13.0-0.27","8kYGdQMenz","5adfcb03f6b58c0001fa9083","6617fad957f7c6a12ea16e26","6622cccc292d6e4f66108883","fixation cross","null","","","","","","","","","","","",""
"","1093","html-keyboard-response","293","300484","0.0-13.0-1.27","8kYGdQMenz","5adfcb03f6b58c0001fa9083","6617fad957f7c6a12ea16e26","6622cccc292d6e4f66108883","image grid","p","","","","","Ontogenetic_Distractor_Nonthreat_target","2500","ongrid","p","8","Ontogenetic","true","experimental"
"","null","html-keyboard-response","294","300650","0.0-13.0-2.27","8kYGdQMenz","5adfcb03f6b58c0001fa9083","6617fad957f7c6a12ea16e26","6622cccc292d6e4f66108883","
    <div id=""grid-container"">
        <!-- Grid items will be dynamically added here -->
    </div>    ","null","","","","","","","","","","","",""
"","null","html-keyboard-response","295","301377","0.0-13.0-0.28","8kYGdQMenz","5adfcb03f6b58c0001fa9083","6617fad957f7c6a12ea16e26","6622cccc292d6e4f66108883","fixation cross","null","","","","","","","","","","","",""
"","1142","html-keyboard-response","296","302521","0.0-13.0-1.28","8kYGdQMenz","5adfcb03f6b58c0001fa9083","6617fad957f7c6a12ea16e26","6622cccc292d6e4f66108883","image grid","q","","","","","Ontogenetic_Distractor_Threat_target","2500","ongrid","q","6","Ontogenetic","true","experimental"
"","null","html-keyboard-response","297","302674","0.0-13.0-2.28","8kYGdQMenz","5adfcb03f6b58c0001fa9083","6617fad957f7c6a12ea16e26","6622cccc292d6e4f66108883","
    <div id=""grid-container"">
        <!-- Grid items will be dynamically added here -->
    </div>    ","null","","","","","","","","","","","",""
"","null","html-keyboard-response","298","303392","0.0-13.0-0.29","8kYGdQMenz","5adfcb03f6b58c0001fa9083","6617fad957f7c6a12ea16e26","6622cccc292d6e4f66108883","fixation cross","null","","","","","","","","","","","",""
"","1013","html-keyboard-response","299","304405","0.0-13.0-1.29","8kYGdQMenz","5adfcb03f6b58c0001fa9083","6617fad957f7c6a12ea16e26","6622cccc292d6e4f66108883","image grid","q","","","","","Ontogenetic_Distractor_Threat_target","2500","ongrid","q","1","Ontogenetic","true","experimental"
"","null","html-keyboard-response","300","304559","0.0-13.0-2.29","8kYGdQMenz","5adfcb03f6b58c0001fa9083","6617fad957f7c6a12ea16e26","6622cccc292d6e4f66108883","
    <div id=""grid-container"">
        <!-- Grid items will be dynamically added here -->
    </div>    ","null","","","","","","","","","","","",""
"","null","html-keyboard-response","301","305274","0.0-13.0-0.30","8kYGdQMenz","5adfcb03f6b58c0001fa9083","6617fad957f7c6a12ea16e26","6622cccc292d6e4f66108883","fixation cross","null","","","","","","","","","","","",""
"","1160","html-keyboard-response","302","306435","0.0-13.0-1.30","8kYGdQMenz","5adfcb03f6b58c0001fa9083","6617fad957f7c6a12ea16e26","6622cccc292d6e4f66108883","image grid","q","","","","","Ontogenetic_Distractor_Threat_target","2500","ongrid","q","2","Ontogenetic","true","experimental"
"","null","html-keyboard-response","303","306598","0.0-13.0-2.30","8kYGdQMenz","5adfcb03f6b58c0001fa9083","6617fad957f7c6a12ea16e26","6622cccc292d6e4f66108883","
    <div id=""grid-container"">
        <!-- Grid items will be dynamically added here -->
    </div>    ","null","","","","","","","","","","","",""
"","null","html-keyboard-response","304","307326","0.0-13.0-0.31","8kYGdQMenz","5adfcb03f6b58c0001fa9083","6617fad957f7c6a12ea16e26","6622cccc292d6e4f66108883","fixation cross","null","","","","","","","","","","","",""
"","1302","html-keyboard-response","305","308628","0.0-13.0-1.31","8kYGdQMenz","5adfcb03f6b58c0001fa9083","6617fad957f7c6a12ea16e26","6622cccc292d6e4f66108883","image grid","p","","","","","Ontogenetic_Distractor_Nonthreat_target","2500","ongrid","p","7","Ontogenetic","true","experimental"
"","null","html-keyboard-response","306","308794","0.0-13.0-2.31","8kYGdQMenz","5adfcb03f6b58c0001fa9083","6617fad957f7c6a12ea16e26","6622cccc292d6e4f66108883","
    <div id=""grid-container"">
        <!-- Grid items will be dynamically added here -->
    </div>    ","null","","","","","","","","","","","",""
"","null","html-keyboard-response","307","309507","0.0-13.0-0.32","8kYGdQMenz","5adfcb03f6b58c0001fa9083","6617fad957f7c6a12ea16e26","6622cccc292d6e4f66108883","fixation cross","null","","","","","","","","","","","",""
"","1315","html-keyboard-response","308","310822","0.0-13.0-1.32","8kYGdQMenz","5adfcb03f6b58c0001fa9083","6617fad957f7c6a12ea16e26","6622cccc292d6e4f66108883","image grid","p","","","","","Ontogenetic_Distractor_Nonthreat_target","2500","ongrid","p","4","Ontogenetic","true","experimental"
"","null","html-keyboard-response","309","310975","0.0-13.0-2.32","8kYGdQMenz","5adfcb03f6b58c0001fa9083","6617fad957f7c6a12ea16e26","6622cccc292d6e4f66108883","
    <div id=""grid-container"">
        <!-- Grid items will be dynamically added here -->
    </div>    ","null","","","","","","","","","","","",""
"","null","html-keyboard-response","310","311701","0.0-13.0-0.33","8kYGdQMenz","5adfcb03f6b58c0001fa9083","6617fad957f7c6a12ea16e26","6622cccc292d6e4f66108883","fixation cross","null","","","","","","","","","","","",""
"","999","html-keyboard-response","311","312701","0.0-13.0-1.33","8kYGdQMenz","5adfcb03f6b58c0001fa9083","6617fad957f7c6a12ea16e26","6622cccc292d6e4f66108883","image grid","p","","","","","Ontogenetic_Distractor_Nonthreat_target","2500","ongrid","p","1","Ontogenetic","true","experimental"
"","null","html-keyboard-response","312","312854","0.0-13.0-2.33","8kYGdQMenz","5adfcb03f6b58c0001fa9083","6617fad957f7c6a12ea16e26","6622cccc292d6e4f66108883","
    <div id=""grid-container"">
        <!-- Grid items will be dynamically added here -->
    </div>    ","null","","","","","","","","","","","",""
"","null","html-keyboard-response","313","313583","0.0-13.0-0.34","8kYGdQMenz","5adfcb03f6b58c0001fa9083","6617fad957f7c6a12ea16e26","6622cccc292d6e4f66108883","fixation cross","null","","","","","","","","","","","",""
"","1170","html-keyboard-response","314","314754","0.0-13.0-1.34","8kYGdQMenz","5adfcb03f6b58c0001fa9083","6617fad957f7c6a12ea16e26","6622cccc292d6e4f66108883","image grid","p","","","","","Ontogenetic_Distractor_Nonthreat_target","2500","ongrid","p","9","Ontogenetic","true","experimental"
"","null","html-keyboard-response","315","314909","0.0-13.0-2.34","8kYGdQMenz","5adfcb03f6b58c0001fa9083","6617fad957f7c6a12ea16e26","6622cccc292d6e4f66108883","
    <div id=""grid-container"">
        <!-- Grid items will be dynamically added here -->
    </div>    ","null","","","","","","","","","","","",""
"","null","html-keyboard-response","316","315623","0.0-13.0-0.35","8kYGdQMenz","5adfcb03f6b58c0001fa9083","6617fad957f7c6a12ea16e26","6622cccc292d6e4f66108883","fixation cross","null","","","","","","","","","","","",""
"","1234","html-keyboard-response","317","316857","0.0-13.0-1.35","8kYGdQMenz","5adfcb03f6b58c0001fa9083","6617fad957f7c6a12ea16e26","6622cccc292d6e4f66108883","image grid","q","","","","","Ontogenetic_Distractor_Threat_target","2500","ongrid","q","1","Ontogenetic","true","experimental"
"","null","html-keyboard-response","318","317011","0.0-13.0-2.35","8kYGdQMenz","5adfcb03f6b58c0001fa9083","6617fad957f7c6a12ea16e26","6622cccc292d6e4f66108883","
    <div id=""grid-container"">
        <!-- Grid items will be dynamically added here -->
    </div>    ","null","","","","","","","","","","","",""
"","null","html-keyboard-response","319","317723","0.0-13.0-0.36","8kYGdQMenz","5adfcb03f6b58c0001fa9083","6617fad957f7c6a12ea16e26","6622cccc292d6e4f66108883","fixation cross","null","","","","","","","","","","","",""
"","1671","html-keyboard-response","320","319395","0.0-13.0-1.36","8kYGdQMenz","5adfcb03f6b58c0001fa9083","6617fad957f7c6a12ea16e26","6622cccc292d6e4f66108883","image grid"," ","","","","","Ontogenetic_Distractor_notarget","2500","ongrid"," ","1","Ontogenetic","true","experimental"
"","null","html-keyboard-response","321","319560","0.0-13.0-2.36","8kYGdQMenz","5adfcb03f6b58c0001fa9083","6617fad957f7c6a12ea16e26","6622cccc292d6e4f66108883","
    <div id=""grid-container"">
        <!-- Grid items will be dynamically added here -->
    </div>    ","null","","","","","","","","","","","",""
"","null","html-keyboard-response","322","320276","0.0-13.0-0.37","8kYGdQMenz","5adfcb03f6b58c0001fa9083","6617fad957f7c6a12ea16e26","6622cccc292d6e4f66108883","fixation cross","null","","","","","","","","","","","",""
"","1121","html-keyboard-response","323","321397","0.0-13.0-1.37","8kYGdQMenz","5adfcb03f6b58c0001fa9083","6617fad957f7c6a12ea16e26","6622cccc292d6e4f66108883","image grid","q","","","","","Ontogenetic_Distractor_Threat_target","2500","ongrid","q","6","Ontogenetic","true","experimental"
"","null","html-keyboard-response","324","321556","0.0-13.0-2.37","8kYGdQMenz","5adfcb03f6b58c0001fa9083","6617fad957f7c6a12ea16e26","6622cccc292d6e4f66108883","
    <div id=""grid-container"">
        <!-- Grid items will be dynamically added here -->
    </div>    ","null","","","","","","","","","","","",""
"","null","html-keyboard-response","325","322271","0.0-13.0-0.38","8kYGdQMenz","5adfcb03f6b58c0001fa9083","6617fad957f7c6a12ea16e26","6622cccc292d6e4f66108883","fixation cross","null","","","","","","","","","","","",""
"","1262","html-keyboard-response","326","323534","0.0-13.0-1.38","8kYGdQMenz","5adfcb03f6b58c0001fa9083","6617fad957f7c6a12ea16e26","6622cccc292d6e4f66108883","image grid","q","","","","","Ontogenetic_Distractor_Threat_target","2500","ongrid","q","7","Ontogenetic","true","experimental"
"","null","html-keyboard-response","327","323688","0.0-13.0-2.38","8kYGdQMenz","5adfcb03f6b58c0001fa9083","6617fad957f7c6a12ea16e26","6622cccc292d6e4f66108883","
    <div id=""grid-container"">
        <!-- Grid items will be dynamically added here -->
    </div>    ","null","","","","","","","","","","","",""
"","null","html-keyboard-response","328","324403","0.0-13.0-0.39","8kYGdQMenz","5adfcb03f6b58c0001fa9083","6617fad957f7c6a12ea16e26","6622cccc292d6e4f66108883","fixation cross","null","","","","","","","","","","","",""
"","977","html-keyboard-response","329","325382","0.0-13.0-1.39","8kYGdQMenz","5adfcb03f6b58c0001fa9083","6617fad957f7c6a12ea16e26","6622cccc292d6e4f66108883","image grid","p","","","","","Ontogenetic_Distractor_Nonthreat_target","2500","ongrid","p","9","Ontogenetic","true","experimental"
"","null","html-keyboard-response","330","325537","0.0-13.0-2.39","8kYGdQMenz","5adfcb03f6b58c0001fa9083","6617fad957f7c6a12ea16e26","6622cccc292d6e4f66108883","
    <div id=""grid-container"">
        <!-- Grid items will be dynamically added here -->
    </div>    ","null","","","","","","","","","","","",""
"","979","html-keyboard-response","331","326733","0.0-14.0","8kYGdQMenz","5adfcb03f6b58c0001fa9083","6617fad957f7c6a12ea16e26","6622cccc292d6e4f66108883","break screen"," ","","","","","","","","","","","",""
"","null","html-keyboard-response","332","329259","0.0-15.0-0.0","8kYGdQMenz","5adfcb03f6b58c0001fa9083","6617fad957f7c6a12ea16e26","6622cccc292d6e4f66108883","fixation cross","null","","","","","","","","","","","",""
"","1750","html-keyboard-response","333","331009","0.0-15.0-1.0","8kYGdQMenz","5adfcb03f6b58c0001fa9083","6617fad957f7c6a12ea16e26","6622cccc292d6e4f66108883","image grid"," ","","","","","Ontogenetic_Distractor_notarget","2500","ongrid"," ","2","Ontogenetic","true","experimental"
"","null","html-keyboard-response","334","331162","0.0-15.0-2.0","8kYGdQMenz","5adfcb03f6b58c0001fa9083","6617fad957f7c6a12ea16e26","6622cccc292d6e4f66108883","
    <div id=""grid-container"">
        <!-- Grid items will be dynamically added here -->
    </div>    ","null","","","","","","","","","","","",""
"","null","html-keyboard-response","335","331878","0.0-15.0-0.1","8kYGdQMenz","5adfcb03f6b58c0001fa9083","6617fad957f7c6a12ea16e26","6622cccc292d6e4f66108883","fixation cross","null","","","","","","","","","","","",""
"","1288","html-keyboard-response","336","333167","0.0-15.0-1.1","8kYGdQMenz","5adfcb03f6b58c0001fa9083","6617fad957f7c6a12ea16e26","6622cccc292d6e4f66108883","image grid","q","","","","","Ontogenetic_Distractor_Threat_target","2500","ongrid","q","5","Ontogenetic","true","experimental"
"","null","html-keyboard-response","337","333327","0.0-15.0-2.1","8kYGdQMenz","5adfcb03f6b58c0001fa9083","6617fad957f7c6a12ea16e26","6622cccc292d6e4f66108883","
    <div id=""grid-container"">
        <!-- Grid items will be dynamically added here -->
    </div>    ","null","","","","","","","","","","","",""
"","null","html-keyboard-response","338","334034","0.0-15.0-0.2","8kYGdQMenz","5adfcb03f6b58c0001fa9083","6617fad957f7c6a12ea16e26","6622cccc292d6e4f66108883","fixation cross","null","","","","","","","","","","","",""
"","1196","html-keyboard-response","339","335230","0.0-15.0-1.2","8kYGdQMenz","5adfcb03f6b58c0001fa9083","6617fad957f7c6a12ea16e26","6622cccc292d6e4f66108883","image grid","q","","","","","Ontogenetic_Distractor_Threat_target","2500","ongrid","q","4","Ontogenetic","true","experimental"
"","null","html-keyboard-response","340","335392","0.0-15.0-2.2","8kYGdQMenz","5adfcb03f6b58c0001fa9083","6617fad957f7c6a12ea16e26","6622cccc292d6e4f66108883","
    <div id=""grid-container"">
        <!-- Grid items will be dynamically added here -->
    </div>    ","null","","","","","","","","","","","",""
"","null","html-keyboard-response","341","336104","0.0-15.0-0.3","8kYGdQMenz","5adfcb03f6b58c0001fa9083","6617fad957f7c6a12ea16e26","6622cccc292d6e4f66108883","fixation cross","null","","","","","","","","","","","",""
"","1095","html-keyboard-response","342","337199","0.0-15.0-1.3","8kYGdQMenz","5adfcb03f6b58c0001fa9083","6617fad957f7c6a12ea16e26","6622cccc292d6e4f66108883","image grid","p","","","","","Ontogenetic_Distractor_Nonthreat_target","2500","ongrid","p","1","Ontogenetic","true","experimental"
"","null","html-keyboard-response","343","337356","0.0-15.0-2.3","8kYGdQMenz","5adfcb03f6b58c0001fa9083","6617fad957f7c6a12ea16e26","6622cccc292d6e4f66108883","
    <div id=""grid-container"">
        <!-- Grid items will be dynamically added here -->
    </div>    ","null","","","","","","","","","","","",""
"","null","html-keyboard-response","344","338066","0.0-15.0-0.4","8kYGdQMenz","5adfcb03f6b58c0001fa9083","6617fad957f7c6a12ea16e26","6622cccc292d6e4f66108883","fixation cross","null","","","","","","","","","","","",""
"","1906","html-keyboard-response","345","339972","0.0-15.0-1.4","8kYGdQMenz","5adfcb03f6b58c0001fa9083","6617fad957f7c6a12ea16e26","6622cccc292d6e4f66108883","image grid"," ","","","","","Ontogenetic_Distractor_Nonthreat_target","2500","ongrid","p","2","Ontogenetic","false","experimental"
"","null","html-keyboard-response","346","340137","0.0-15.0-2.4","8kYGdQMenz","5adfcb03f6b58c0001fa9083","6617fad957f7c6a12ea16e26","6622cccc292d6e4f66108883","
    <div id=""grid-container"">
        <!-- Grid items will be dynamically added here -->
    </div>    ","null","","","","","","","","","","","",""
"","null","html-keyboard-response","347","340851","0.0-15.0-0.5","8kYGdQMenz","5adfcb03f6b58c0001fa9083","6617fad957f7c6a12ea16e26","6622cccc292d6e4f66108883","fixation cross","null","","","","","","","","","","","",""
"","954","html-keyboard-response","348","341806","0.0-15.0-1.5","8kYGdQMenz","5adfcb03f6b58c0001fa9083","6617fad957f7c6a12ea16e26","6622cccc292d6e4f66108883","image grid","p","","","","","Ontogenetic_Distractor_Nonthreat_target","2500","ongrid","p","9","Ontogenetic","true","experimental"
"","null","html-keyboard-response","349","341957","0.0-15.0-2.5","8kYGdQMenz","5adfcb03f6b58c0001fa9083","6617fad957f7c6a12ea16e26","6622cccc292d6e4f66108883","
    <div id=""grid-container"">
        <!-- Grid items will be dynamically added here -->
    </div>    ","null","","","","","","","","","","","",""
"","null","html-keyboard-response","350","342671","0.0-15.0-0.6","8kYGdQMenz","5adfcb03f6b58c0001fa9083","6617fad957f7c6a12ea16e26","6622cccc292d6e4f66108883","fixation cross","null","","","","","","","","","","","",""
"","1073","html-keyboard-response","351","343745","0.0-15.0-1.6","8kYGdQMenz","5adfcb03f6b58c0001fa9083","6617fad957f7c6a12ea16e26","6622cccc292d6e4f66108883","image grid","q","","","","","Ontogenetic_Distractor_Threat_target","2500","ongrid","q","9","Ontogenetic","true","experimental"
"","null","html-keyboard-response","352","343904","0.0-15.0-2.6","8kYGdQMenz","5adfcb03f6b58c0001fa9083","6617fad957f7c6a12ea16e26","6622cccc292d6e4f66108883","
    <div id=""grid-container"">
        <!-- Grid items will be dynamically added here -->
    </div>    ","null","","","","","","","","","","","",""
"","null","html-keyboard-response","353","344623","0.0-15.0-0.7","8kYGdQMenz","5adfcb03f6b58c0001fa9083","6617fad957f7c6a12ea16e26","6622cccc292d6e4f66108883","fixation cross","null","","","","","","","","","","","",""
"","1208","html-keyboard-response","354","345832","0.0-15.0-1.7","8kYGdQMenz","5adfcb03f6b58c0001fa9083","6617fad957f7c6a12ea16e26","6622cccc292d6e4f66108883","image grid","q","","","","","Ontogenetic_Distractor_Threat_target","2500","ongrid","q","4","Ontogenetic","true","experimental"
"","null","html-keyboard-response","355","345999","0.0-15.0-2.7","8kYGdQMenz","5adfcb03f6b58c0001fa9083","6617fad957f7c6a12ea16e26","6622cccc292d6e4f66108883","
    <div id=""grid-container"">
        <!-- Grid items will be dynamically added here -->
    </div>    ","null","","","","","","","","","","","",""
"","null","html-keyboard-response","356","346713","0.0-15.0-0.8","8kYGdQMenz","5adfcb03f6b58c0001fa9083","6617fad957f7c6a12ea16e26","6622cccc292d6e4f66108883","fixation cross","null","","","","","","","","","","","",""
"","1045","html-keyboard-response","357","347759","0.0-15.0-1.8","8kYGdQMenz","5adfcb03f6b58c0001fa9083","6617fad957f7c6a12ea16e26","6622cccc292d6e4f66108883","image grid","p","","","","","Ontogenetic_Distractor_Nonthreat_target","2500","ongrid","p","1","Ontogenetic","true","experimental"
"","null","html-keyboard-response","358","347915","0.0-15.0-2.8","8kYGdQMenz","5adfcb03f6b58c0001fa9083","6617fad957f7c6a12ea16e26","6622cccc292d6e4f66108883","
    <div id=""grid-container"">
        <!-- Grid items will be dynamically added here -->
    </div>    ","null","","","","","","","","","","","",""
"","null","html-keyboard-response","359","348644","0.0-15.0-0.9","8kYGdQMenz","5adfcb03f6b58c0001fa9083","6617fad957f7c6a12ea16e26","6622cccc292d6e4f66108883","fixation cross","null","","","","","","","","","","","",""
"","1579","html-keyboard-response","360","350224","0.0-15.0-1.9","8kYGdQMenz","5adfcb03f6b58c0001fa9083","6617fad957f7c6a12ea16e26","6622cccc292d6e4f66108883","image grid"," ","","","","","Ontogenetic_Distractor_notarget","2500","ongrid"," ","6","Ontogenetic","true","experimental"
"","null","html-keyboard-response","361","350377","0.0-15.0-2.9","8kYGdQMenz","5adfcb03f6b58c0001fa9083","6617fad957f7c6a12ea16e26","6622cccc292d6e4f66108883","
    <div id=""grid-container"">
        <!-- Grid items will be dynamically added here -->
    </div>    ","null","","","","","","","","","","","",""
"","null","html-keyboard-response","362","351105","0.0-15.0-0.10","8kYGdQMenz","5adfcb03f6b58c0001fa9083","6617fad957f7c6a12ea16e26","6622cccc292d6e4f66108883","fixation cross","null","","","","","","","","","","","",""
"","1310","html-keyboard-response","363","352416","0.0-15.0-1.10","8kYGdQMenz","5adfcb03f6b58c0001fa9083","6617fad957f7c6a12ea16e26","6622cccc292d6e4f66108883","image grid","p","","","","","Ontogenetic_Distractor_Nonthreat_target","2500","ongrid","p","7","Ontogenetic","true","experimental"
"","null","html-keyboard-response","364","352583","0.0-15.0-2.10","8kYGdQMenz","5adfcb03f6b58c0001fa9083","6617fad957f7c6a12ea16e26","6622cccc292d6e4f66108883","
    <div id=""grid-container"">
        <!-- Grid items will be dynamically added here -->
    </div>    ","null","","","","","","","","","","","",""
"","null","html-keyboard-response","365","353309","0.0-15.0-0.11","8kYGdQMenz","5adfcb03f6b58c0001fa9083","6617fad957f7c6a12ea16e26","6622cccc292d6e4f66108883","fixation cross","null","","","","","","","","","","","",""
"","1430","html-keyboard-response","366","354739","0.0-15.0-1.11","8kYGdQMenz","5adfcb03f6b58c0001fa9083","6617fad957f7c6a12ea16e26","6622cccc292d6e4f66108883","image grid","p","","","","","Ontogenetic_Distractor_Nonthreat_target","2500","ongrid","p","9","Ontogenetic","true","experimental"
"","null","html-keyboard-response","367","354902","0.0-15.0-2.11","8kYGdQMenz","5adfcb03f6b58c0001fa9083","6617fad957f7c6a12ea16e26","6622cccc292d6e4f66108883","
    <div id=""grid-container"">
        <!-- Grid items will be dynamically added here -->
    </div>    ","null","","","","","","","","","","","",""
"","null","html-keyboard-response","368","355618","0.0-15.0-0.12","8kYGdQMenz","5adfcb03f6b58c0001fa9083","6617fad957f7c6a12ea16e26","6622cccc292d6e4f66108883","fixation cross","null","","","","","","","","","","","",""
"","997","html-keyboard-response","369","356616","0.0-15.0-1.12","8kYGdQMenz","5adfcb03f6b58c0001fa9083","6617fad957f7c6a12ea16e26","6622cccc292d6e4f66108883","image grid","p","","","","","Ontogenetic_Distractor_Nonthreat_target","2500","ongrid","p","8","Ontogenetic","true","experimental"
