"success","rt","trial_type","trial_index","time_elapsed","internal_node_id","unique_identifier","subject_id","study_id","session_id","stimulus","response","timeout","failed_images","failed_audio","failed_video","task","time_manipulation","respondedwhen","correctresponse","targetimagelocation","blocktype","correct","roundtype"
"true","5953","fullscreen","0","6962","0.0-0.0","jafKRN57pU","65e2d60d637373a334e3e222","6617fad957f7c6a12ea16e26","6622ce8782e1dc7b64367c88","","","","","","","","","","","","","",""
"","5557","html-keyboard-response","1","12526","0.0-1.0","jafKRN57pU","65e2d60d637373a334e3e222","6617fad957f7c6a12ea16e26","6622ce8782e1dc7b64367c88","instruction screen 0"," ","","","","","","","","","","","",""
"true","","preload","2","486351","0.0-2.0","jafKRN57pU","65e2d60d637373a334e3e222","6617fad957f7c6a12ea16e26","6622ce8782e1dc7b64367c88","","","false","[]","[]","[]","","","","","","","",""
"","38124","html-keyboard-response","3","524478","0.0-3.0","jafKRN57pU","65e2d60d637373a334e3e222","6617fad957f7c6a12ea16e26","6622ce8782e1dc7b64367c88","instruction screen 1","enter","","","","","","","","","","","",""
"","26319","html-keyboard-response","4","550881","0.0-4.0","jafKRN57pU","65e2d60d637373a334e3e222","6617fad957f7c6a12ea16e26","6622ce8782e1dc7b64367c88","instruction screen 2","q","","","","","","","","","","","",""
"","8685","html-keyboard-response","5","559669","0.0-5.0","jafKRN57pU","65e2d60d637373a334e3e222","6617fad957f7c6a12ea16e26","6622ce8782e1dc7b64367c88","instruction screen 3","p","","","","","","","","","","","",""
"","14340","html-keyboard-response","6","574111","0.0-6.0","jafKRN57pU","65e2d60d637373a334e3e222","6617fad957f7c6a12ea16e26","6622ce8782e1dc7b64367c88","instruction screen 4"," ","","","","","","","","","","","",""
"","28023","html-keyboard-response","7","602256","0.0-7.0","jafKRN57pU","65e2d60d637373a334e3e222","6617fad957f7c6a12ea16e26","6622ce8782e1dc7b64367c88","instruction screen 5"," ","","","","","","","","","","","",""
"","null","html-keyboard-response","8","602898","0.0-8.0","jafKRN57pU","65e2d60d637373a334e3e222","6617fad957f7c6a12ea16e26","6622ce8782e1dc7b64367c88","fixation cross","null","","","","","","","","","","","",""
"","null","html-keyboard-response","9","603408","0.0-9.0-0.0","jafKRN57pU","65e2d60d637373a334e3e222","6617fad957f7c6a12ea16e26","6622ce8782e1dc7b64367c88","fixation cross","null","","","","","","","","","","","",""
"","2958","html-keyboard-response","10","606373","0.0-9.0-1.0","jafKRN57pU","65e2d60d637373a334e3e222","6617fad957f7c6a12ea16e26","6622ce8782e1dc7b64367c88","image grid"," ","","","","","Phylogenetic_Distractor_Nonthreat_target","3000","ongrid","p","9","Phylogenetic","false","practice"
"","null","html-keyboard-response","11","606612","0.0-9.0-2.0","jafKRN57pU","65e2d60d637373a334e3e222","6617fad957f7c6a12ea16e26","6622ce8782e1dc7b64367c88","
    <div id=""grid-container"">
        <!-- Grid items will be dynamically added here -->
    </div>    ","null","","","","","","","","","","","",""
"","null","html-keyboard-response","12","607836","0.0-9.0-3.0","jafKRN57pU","65e2d60d637373a334e3e222","6617fad957f7c6a12ea16e26","6622ce8782e1dc7b64367c88","feedback screen","null","","","","","","","","","","","",""
"","null","html-keyboard-response","13","608357","0.0-9.0-0.1","jafKRN57pU","65e2d60d637373a334e3e222","6617fad957f7c6a12ea16e26","6622ce8782e1dc7b64367c88","fixation cross","null","","","","","","","","","","","",""
"","null","html-keyboard-response","14","611288","0.0-9.0-1.1","jafKRN57pU","65e2d60d637373a334e3e222","6617fad957f7c6a12ea16e26","6622ce8782e1dc7b64367c88","
        <div id=""grid-container"">
        <!-- Grid items will be dynamically added here -->
    </div>    ","null","","","","","","","","","","","",""
"","3706","html-keyboard-response","15","612095","0.0-9.0-2.1","jafKRN57pU","65e2d60d637373a334e3e222","6617fad957f7c6a12ea16e26","6622ce8782e1dc7b64367c88","mask grid","p","","","","","Phylogenetic_Distractor_Nonthreat_target","2900","onmask","p","6","Phylogenetic","true","practice"
"","null","html-keyboard-response","16","613307","0.0-9.0-3.1","jafKRN57pU","65e2d60d637373a334e3e222","6617fad957f7c6a12ea16e26","6622ce8782e1dc7b64367c88","feedback screen","null","","","","","","","","","","","",""
"","null","html-keyboard-response","17","613828","0.0-9.0-0.2","jafKRN57pU","65e2d60d637373a334e3e222","6617fad957f7c6a12ea16e26","6622ce8782e1dc7b64367c88","fixation cross","null","","","","","","","","","","","",""
"","null","html-keyboard-response","18","616652","0.0-9.0-1.2","jafKRN57pU","65e2d60d637373a334e3e222","6617fad957f7c6a12ea16e26","6622ce8782e1dc7b64367c88","
        <div id=""grid-container"">
        <!-- Grid items will be dynamically added here -->
    </div>    ","null","","","","","","","","","","","",""
"","3085","html-keyboard-response","19","616939","0.0-9.0-2.2","jafKRN57pU","65e2d60d637373a334e3e222","6617fad957f7c6a12ea16e26","6622ce8782e1dc7b64367c88","mask grid"," ","","","","","Phylogenetic_Distractor_notarget","2800","onmask"," ","4","Phylogenetic","true","practice"
"","null","html-keyboard-response","20","618163","0.0-9.0-3.2","jafKRN57pU","65e2d60d637373a334e3e222","6617fad957f7c6a12ea16e26","6622ce8782e1dc7b64367c88","feedback screen","null","","","","","","","","","","","",""
"","null","html-keyboard-response","21","618687","0.0-9.0-0.3","jafKRN57pU","65e2d60d637373a334e3e222","6617fad957f7c6a12ea16e26","6622ce8782e1dc7b64367c88","fixation cross","null","","","","","","","","","","","",""
"","1164","html-keyboard-response","22","619853","0.0-9.0-1.3","jafKRN57pU","65e2d60d637373a334e3e222","6617fad957f7c6a12ea16e26","6622ce8782e1dc7b64367c88","image grid","p","","","","","Ontogenetic_Distractor_Nonthreat_target","2700","ongrid","p","3","Phylogenetic","true","practice"
"","null","html-keyboard-response","23","620024","0.0-9.0-2.3","jafKRN57pU","65e2d60d637373a334e3e222","6617fad957f7c6a12ea16e26","6622ce8782e1dc7b64367c88","
    <div id=""grid-container"">
        <!-- Grid items will be dynamically added here -->
    </div>    ","null","","","","","","","","","","","",""
"","null","html-keyboard-response","24","621246","0.0-9.0-3.3","jafKRN57pU","65e2d60d637373a334e3e222","6617fad957f7c6a12ea16e26","6622ce8782e1dc7b64367c88","feedback screen","null","","","","","","","","","","","",""
"","null","html-keyboard-response","25","621770","0.0-9.0-0.4","jafKRN57pU","65e2d60d637373a334e3e222","6617fad957f7c6a12ea16e26","6622ce8782e1dc7b64367c88","fixation cross","null","","","","","","","","","","","",""
"","null","html-keyboard-response","26","624374","0.0-9.0-1.4","jafKRN57pU","65e2d60d637373a334e3e222","6617fad957f7c6a12ea16e26","6622ce8782e1dc7b64367c88","
        <div id=""grid-container"">
        <!-- Grid items will be dynamically added here -->
    </div>    ","null","","","","","","","","","","","",""
"","5361","html-keyboard-response","27","627136","0.0-9.0-2.4","jafKRN57pU","65e2d60d637373a334e3e222","6617fad957f7c6a12ea16e26","6622ce8782e1dc7b64367c88","mask grid"," ","","","","","Phylogenetic_Distractor_Threat_target","2600","onmask","q","7","Phylogenetic","false","practice"
"","null","html-keyboard-response","28","628368","0.0-9.0-3.4","jafKRN57pU","65e2d60d637373a334e3e222","6617fad957f7c6a12ea16e26","6622ce8782e1dc7b64367c88","feedback screen","null","","","","","","","","","","","",""
"","null","html-keyboard-response","29","628894","0.0-9.0-0.5","jafKRN57pU","65e2d60d637373a334e3e222","6617fad957f7c6a12ea16e26","6622ce8782e1dc7b64367c88","fixation cross","null","","","","","","","","","","","",""
"","1595","html-keyboard-response","30","630491","0.0-9.0-1.5","jafKRN57pU","65e2d60d637373a334e3e222","6617fad957f7c6a12ea16e26","6622ce8782e1dc7b64367c88","image grid","p","","","","","Ontogenetic_Distractor_Threat_target","2500","ongrid","q","9","Phylogenetic","false","practice"
"","null","html-keyboard-response","31","630655","0.0-9.0-2.5","jafKRN57pU","65e2d60d637373a334e3e222","6617fad957f7c6a12ea16e26","6622ce8782e1dc7b64367c88","
    <div id=""grid-container"">
        <!-- Grid items will be dynamically added here -->
    </div>    ","null","","","","","","","","","","","",""
"","null","html-keyboard-response","32","631894","0.0-9.0-3.5","jafKRN57pU","65e2d60d637373a334e3e222","6617fad957f7c6a12ea16e26","6622ce8782e1dc7b64367c88","feedback screen","null","","","","","","","","","","","",""
"","null","html-keyboard-response","33","632420","0.0-9.0-0.6","jafKRN57pU","65e2d60d637373a334e3e222","6617fad957f7c6a12ea16e26","6622ce8782e1dc7b64367c88","fixation cross","null","","","","","","","","","","","",""
"","1282","html-keyboard-response","34","633704","0.0-9.0-1.6","jafKRN57pU","65e2d60d637373a334e3e222","6617fad957f7c6a12ea16e26","6622ce8782e1dc7b64367c88","image grid","q","","","","","Ontogenetic_Distractor_Threat_target","2400","ongrid","q","4","Phylogenetic","true","practice"
"","null","html-keyboard-response","35","633857","0.0-9.0-2.6","jafKRN57pU","65e2d60d637373a334e3e222","6617fad957f7c6a12ea16e26","6622ce8782e1dc7b64367c88","
    <div id=""grid-container"">
        <!-- Grid items will be dynamically added here -->
    </div>    ","null","","","","","","","","","","","",""
"","null","html-keyboard-response","36","635079","0.0-9.0-3.6","jafKRN57pU","65e2d60d637373a334e3e222","6617fad957f7c6a12ea16e26","6622ce8782e1dc7b64367c88","feedback screen","null","","","","","","","","","","","",""
"","null","html-keyboard-response","37","635612","0.0-9.0-0.7","jafKRN57pU","65e2d60d637373a334e3e222","6617fad957f7c6a12ea16e26","6622ce8782e1dc7b64367c88","fixation cross","null","","","","","","","","","","","",""
"","1334","html-keyboard-response","38","636948","0.0-9.0-1.7","jafKRN57pU","65e2d60d637373a334e3e222","6617fad957f7c6a12ea16e26","6622ce8782e1dc7b64367c88","image grid","q","","","","","Phylogenetic_Distractor_Threat_target","2300","ongrid","q","4","Phylogenetic","true","practice"
"","null","html-keyboard-response","39","637114","0.0-9.0-2.7","jafKRN57pU","65e2d60d637373a334e3e222","6617fad957f7c6a12ea16e26","6622ce8782e1dc7b64367c88","
    <div id=""grid-container"">
        <!-- Grid items will be dynamically added here -->
    </div>    ","null","","","","","","","","","","","",""
"","null","html-keyboard-response","40","638327","0.0-9.0-3.7","jafKRN57pU","65e2d60d637373a334e3e222","6617fad957f7c6a12ea16e26","6622ce8782e1dc7b64367c88","feedback screen","null","","","","","","","","","","","",""
"","null","html-keyboard-response","41","638853","0.0-9.0-0.8","jafKRN57pU","65e2d60d637373a334e3e222","6617fad957f7c6a12ea16e26","6622ce8782e1dc7b64367c88","fixation cross","null","","","","","","","","","","","",""
"","969","html-keyboard-response","42","639824","0.0-9.0-1.8","jafKRN57pU","65e2d60d637373a334e3e222","6617fad957f7c6a12ea16e26","6622ce8782e1dc7b64367c88","image grid","q","","","","","Phylogenetic_Distractor_Threat_target","2200","ongrid","q","4","Phylogenetic","true","practice"
"","null","html-keyboard-response","43","639981","0.0-9.0-2.8","jafKRN57pU","65e2d60d637373a334e3e222","6617fad957f7c6a12ea16e26","6622ce8782e1dc7b64367c88","
    <div id=""grid-container"">
        <!-- Grid items will be dynamically added here -->
    </div>    ","null","","","","","","","","","","","",""
"","null","html-keyboard-response","44","641188","0.0-9.0-3.8","jafKRN57pU","65e2d60d637373a334e3e222","6617fad957f7c6a12ea16e26","6622ce8782e1dc7b64367c88","feedback screen","null","","","","","","","","","","","",""
"","null","html-keyboard-response","45","641711","0.0-9.0-0.9","jafKRN57pU","65e2d60d637373a334e3e222","6617fad957f7c6a12ea16e26","6622ce8782e1dc7b64367c88","fixation cross","null","","","","","","","","","","","",""
"","2086","html-keyboard-response","46","643798","0.0-9.0-1.9","jafKRN57pU","65e2d60d637373a334e3e222","6617fad957f7c6a12ea16e26","6622ce8782e1dc7b64367c88","image grid","p","","","","","Phylogenetic_Distractor_Nonthreat_target","2100","ongrid","p","5","Phylogenetic","true","practice"
"","null","html-keyboard-response","47","643956","0.0-9.0-2.9","jafKRN57pU","65e2d60d637373a334e3e222","6617fad957f7c6a12ea16e26","6622ce8782e1dc7b64367c88","
    <div id=""grid-container"">
        <!-- Grid items will be dynamically added here -->
    </div>    ","null","","","","","","","","","","","",""
"","null","html-keyboard-response","48","645193","0.0-9.0-3.9","jafKRN57pU","65e2d60d637373a334e3e222","6617fad957f7c6a12ea16e26","6622ce8782e1dc7b64367c88","feedback screen","null","","","","","","","","","","","",""
"","null","html-keyboard-response","49","645719","0.0-9.0-0.10","jafKRN57pU","65e2d60d637373a334e3e222","6617fad957f7c6a12ea16e26","6622ce8782e1dc7b64367c88","fixation cross","null","","","","","","","","","","","",""
"","null","html-keyboard-response","50","647737","0.0-9.0-1.10","jafKRN57pU","65e2d60d637373a334e3e222","6617fad957f7c6a12ea16e26","6622ce8782e1dc7b64367c88","
        <div id=""grid-container"">
        <!-- Grid items will be dynamically added here -->
    </div>    ","null","","","","","","","","","","","",""
"","4009","html-keyboard-response","51","649751","0.0-9.0-2.10","jafKRN57pU","65e2d60d637373a334e3e222","6617fad957f7c6a12ea16e26","6622ce8782e1dc7b64367c88","mask grid"," ","","","","","Ontogenetic_Distractor_notarget","2000","onmask"," ","9","Phylogenetic","true","practice"
"","null","html-keyboard-response","52","650968","0.0-9.0-3.10","jafKRN57pU","65e2d60d637373a334e3e222","6617fad957f7c6a12ea16e26","6622ce8782e1dc7b64367c88","feedback screen","null","","","","","","","","","","","",""
"","null","html-keyboard-response","53","651493","0.0-9.0-0.11","jafKRN57pU","65e2d60d637373a334e3e222","6617fad957f7c6a12ea16e26","6622ce8782e1dc7b64367c88","fixation cross","null","","","","","","","","","","","",""
"","null","html-keyboard-response","54","653411","0.0-9.0-1.11","jafKRN57pU","65e2d60d637373a334e3e222","6617fad957f7c6a12ea16e26","6622ce8782e1dc7b64367c88","
        <div id=""grid-container"">
        <!-- Grid items will be dynamically added here -->
    </div>    ","null","","","","","","","","","","","",""
"","2234","html-keyboard-response","55","653746","0.0-9.0-2.11","jafKRN57pU","65e2d60d637373a334e3e222","6617fad957f7c6a12ea16e26","6622ce8782e1dc7b64367c88","mask grid"," ","","","","","Phylogenetic_Distractor_Nonthreat_target","1900","onmask","p","2","Phylogenetic","false","practice"
"","null","html-keyboard-response","56","654974","0.0-9.0-3.11","jafKRN57pU","65e2d60d637373a334e3e222","6617fad957f7c6a12ea16e26","6622ce8782e1dc7b64367c88","feedback screen","null","","","","","","","","","","","",""
"","null","html-keyboard-response","57","655502","0.0-9.0-0.12","jafKRN57pU","65e2d60d637373a334e3e222","6617fad957f7c6a12ea16e26","6622ce8782e1dc7b64367c88","fixation cross","null","","","","","","","","","","","",""
"","1213","html-keyboard-response","58","656717","0.0-9.0-1.12","jafKRN57pU","65e2d60d637373a334e3e222","6617fad957f7c6a12ea16e26","6622ce8782e1dc7b64367c88","image grid","q","","","","","Ontogenetic_Distractor_Threat_target","1800","ongrid","q","5","Phylogenetic","true","practice"
"","null","html-keyboard-response","59","656871","0.0-9.0-2.12","jafKRN57pU","65e2d60d637373a334e3e222","6617fad957f7c6a12ea16e26","6622ce8782e1dc7b64367c88","
    <div id=""grid-container"">
        <!-- Grid items will be dynamically added here -->
    </div>    ","null","","","","","","","","","","","",""
"","null","html-keyboard-response","60","658102","0.0-9.0-3.12","jafKRN57pU","65e2d60d637373a334e3e222","6617fad957f7c6a12ea16e26","6622ce8782e1dc7b64367c88","feedback screen","null","","","","","","","","","","","",""
"","null","html-keyboard-response","61","658624","0.0-9.0-0.13","jafKRN57pU","65e2d60d637373a334e3e222","6617fad957f7c6a12ea16e26","6622ce8782e1dc7b64367c88","fixation cross","null","","","","","","","","","","","",""
"","1198","html-keyboard-response","62","659824","0.0-9.0-1.13","jafKRN57pU","65e2d60d637373a334e3e222","6617fad957f7c6a12ea16e26","6622ce8782e1dc7b64367c88","image grid","p","","","","","Ontogenetic_Distractor_Nonthreat_target","1700","ongrid","p","2","Phylogenetic","true","practice"
"","null","html-keyboard-response","63","659979","0.0-9.0-2.13","jafKRN57pU","65e2d60d637373a334e3e222","6617fad957f7c6a12ea16e26","6622ce8782e1dc7b64367c88","
    <div id=""grid-container"">
        <!-- Grid items will be dynamically added here -->
    </div>    ","null","","","","","","","","","","","",""
"","null","html-keyboard-response","64","661186","0.0-9.0-3.13","jafKRN57pU","65e2d60d637373a334e3e222","6617fad957f7c6a12ea16e26","6622ce8782e1dc7b64367c88","feedback screen","null","","","","","","","","","","","",""
"","null","html-keyboard-response","65","661709","0.0-9.0-0.14","jafKRN57pU","65e2d60d637373a334e3e222","6617fad957f7c6a12ea16e26","6622ce8782e1dc7b64367c88","fixation cross","null","","","","","","","","","","","",""
"","1421","html-keyboard-response","66","663131","0.0-9.0-1.14","jafKRN57pU","65e2d60d637373a334e3e222","6617fad957f7c6a12ea16e26","6622ce8782e1dc7b64367c88","image grid"," ","","","","","Phylogenetic_Distractor_notarget","1600","ongrid"," ","8","Phylogenetic","true","practice"
"","null","html-keyboard-response","67","663289","0.0-9.0-2.14","jafKRN57pU","65e2d60d637373a334e3e222","6617fad957f7c6a12ea16e26","6622ce8782e1dc7b64367c88","
    <div id=""grid-container"">
        <!-- Grid items will be dynamically added here -->
    </div>    ","null","","","","","","","","","","","",""
"","null","html-keyboard-response","68","664502","0.0-9.0-3.14","jafKRN57pU","65e2d60d637373a334e3e222","6617fad957f7c6a12ea16e26","6622ce8782e1dc7b64367c88","feedback screen","null","","","","","","","","","","","",""
"","null","html-keyboard-response","69","665025","0.0-9.0-0.15","jafKRN57pU","65e2d60d637373a334e3e222","6617fad957f7c6a12ea16e26","6622ce8782e1dc7b64367c88","fixation cross","null","","","","","","","","","","","",""
"","1461","html-keyboard-response","70","666488","0.0-9.0-1.15","jafKRN57pU","65e2d60d637373a334e3e222","6617fad957f7c6a12ea16e26","6622ce8782e1dc7b64367c88","image grid","p","","","","","Ontogenetic_Distractor_Nonthreat_target","1500","ongrid","p","3","Phylogenetic","true","practice"
"","null","html-keyboard-response","71","666653","0.0-9.0-2.15","jafKRN57pU","65e2d60d637373a334e3e222","6617fad957f7c6a12ea16e26","6622ce8782e1dc7b64367c88","
    <div id=""grid-container"">
        <!-- Grid items will be dynamically added here -->
    </div>    ","null","","","","","","","","","","","",""
"","null","html-keyboard-response","72","667869","0.0-9.0-3.15","jafKRN57pU","65e2d60d637373a334e3e222","6617fad957f7c6a12ea16e26","6622ce8782e1dc7b64367c88","feedback screen","null","","","","","","","","","","","",""
"","null","html-keyboard-response","73","668384","0.0-9.0-0.16","jafKRN57pU","65e2d60d637373a334e3e222","6617fad957f7c6a12ea16e26","6622ce8782e1dc7b64367c88","fixation cross","null","","","","","","","","","","","",""
"","771","html-keyboard-response","74","669156","0.0-9.0-1.16","jafKRN57pU","65e2d60d637373a334e3e222","6617fad957f7c6a12ea16e26","6622ce8782e1dc7b64367c88","image grid","p","","","","","Ontogenetic_Distractor_Nonthreat_target","1400","ongrid","p","6","Phylogenetic","true","practice"
"","null","html-keyboard-response","75","669321","0.0-9.0-2.16","jafKRN57pU","65e2d60d637373a334e3e222","6617fad957f7c6a12ea16e26","6622ce8782e1dc7b64367c88","
    <div id=""grid-container"">
        <!-- Grid items will be dynamically added here -->
    </div>    ","null","","","","","","","","","","","",""
"","null","html-keyboard-response","76","670535","0.0-9.0-3.16","jafKRN57pU","65e2d60d637373a334e3e222","6617fad957f7c6a12ea16e26","6622ce8782e1dc7b64367c88","feedback screen","null","","","","","","","","","","","",""
"","null","html-keyboard-response","77","671050","0.0-9.0-0.17","jafKRN57pU","65e2d60d637373a334e3e222","6617fad957f7c6a12ea16e26","6622ce8782e1dc7b64367c88","fixation cross","null","","","","","","","","","","","",""
"","null","html-keyboard-response","78","672366","0.0-9.0-1.17","jafKRN57pU","65e2d60d637373a334e3e222","6617fad957f7c6a12ea16e26","6622ce8782e1dc7b64367c88","
        <div id=""grid-container"">
        <!-- Grid items will be dynamically added here -->
    </div>    ","null","","","","","","","","","","","",""
"","1787","html-keyboard-response","79","672855","0.0-9.0-2.17","jafKRN57pU","65e2d60d637373a334e3e222","6617fad957f7c6a12ea16e26","6622ce8782e1dc7b64367c88","mask grid","q","","","","","Phylogenetic_Distractor_Threat_target","1300","onmask","q","7","Phylogenetic","true","practice"
"","null","html-keyboard-response","80","674093","0.0-9.0-3.17","jafKRN57pU","65e2d60d637373a334e3e222","6617fad957f7c6a12ea16e26","6622ce8782e1dc7b64367c88","feedback screen","null","","","","","","","","","","","",""
"","null","html-keyboard-response","81","674617","0.0-9.0-0.18","jafKRN57pU","65e2d60d637373a334e3e222","6617fad957f7c6a12ea16e26","6622ce8782e1dc7b64367c88","fixation cross","null","","","","","","","","","","","",""
"","1151","html-keyboard-response","82","675770","0.0-9.0-1.18","jafKRN57pU","65e2d60d637373a334e3e222","6617fad957f7c6a12ea16e26","6622ce8782e1dc7b64367c88","image grid"," ","","","","","Ontogenetic_Distractor_notarget","1200","ongrid"," ","6","Phylogenetic","true","practice"
"","null","html-keyboard-response","83","675938","0.0-9.0-2.18","jafKRN57pU","65e2d60d637373a334e3e222","6617fad957f7c6a12ea16e26","6622ce8782e1dc7b64367c88","
    <div id=""grid-container"">
        <!-- Grid items will be dynamically added here -->
    </div>    ","null","","","","","","","","","","","",""
"","null","html-keyboard-response","84","677167","0.0-9.0-3.18","jafKRN57pU","65e2d60d637373a334e3e222","6617fad957f7c6a12ea16e26","6622ce8782e1dc7b64367c88","feedback screen","null","","","","","","","","","","","",""
"","null","html-keyboard-response","85","677684","0.0-9.0-0.19","jafKRN57pU","65e2d60d637373a334e3e222","6617fad957f7c6a12ea16e26","6622ce8782e1dc7b64367c88","fixation cross","null","","","","","","","","","","","",""
"","null","html-keyboard-response","86","678789","0.0-9.0-1.19","jafKRN57pU","65e2d60d637373a334e3e222","6617fad957f7c6a12ea16e26","6622ce8782e1dc7b64367c88","
        <div id=""grid-container"">
        <!-- Grid items will be dynamically added here -->
    </div>    ","null","","","","","","","","","","","",""
"","1133","html-keyboard-response","87","678823","0.0-9.0-2.19","jafKRN57pU","65e2d60d637373a334e3e222","6617fad957f7c6a12ea16e26","6622ce8782e1dc7b64367c88","mask grid","p","","","","","Ontogenetic_Distractor_Threat_target","1100","onmask","q","9","Phylogenetic","false","practice"
"","602","html-keyboard-response","88","679641","0.0-9.0-3.19","jafKRN57pU","65e2d60d637373a334e3e222","6617fad957f7c6a12ea16e26","6622ce8782e1dc7b64367c88","feedback screen","q","","","","","","","","","","","",""
"","971","html-keyboard-response","89","680717","0.0-10.0","jafKRN57pU","65e2d60d637373a334e3e222","6617fad957f7c6a12ea16e26","6622ce8782e1dc7b64367c88","pre-experimental_briefing"," ","","","","","","","","","","","",""
"","null","html-keyboard-response","90","683256","0.0-11.0-0.0","jafKRN57pU","65e2d60d637373a334e3e222","6617fad957f7c6a12ea16e26","6622ce8782e1dc7b64367c88","fixation cross","null","","","","","","","","","","","",""
"","null","html-keyboard-response","91","684081","0.0-11.0-1.0","jafKRN57pU","65e2d60d637373a334e3e222","6617fad957f7c6a12ea16e26","6622ce8782e1dc7b64367c88","
        <div id=""grid-container"">
        <!-- Grid items will be dynamically added here -->
    </div>    ","null","","","","","","","","","","","",""
"","1324","html-keyboard-response","92","684607","0.0-11.0-2.0","jafKRN57pU","65e2d60d637373a334e3e222","6617fad957f7c6a12ea16e26","6622ce8782e1dc7b64367c88","mask grid","p","","","","","Phylogenetic_Distractor_Nonthreat_target","800","onmask","p","1","Phylogenetic","true","experimental"
"","null","html-keyboard-response","93","685341","0.0-11.0-0.1","jafKRN57pU","65e2d60d637373a334e3e222","6617fad957f7c6a12ea16e26","6622ce8782e1dc7b64367c88","fixation cross","null","","","","","","","","","","","",""
"","466","html-keyboard-response","94","685808","0.0-11.0-1.1","jafKRN57pU","65e2d60d637373a334e3e222","6617fad957f7c6a12ea16e26","6622ce8782e1dc7b64367c88","image grid","p","","","","","Phylogenetic_Distractor_Nonthreat_target","800","ongrid","p","1","Phylogenetic","true","experimental"
"","null","html-keyboard-response","95","685967","0.0-11.0-2.1","jafKRN57pU","65e2d60d637373a334e3e222","6617fad957f7c6a12ea16e26","6622ce8782e1dc7b64367c88","
    <div id=""grid-container"">
        <!-- Grid items will be dynamically added here -->
    </div>    ","null","","","","","","","","","","","",""
"","null","html-keyboard-response","96","686687","0.0-11.0-0.2","jafKRN57pU","65e2d60d637373a334e3e222","6617fad957f7c6a12ea16e26","6622ce8782e1dc7b64367c88","fixation cross","null","","","","","","","","","","","",""
"","null","html-keyboard-response","97","687507","0.0-11.0-1.2","jafKRN57pU","65e2d60d637373a334e3e222","6617fad957f7c6a12ea16e26","6622ce8782e1dc7b64367c88","
        <div id=""grid-container"">
        <!-- Grid items will be dynamically added here -->
    </div>    ","null","","","","","","","","","","","",""
"","1117","html-keyboard-response","98","687826","0.0-11.0-2.2","jafKRN57pU","65e2d60d637373a334e3e222","6617fad957f7c6a12ea16e26","6622ce8782e1dc7b64367c88","mask grid","p","","","","","Phylogenetic_Distractor_Nonthreat_target","800","onmask","p","1","Phylogenetic","true","experimental"
"","null","html-keyboard-response","99","688542","0.0-11.0-0.3","jafKRN57pU","65e2d60d637373a334e3e222","6617fad957f7c6a12ea16e26","6622ce8782e1dc7b64367c88","fixation cross","null","","","","","","","","","","","",""
"","null","html-keyboard-response","100","689364","0.0-11.0-1.3","jafKRN57pU","65e2d60d637373a334e3e222","6617fad957f7c6a12ea16e26","6622ce8782e1dc7b64367c88","
        <div id=""grid-container"">
        <!-- Grid items will be dynamically added here -->
    </div>    ","null","","","","","","","","","","","",""
"","1065","html-keyboard-response","101","689630","0.0-11.0-2.3","jafKRN57pU","65e2d60d637373a334e3e222","6617fad957f7c6a12ea16e26","6622ce8782e1dc7b64367c88","mask grid","p","","","","","Phylogenetic_Distractor_Threat_target","800","onmask","q","6","Phylogenetic","false","experimental"
"","null","html-keyboard-response","102","690344","0.0-11.0-0.4","jafKRN57pU","65e2d60d637373a334e3e222","6617fad957f7c6a12ea16e26","6622ce8782e1dc7b64367c88","fixation cross","null","","","","","","","","","","","",""
"","null","html-keyboard-response","103","691156","0.0-11.0-1.4","jafKRN57pU","65e2d60d637373a334e3e222","6617fad957f7c6a12ea16e26","6622ce8782e1dc7b64367c88","
        <div id=""grid-container"">
        <!-- Grid items will be dynamically added here -->
    </div>    ","null","","","","","","","","","","","",""
"","874","html-keyboard-response","104","691231","0.0-11.0-2.4","jafKRN57pU","65e2d60d637373a334e3e222","6617fad957f7c6a12ea16e26","6622ce8782e1dc7b64367c88","mask grid","p","","","","","Phylogenetic_Distractor_Threat_target","800","onmask","q","2","Phylogenetic","false","experimental"
"","null","html-keyboard-response","105","691948","0.0-11.0-0.5","jafKRN57pU","65e2d60d637373a334e3e222","6617fad957f7c6a12ea16e26","6622ce8782e1dc7b64367c88","fixation cross","null","","","","","","","","","","","",""
"","null","html-keyboard-response","106","692758","0.0-11.0-1.5","jafKRN57pU","65e2d60d637373a334e3e222","6617fad957f7c6a12ea16e26","6622ce8782e1dc7b64367c88","
        <div id=""grid-container"">
        <!-- Grid items will be dynamically added here -->
    </div>    ","null","","","","","","","","","","","",""
"","937","html-keyboard-response","107","692895","0.0-11.0-2.5","jafKRN57pU","65e2d60d637373a334e3e222","6617fad957f7c6a12ea16e26","6622ce8782e1dc7b64367c88","mask grid","p","","","","","Phylogenetic_Distractor_Threat_target","800","onmask","q","8","Phylogenetic","false","experimental"
"","null","html-keyboard-response","108","693611","0.0-11.0-0.6","jafKRN57pU","65e2d60d637373a334e3e222","6617fad957f7c6a12ea16e26","6622ce8782e1dc7b64367c88","fixation cross","null","","","","","","","","","","","",""
"","null","html-keyboard-response","109","694423","0.0-11.0-1.6","jafKRN57pU","65e2d60d637373a334e3e222","6617fad957f7c6a12ea16e26","6622ce8782e1dc7b64367c88","
        <div id=""grid-container"">
        <!-- Grid items will be dynamically added here -->
    </div>    ","null","","","","","","","","","","","",""
"","957","html-keyboard-response","110","694582","0.0-11.0-2.6","jafKRN57pU","65e2d60d637373a334e3e222","6617fad957f7c6a12ea16e26","6622ce8782e1dc7b64367c88","mask grid","q","","","","","Phylogenetic_Distractor_Threat_target","800","onmask","q","2","Phylogenetic","true","experimental"
"","null","html-keyboard-response","111","695301","0.0-11.0-0.7","jafKRN57pU","65e2d60d637373a334e3e222","6617fad957f7c6a12ea16e26","6622ce8782e1dc7b64367c88","fixation cross","null","","","","","","","","","","","",""
"","null","html-keyboard-response","112","696114","0.0-11.0-1.7","jafKRN57pU","65e2d60d637373a334e3e222","6617fad957f7c6a12ea16e26","6622ce8782e1dc7b64367c88","
        <div id=""grid-container"">
        <!-- Grid items will be dynamically added here -->
    </div>    ","null","","","","","","","","","","","",""
"","1058","html-keyboard-response","113","696373","0.0-11.0-2.7","jafKRN57pU","65e2d60d637373a334e3e222","6617fad957f7c6a12ea16e26","6622ce8782e1dc7b64367c88","mask grid"," ","","","","","Phylogenetic_Distractor_Threat_target","800","onmask","q","2","Phylogenetic","false","experimental"
"","null","html-keyboard-response","114","697092","0.0-11.0-0.8","jafKRN57pU","65e2d60d637373a334e3e222","6617fad957f7c6a12ea16e26","6622ce8782e1dc7b64367c88","fixation cross","null","","","","","","","","","","","",""
"","null","html-keyboard-response","115","697907","0.0-11.0-1.8","jafKRN57pU","65e2d60d637373a334e3e222","6617fad957f7c6a12ea16e26","6622ce8782e1dc7b64367c88","
        <div id=""grid-container"">
        <!-- Grid items will be dynamically added here -->
    </div>    ","null","","","","","","","","","","","",""
"","4379","html-keyboard-response","116","701488","0.0-11.0-2.8","jafKRN57pU","65e2d60d637373a334e3e222","6617fad957f7c6a12ea16e26","6622ce8782e1dc7b64367c88","mask grid"," ","","","","","Phylogenetic_Distractor_Nonthreat_target","800","onmask","p","5","Phylogenetic","false","experimental"
"","null","html-keyboard-response","117","702223","0.0-11.0-0.9","jafKRN57pU","65e2d60d637373a334e3e222","6617fad957f7c6a12ea16e26","6622ce8782e1dc7b64367c88","fixation cross","null","","","","","","","","","","","",""
"","null","html-keyboard-response","118","703047","0.0-11.0-1.9","jafKRN57pU","65e2d60d637373a334e3e222","6617fad957f7c6a12ea16e26","6622ce8782e1dc7b64367c88","
        <div id=""grid-container"">
        <!-- Grid items will be dynamically added here -->
    </div>    ","null","","","","","","","","","","","",""
"","1055","html-keyboard-response","119","703303","0.0-11.0-2.9","jafKRN57pU","65e2d60d637373a334e3e222","6617fad957f7c6a12ea16e26","6622ce8782e1dc7b64367c88","mask grid"," ","","","","","Phylogenetic_Distractor_notarget","800","onmask"," ","4","Phylogenetic","true","experimental"
"","null","html-keyboard-response","120","704019","0.0-11.0-0.10","jafKRN57pU","65e2d60d637373a334e3e222","6617fad957f7c6a12ea16e26","6622ce8782e1dc7b64367c88","fixation cross","null","","","","","","","","","","","",""
"","null","html-keyboard-response","121","704834","0.0-11.0-1.10","jafKRN57pU","65e2d60d637373a334e3e222","6617fad957f7c6a12ea16e26","6622ce8782e1dc7b64367c88","
        <div id=""grid-container"">
        <!-- Grid items will be dynamically added here -->
    </div>    ","null","","","","","","","","","","","",""
"","800","html-keyboard-response","122","709845","0.0-11.0-2.10","jafKRN57pU","65e2d60d637373a334e3e222","6617fad957f7c6a12ea16e26","6622ce8782e1dc7b64367c88","mask grid","null","","","","","Phylogenetic_Distractor_Threat_target","800","onmask","q","7","Phylogenetic","false","experimental"
"","null","html-keyboard-response","123","710572","0.0-11.0-0.11","jafKRN57pU","65e2d60d637373a334e3e222","6617fad957f7c6a12ea16e26","6622ce8782e1dc7b64367c88","fixation cross","null","","","","","","","","","","","",""
"","691","html-keyboard-response","124","711265","0.0-11.0-1.11","jafKRN57pU","65e2d60d637373a334e3e222","6617fad957f7c6a12ea16e26","6622ce8782e1dc7b64367c88","image grid"," ","","","","","Phylogenetic_Distractor_Threat_target","800","ongrid","q","9","Phylogenetic","false","experimental"
"","null","html-keyboard-response","125","711419","0.0-11.0-2.11","jafKRN57pU","65e2d60d637373a334e3e222","6617fad957f7c6a12ea16e26","6622ce8782e1dc7b64367c88","
    <div id=""grid-container"">
        <!-- Grid items will be dynamically added here -->
    </div>    ","null","","","","","","","","","","","",""
"","null","html-keyboard-response","126","712152","0.0-11.0-0.12","jafKRN57pU","65e2d60d637373a334e3e222","6617fad957f7c6a12ea16e26","6622ce8782e1dc7b64367c88","fixation cross","null","","","","","","","","","","","",""
"","null","html-keyboard-response","127","712963","0.0-11.0-1.12","jafKRN57pU","65e2d60d637373a334e3e222","6617fad957f7c6a12ea16e26","6622ce8782e1dc7b64367c88","
        <div id=""grid-container"">
        <!-- Grid items will be dynamically added here -->
    </div>    ","null","","","","","","","","","","","",""
"","1140","html-keyboard-response","128","713305","0.0-11.0-2.12","jafKRN57pU","65e2d60d637373a334e3e222","6617fad957f7c6a12ea16e26","6622ce8782e1dc7b64367c88","mask grid","p","","","","","Phylogenetic_Distractor_Threat_target","800","onmask","q","4","Phylogenetic","false","experimental"
"","null","html-keyboard-response","129","714022","0.0-11.0-0.13","jafKRN57pU","65e2d60d637373a334e3e222","6617fad957f7c6a12ea16e26","6622ce8782e1dc7b64367c88","fixation cross","null","","","","","","","","","","","",""
"","null","html-keyboard-response","130","714839","0.0-11.0-1.13","jafKRN57pU","65e2d60d637373a334e3e222","6617fad957f7c6a12ea16e26","6622ce8782e1dc7b64367c88","
        <div id=""grid-container"">
        <!-- Grid items will be dynamically added here -->
    </div>    ","null","","","","","","","","","","","",""
"","1028","html-keyboard-response","131","715068","0.0-11.0-2.13","jafKRN57pU","65e2d60d637373a334e3e222","6617fad957f7c6a12ea16e26","6622ce8782e1dc7b64367c88","mask grid","p","","","","","Phylogenetic_Distractor_Threat_target","800","onmask","q","7","Phylogenetic","false","experimental"
"","null","html-keyboard-response","132","715806","0.0-11.0-0.14","jafKRN57pU","65e2d60d637373a334e3e222","6617fad957f7c6a12ea16e26","6622ce8782e1dc7b64367c88","fixation cross","null","","","","","","","","","","","",""
"","null","html-keyboard-response","133","716629","0.0-11.0-1.14","jafKRN57pU","65e2d60d637373a334e3e222","6617fad957f7c6a12ea16e26","6622ce8782e1dc7b64367c88","
        <div id=""grid-container"">
        <!-- Grid items will be dynamically added here -->
    </div>    ","null","","","","","","","","","","","",""
"","984","html-keyboard-response","134","716815","0.0-11.0-2.14","jafKRN57pU","65e2d60d637373a334e3e222","6617fad957f7c6a12ea16e26","6622ce8782e1dc7b64367c88","mask grid","q","","","","","Phylogenetic_Distractor_Nonthreat_target","800","onmask","p","9","Phylogenetic","false","experimental"
"","null","html-keyboard-response","135","717539","0.0-11.0-0.15","jafKRN57pU","65e2d60d637373a334e3e222","6617fad957f7c6a12ea16e26","6622ce8782e1dc7b64367c88","fixation cross","null","","","","","","","","","","","",""
"","null","html-keyboard-response","136","718346","0.0-11.0-1.15","jafKRN57pU","65e2d60d637373a334e3e222","6617fad957f7c6a12ea16e26","6622ce8782e1dc7b64367c88","
        <div id=""grid-container"">
        <!-- Grid items will be dynamically added here -->
    </div>    ","null","","","","","","","","","","","",""
"","4200","html-keyboard-response","137","721747","0.0-11.0-2.15","jafKRN57pU","65e2d60d637373a334e3e222","6617fad957f7c6a12ea16e26","6622ce8782e1dc7b64367c88","mask grid"," ","","","","","Phylogenetic_Distractor_Nonthreat_target","800","onmask","p","9","Phylogenetic","false","experimental"
"","null","html-keyboard-response","138","722471","0.0-11.0-0.16","jafKRN57pU","65e2d60d637373a334e3e222","6617fad957f7c6a12ea16e26","6622ce8782e1dc7b64367c88","fixation cross","null","","","","","","","","","","","",""
"","null","html-keyboard-response","139","723295","0.0-11.0-1.16","jafKRN57pU","65e2d60d637373a334e3e222","6617fad957f7c6a12ea16e26","6622ce8782e1dc7b64367c88","
        <div id=""grid-container"">
        <!-- Grid items will be dynamically added here -->
    </div>    ","null","","","","","","","","","","","",""
"","1454","html-keyboard-response","140","723950","0.0-11.0-2.16","jafKRN57pU","65e2d60d637373a334e3e222","6617fad957f7c6a12ea16e26","6622ce8782e1dc7b64367c88","mask grid","p","","","","","Phylogenetic_Distractor_Nonthreat_target","800","onmask","p","6","Phylogenetic","true","experimental"
"","null","html-keyboard-response","141","724673","0.0-11.0-0.17","jafKRN57pU","65e2d60d637373a334e3e222","6617fad957f7c6a12ea16e26","6622ce8782e1dc7b64367c88","fixation cross","null","","","","","","","","","","","",""
"","null","html-keyboard-response","142","725485","0.0-11.0-1.17","jafKRN57pU","65e2d60d637373a334e3e222","6617fad957f7c6a12ea16e26","6622ce8782e1dc7b64367c88","
        <div id=""grid-container"">
        <!-- Grid items will be dynamically added here -->
    </div>    ","null","","","","","","","","","","","",""
"","867","html-keyboard-response","143","725553","0.0-11.0-2.17","jafKRN57pU","65e2d60d637373a334e3e222","6617fad957f7c6a12ea16e26","6622ce8782e1dc7b64367c88","mask grid","p","","","","","Phylogenetic_Distractor_Nonthreat_target","800","onmask","p","6","Phylogenetic","true","experimental"
"","null","html-keyboard-response","144","726270","0.0-11.0-0.18","jafKRN57pU","65e2d60d637373a334e3e222","6617fad957f7c6a12ea16e26","6622ce8782e1dc7b64367c88","fixation cross","null","","","","","","","","","","","",""
"","null","html-keyboard-response","145","727080","0.0-11.0-1.18","jafKRN57pU","65e2d60d637373a334e3e222","6617fad957f7c6a12ea16e26","6622ce8782e1dc7b64367c88","
        <div id=""grid-container"">
        <!-- Grid items will be dynamically added here -->
    </div>    ","null","","","","","","","","","","","",""
"","1191","html-keyboard-response","146","727473","0.0-11.0-2.18","jafKRN57pU","65e2d60d637373a334e3e222","6617fad957f7c6a12ea16e26","6622ce8782e1dc7b64367c88","mask grid","p","","","","","Phylogenetic_Distractor_Threat_target","800","onmask","q","3","Phylogenetic","false","experimental"
"","null","html-keyboard-response","147","728197","0.0-11.0-0.19","jafKRN57pU","65e2d60d637373a334e3e222","6617fad957f7c6a12ea16e26","6622ce8782e1dc7b64367c88","fixation cross","null","","","","","","","","","","","",""
"","null","html-keyboard-response","148","729005","0.0-11.0-1.19","jafKRN57pU","65e2d60d637373a334e3e222","6617fad957f7c6a12ea16e26","6622ce8782e1dc7b64367c88","
        <div id=""grid-container"">
        <!-- Grid items will be dynamically added here -->
    </div>    ","null","","","","","","","","","","","",""
"","1047","html-keyboard-response","149","729254","0.0-11.0-2.19","jafKRN57pU","65e2d60d637373a334e3e222","6617fad957f7c6a12ea16e26","6622ce8782e1dc7b64367c88","mask grid","p","","","","","Phylogenetic_Distractor_Nonthreat_target","800","onmask","p","9","Phylogenetic","true","experimental"
"","null","html-keyboard-response","150","729978","0.0-11.0-0.20","jafKRN57pU","65e2d60d637373a334e3e222","6617fad957f7c6a12ea16e26","6622ce8782e1dc7b64367c88","fixation cross","null","","","","","","","","","","","",""
"","null","html-keyboard-response","151","730796","0.0-11.0-1.20","jafKRN57pU","65e2d60d637373a334e3e222","6617fad957f7c6a12ea16e26","6622ce8782e1dc7b64367c88","
        <div id=""grid-container"">
        <!-- Grid items will be dynamically added here -->
    </div>    ","null","","","","","","","","","","","",""
"","835","html-keyboard-response","152","730832","0.0-11.0-2.20","jafKRN57pU","65e2d60d637373a334e3e222","6617fad957f7c6a12ea16e26","6622ce8782e1dc7b64367c88","mask grid","p","","","","","Phylogenetic_Distractor_Threat_target","800","onmask","q","4","Phylogenetic","false","experimental"
"","null","html-keyboard-response","153","731557","0.0-11.0-0.21","jafKRN57pU","65e2d60d637373a334e3e222","6617fad957f7c6a12ea16e26","6622ce8782e1dc7b64367c88","fixation cross","null","","","","","","","","","","","",""
"","null","html-keyboard-response","154","732370","0.0-11.0-1.21","jafKRN57pU","65e2d60d637373a334e3e222","6617fad957f7c6a12ea16e26","6622ce8782e1dc7b64367c88","
        <div id=""grid-container"">
        <!-- Grid items will be dynamically added here -->
    </div>    ","null","","","","","","","","","","","",""
"","990","html-keyboard-response","155","732561","0.0-11.0-2.21","jafKRN57pU","65e2d60d637373a334e3e222","6617fad957f7c6a12ea16e26","6622ce8782e1dc7b64367c88","mask grid","p","","","","","Phylogenetic_Distractor_Nonthreat_target","800","onmask","p","9","Phylogenetic","true","experimental"
"","null","html-keyboard-response","156","733287","0.0-11.0-0.22","jafKRN57pU","65e2d60d637373a334e3e222","6617fad957f7c6a12ea16e26","6622ce8782e1dc7b64367c88","fixation cross","null","","","","","","","","","","","",""
"","765","html-keyboard-response","157","734053","0.0-11.0-1.22","jafKRN57pU","65e2d60d637373a334e3e222","6617fad957f7c6a12ea16e26","6622ce8782e1dc7b64367c88","image grid"," ","","","","","Phylogenetic_Distractor_Threat_target","800","ongrid","q","8","Phylogenetic","false","experimental"
"","null","html-keyboard-response","158","734219","0.0-11.0-2.22","jafKRN57pU","65e2d60d637373a334e3e222","6617fad957f7c6a12ea16e26","6622ce8782e1dc7b64367c88","
    <div id=""grid-container"">
        <!-- Grid items will be dynamically added here -->
    </div>    ","null","","","","","","","","","","","",""
"","null","html-keyboard-response","159","734933","0.0-11.0-0.23","jafKRN57pU","65e2d60d637373a334e3e222","6617fad957f7c6a12ea16e26","6622ce8782e1dc7b64367c88","fixation cross","null","","","","","","","","","","","",""
"","null","html-keyboard-response","160","735744","0.0-11.0-1.23","jafKRN57pU","65e2d60d637373a334e3e222","6617fad957f7c6a12ea16e26","6622ce8782e1dc7b64367c88","
        <div id=""grid-container"">
        <!-- Grid items will be dynamically added here -->
    </div>    ","null","","","","","","","","","","","",""
"","1298","html-keyboard-response","161","736243","0.0-11.0-2.23","jafKRN57pU","65e2d60d637373a334e3e222","6617fad957f7c6a12ea16e26","6622ce8782e1dc7b64367c88","mask grid"," ","","","","","Phylogenetic_Distractor_Nonthreat_target","800","onmask","p","9","Phylogenetic","false","experimental"
"","null","html-keyboard-response","162","736962","0.0-11.0-0.24","jafKRN57pU","65e2d60d637373a334e3e222","6617fad957f7c6a12ea16e26","6622ce8782e1dc7b64367c88","fixation cross","null","","","","","","","","","","","",""
"","null","html-keyboard-response","163","737777","0.0-11.0-1.24","jafKRN57pU","65e2d60d637373a334e3e222","6617fad957f7c6a12ea16e26","6622ce8782e1dc7b64367c88","
        <div id=""grid-container"">
        <!-- Grid items will be dynamically added here -->
    </div>    ","null","","","","","","","","","","","",""
"","1192","html-keyboard-response","164","738171","0.0-11.0-2.24","jafKRN57pU","65e2d60d637373a334e3e222","6617fad957f7c6a12ea16e26","6622ce8782e1dc7b64367c88","mask grid","q","","","","","Phylogenetic_Distractor_Threat_target","800","onmask","q","6","Phylogenetic","true","experimental"
"","null","html-keyboard-response","165","738895","0.0-11.0-0.25","jafKRN57pU","65e2d60d637373a334e3e222","6617fad957f7c6a12ea16e26","6622ce8782e1dc7b64367c88","fixation cross","null","","","","","","","","","","","",""
"","null","html-keyboard-response","166","739704","0.0-11.0-1.25","jafKRN57pU","65e2d60d637373a334e3e222","6617fad957f7c6a12ea16e26","6622ce8782e1dc7b64367c88","
        <div id=""grid-container"">
        <!-- Grid items will be dynamically added here -->
    </div>    ","null","","","","","","","","","","","",""
"","948","html-keyboard-response","167","739853","0.0-11.0-2.25","jafKRN57pU","65e2d60d637373a334e3e222","6617fad957f7c6a12ea16e26","6622ce8782e1dc7b64367c88","mask grid","p","","","","","Phylogenetic_Distractor_notarget","800","onmask"," ","1","Phylogenetic","false","experimental"
"","null","html-keyboard-response","168","740566","0.0-11.0-0.26","jafKRN57pU","65e2d60d637373a334e3e222","6617fad957f7c6a12ea16e26","6622ce8782e1dc7b64367c88","fixation cross","null","","","","","","","","","","","",""
"","null","html-keyboard-response","169","741384","0.0-11.0-1.26","jafKRN57pU","65e2d60d637373a334e3e222","6617fad957f7c6a12ea16e26","6622ce8782e1dc7b64367c88","
        <div id=""grid-container"">
        <!-- Grid items will be dynamically added here -->
    </div>    ","null","","","","","","","","","","","",""
"","1157","html-keyboard-response","170","741743","0.0-11.0-2.26","jafKRN57pU","65e2d60d637373a334e3e222","6617fad957f7c6a12ea16e26","6622ce8782e1dc7b64367c88","mask grid","p","","","","","Phylogenetic_Distractor_Nonthreat_target","800","onmask","p","9","Phylogenetic","true","experimental"
"","null","html-keyboard-response","171","742470","0.0-11.0-0.27","jafKRN57pU","65e2d60d637373a334e3e222","6617fad957f7c6a12ea16e26","6622ce8782e1dc7b64367c88","fixation cross","null","","","","","","","","","","","",""
"","null","html-keyboard-response","172","743294","0.0-11.0-1.27","jafKRN57pU","65e2d60d637373a334e3e222","6617fad957f7c6a12ea16e26","6622ce8782e1dc7b64367c88","
        <div id=""grid-container"">
        <!-- Grid items will be dynamically added here -->
    </div>    ","null","","","","","","","","","","","",""
"","946","html-keyboard-response","173","743440","0.0-11.0-2.27","jafKRN57pU","65e2d60d637373a334e3e222","6617fad957f7c6a12ea16e26","6622ce8782e1dc7b64367c88","mask grid","p","","","","","Phylogenetic_Distractor_Nonthreat_target","800","onmask","p","7","Phylogenetic","true","experimental"
"","null","html-keyboard-response","174","744146","0.0-11.0-0.28","jafKRN57pU","65e2d60d637373a334e3e222","6617fad957f7c6a12ea16e26","6622ce8782e1dc7b64367c88","fixation cross","null","","","","","","","","","","","",""
"","null","html-keyboard-response","175","744961","0.0-11.0-1.28","jafKRN57pU","65e2d60d637373a334e3e222","6617fad957f7c6a12ea16e26","6622ce8782e1dc7b64367c88","
        <div id=""grid-container"">
        <!-- Grid items will be dynamically added here -->
    </div>    ","null","","","","","","","","","","","",""
"","893","html-keyboard-response","176","745056","0.0-11.0-2.28","jafKRN57pU","65e2d60d637373a334e3e222","6617fad957f7c6a12ea16e26","6622ce8782e1dc7b64367c88","mask grid","p","","","","","Phylogenetic_Distractor_Nonthreat_target","800","onmask","p","2","Phylogenetic","true","experimental"
"","null","html-keyboard-response","177","745766","0.0-11.0-0.29","jafKRN57pU","65e2d60d637373a334e3e222","6617fad957f7c6a12ea16e26","6622ce8782e1dc7b64367c88","fixation cross","null","","","","","","","","","","","",""
"","null","html-keyboard-response","178","746570","0.0-11.0-1.29","jafKRN57pU","65e2d60d637373a334e3e222","6617fad957f7c6a12ea16e26","6622ce8782e1dc7b64367c88","
        <div id=""grid-container"">
        <!-- Grid items will be dynamically added here -->
    </div>    ","null","","","","","","","","","","","",""
"","1031","html-keyboard-response","179","746802","0.0-11.0-2.29","jafKRN57pU","65e2d60d637373a334e3e222","6617fad957f7c6a12ea16e26","6622ce8782e1dc7b64367c88","mask grid","q","","","","","Phylogenetic_Distractor_Threat_target","800","onmask","q","1","Phylogenetic","true","experimental"
"","null","html-keyboard-response","180","747530","0.0-11.0-0.30","jafKRN57pU","65e2d60d637373a334e3e222","6617fad957f7c6a12ea16e26","6622ce8782e1dc7b64367c88","fixation cross","null","","","","","","","","","","","",""
"","773","html-keyboard-response","181","748304","0.0-11.0-1.30","jafKRN57pU","65e2d60d637373a334e3e222","6617fad957f7c6a12ea16e26","6622ce8782e1dc7b64367c88","image grid","q","","","","","Phylogenetic_Distractor_Threat_target","800","ongrid","q","8","Phylogenetic","true","experimental"
"","null","html-keyboard-response","182","748466","0.0-11.0-2.30","jafKRN57pU","65e2d60d637373a334e3e222","6617fad957f7c6a12ea16e26","6622ce8782e1dc7b64367c88","
    <div id=""grid-container"">
        <!-- Grid items will be dynamically added here -->
    </div>    ","null","","","","","","","","","","","",""
"","null","html-keyboard-response","183","749187","0.0-11.0-0.31","jafKRN57pU","65e2d60d637373a334e3e222","6617fad957f7c6a12ea16e26","6622ce8782e1dc7b64367c88","fixation cross","null","","","","","","","","","","","",""
"","null","html-keyboard-response","184","750002","0.0-11.0-1.31","jafKRN57pU","65e2d60d637373a334e3e222","6617fad957f7c6a12ea16e26","6622ce8782e1dc7b64367c88","
        <div id=""grid-container"">
        <!-- Grid items will be dynamically added here -->
    </div>    ","null","","","","","","","","","","","",""
"","1104","html-keyboard-response","185","750307","0.0-11.0-2.31","jafKRN57pU","65e2d60d637373a334e3e222","6617fad957f7c6a12ea16e26","6622ce8782e1dc7b64367c88","mask grid"," ","","","","","Phylogenetic_Distractor_Nonthreat_target","800","onmask","p","2","Phylogenetic","false","experimental"
"","null","html-keyboard-response","186","751033","0.0-11.0-0.32","jafKRN57pU","65e2d60d637373a334e3e222","6617fad957f7c6a12ea16e26","6622ce8782e1dc7b64367c88","fixation cross","null","","","","","","","","","","","",""
"","null","html-keyboard-response","187","751837","0.0-11.0-1.32","jafKRN57pU","65e2d60d637373a334e3e222","6617fad957f7c6a12ea16e26","6622ce8782e1dc7b64367c88","
        <div id=""grid-container"">
        <!-- Grid items will be dynamically added here -->
    </div>    ","null","","","","","","","","","","","",""
"","1104","html-keyboard-response","188","752142","0.0-11.0-2.32","jafKRN57pU","65e2d60d637373a334e3e222","6617fad957f7c6a12ea16e26","6622ce8782e1dc7b64367c88","mask grid","p","","","","","Phylogenetic_Distractor_notarget","800","onmask"," ","5","Phylogenetic","false","experimental"
"","null","html-keyboard-response","189","752851","0.0-11.0-0.33","jafKRN57pU","65e2d60d637373a334e3e222","6617fad957f7c6a12ea16e26","6622ce8782e1dc7b64367c88","fixation cross","null","","","","","","","","","","","",""
"","null","html-keyboard-response","190","753661","0.0-11.0-1.33","jafKRN57pU","65e2d60d637373a334e3e222","6617fad957f7c6a12ea16e26","6622ce8782e1dc7b64367c88","
        <div id=""grid-container"">
        <!-- Grid items will be dynamically added here -->
    </div>    ","null","","","","","","","","","","","",""
"","1022","html-keyboard-response","191","753885","0.0-11.0-2.33","jafKRN57pU","65e2d60d637373a334e3e222","6617fad957f7c6a12ea16e26","6622ce8782e1dc7b64367c88","mask grid"," ","","","","","Phylogenetic_Distractor_notarget","800","onmask"," ","7","Phylogenetic","true","experimental"
"","null","html-keyboard-response","192","754619","0.0-11.0-0.34","jafKRN57pU","65e2d60d637373a334e3e222","6617fad957f7c6a12ea16e26","6622ce8782e1dc7b64367c88","fixation cross","null","","","","","","","","","","","",""
"","830","html-keyboard-response","193","755451","0.0-11.0-1.34","jafKRN57pU","65e2d60d637373a334e3e222","6617fad957f7c6a12ea16e26","6622ce8782e1dc7b64367c88","image grid"," ","","","","","Phylogenetic_Distractor_Nonthreat_target","800","ongrid","p","1","Phylogenetic","false","experimental"
"","null","html-keyboard-response","194","755616","0.0-11.0-2.34","jafKRN57pU","65e2d60d637373a334e3e222","6617fad957f7c6a12ea16e26","6622ce8782e1dc7b64367c88","
    <div id=""grid-container"">
        <!-- Grid items will be dynamically added here -->
    </div>    ","null","","","","","","","","","","","",""
"","null","html-keyboard-response","195","756337","0.0-11.0-0.35","jafKRN57pU","65e2d60d637373a334e3e222","6617fad957f7c6a12ea16e26","6622ce8782e1dc7b64367c88","fixation cross","null","","","","","","","","","","","",""
"","null","html-keyboard-response","196","757152","0.0-11.0-1.35","jafKRN57pU","65e2d60d637373a334e3e222","6617fad957f7c6a12ea16e26","6622ce8782e1dc7b64367c88","
        <div id=""grid-container"">
        <!-- Grid items will be dynamically added here -->
    </div>    ","null","","","","","","","","","","","",""
"","1090","html-keyboard-response","197","757443","0.0-11.0-2.35","jafKRN57pU","65e2d60d637373a334e3e222","6617fad957f7c6a12ea16e26","6622ce8782e1dc7b64367c88","mask grid"," ","","","","","Phylogenetic_Distractor_Threat_target","800","onmask","q","6","Phylogenetic","false","experimental"
"","null","html-keyboard-response","198","758165","0.0-11.0-0.36","jafKRN57pU","65e2d60d637373a334e3e222","6617fad957f7c6a12ea16e26","6622ce8782e1dc7b64367c88","fixation cross","null","","","","","","","","","","","",""
"","null","html-keyboard-response","199","758971","0.0-11.0-1.36","jafKRN57pU","65e2d60d637373a334e3e222","6617fad957f7c6a12ea16e26","6622ce8782e1dc7b64367c88","
        <div id=""grid-container"">
        <!-- Grid items will be dynamically added here -->
    </div>    ","null","","","","","","","","","","","",""
"","1125","html-keyboard-response","200","759297","0.0-11.0-2.36","jafKRN57pU","65e2d60d637373a334e3e222","6617fad957f7c6a12ea16e26","6622ce8782e1dc7b64367c88","mask grid","p","","","","","Phylogenetic_Distractor_Threat_target","800","onmask","q","5","Phylogenetic","false","experimental"
"","null","html-keyboard-response","201","760020","0.0-11.0-0.37","jafKRN57pU","65e2d60d637373a334e3e222","6617fad957f7c6a12ea16e26","6622ce8782e1dc7b64367c88","fixation cross","null","","","","","","","","","","","",""
"","null","html-keyboard-response","202","760841","0.0-11.0-1.37","jafKRN57pU","65e2d60d637373a334e3e222","6617fad957f7c6a12ea16e26","6622ce8782e1dc7b64367c88","
        <div id=""grid-container"">
        <!-- Grid items will be dynamically added here -->
    </div>    ","null","","","","","","","","","","","",""
"","937","html-keyboard-response","203","760980","0.0-11.0-2.37","jafKRN57pU","65e2d60d637373a334e3e222","6617fad957f7c6a12ea16e26","6622ce8782e1dc7b64367c88","mask grid","p","","","","","Phylogenetic_Distractor_Nonthreat_target","800","onmask","p","5","Phylogenetic","true","experimental"
"","null","html-keyboard-response","204","761703","0.0-11.0-0.38","jafKRN57pU","65e2d60d637373a334e3e222","6617fad957f7c6a12ea16e26","6622ce8782e1dc7b64367c88","fixation cross","null","","","","","","","","","","","",""
"","null","html-keyboard-response","205","762526","0.0-11.0-1.38","jafKRN57pU","65e2d60d637373a334e3e222","6617fad957f7c6a12ea16e26","6622ce8782e1dc7b64367c88","
        <div id=""grid-container"">
        <!-- Grid items will be dynamically added here -->
    </div>    ","null","","","","","","","","","","","",""
"","962","html-keyboard-response","206","762689","0.0-11.0-2.38","jafKRN57pU","65e2d60d637373a334e3e222","6617fad957f7c6a12ea16e26","6622ce8782e1dc7b64367c88","mask grid","q","","","","","Phylogenetic_Distractor_Threat_target","800","onmask","q","4","Phylogenetic","true","experimental"
"","null","html-keyboard-response","207","763433","0.0-11.0-0.39","jafKRN57pU","65e2d60d637373a334e3e222","6617fad957f7c6a12ea16e26","6622ce8782e1dc7b64367c88","fixation cross","null","","","","","","","","","","","",""
"","null","html-keyboard-response","208","764236","0.0-11.0-1.39","jafKRN57pU","65e2d60d637373a334e3e222","6617fad957f7c6a12ea16e26","6622ce8782e1dc7b64367c88","
        <div id=""grid-container"">
        <!-- Grid items will be dynamically added here -->
    </div>    ","null","","","","","","","","","","","",""
"","1314","html-keyboard-response","209","764751","0.0-11.0-2.39","jafKRN57pU","65e2d60d637373a334e3e222","6617fad957f7c6a12ea16e26","6622ce8782e1dc7b64367c88","mask grid"," ","","","","","Phylogenetic_Distractor_Nonthreat_target","800","onmask","p","7","Phylogenetic","false","experimental"
"","9311","html-keyboard-response","210","774370","0.0-12.0","jafKRN57pU","65e2d60d637373a334e3e222","6617fad957f7c6a12ea16e26","6622ce8782e1dc7b64367c88","break screen"," ","","","","","","","","","","","",""
"","null","html-keyboard-response","211","777001","0.0-13.0-0.0","jafKRN57pU","65e2d60d637373a334e3e222","6617fad957f7c6a12ea16e26","6622ce8782e1dc7b64367c88","fixation cross","null","","","","","","","","","","","",""
"","null","html-keyboard-response","212","779505","0.0-13.0-1.0","jafKRN57pU","65e2d60d637373a334e3e222","6617fad957f7c6a12ea16e26","6622ce8782e1dc7b64367c88","
        <div id=""grid-container"">
        <!-- Grid items will be dynamically added here -->
    </div>    ","null","","","","","","","","","","","",""
"","3102","html-keyboard-response","213","780108","0.0-13.0-2.0","jafKRN57pU","65e2d60d637373a334e3e222","6617fad957f7c6a12ea16e26","6622ce8782e1dc7b64367c88","mask grid","p","","","","","Ontogenetic_Distractor_Threat_target","2500","onmask","q","1","Ontogenetic","false","experimental"
"","203","html-keyboard-response","214","780833","0.0-13.0-0.1","jafKRN57pU","65e2d60d637373a334e3e222","6617fad957f7c6a12ea16e26","6622ce8782e1dc7b64367c88","fixation cross","q","","","","","","","","","","","",""
"","1365","html-keyboard-response","215","782199","0.0-13.0-1.1","jafKRN57pU","65e2d60d637373a334e3e222","6617fad957f7c6a12ea16e26","6622ce8782e1dc7b64367c88","image grid","q","","","","","Ontogenetic_Distractor_Threat_target","2500","ongrid","q","2","Ontogenetic","true","experimental"
"","null","html-keyboard-response","216","782363","0.0-13.0-2.1","jafKRN57pU","65e2d60d637373a334e3e222","6617fad957f7c6a12ea16e26","6622ce8782e1dc7b64367c88","
    <div id=""grid-container"">
        <!-- Grid items will be dynamically added here -->
    </div>    ","null","","","","","","","","","","","",""
"","null","html-keyboard-response","217","783086","0.0-13.0-0.2","jafKRN57pU","65e2d60d637373a334e3e222","6617fad957f7c6a12ea16e26","6622ce8782e1dc7b64367c88","fixation cross","null","","","","","","","","","","","",""
"","1746","html-keyboard-response","218","784833","0.0-13.0-1.2","jafKRN57pU","65e2d60d637373a334e3e222","6617fad957f7c6a12ea16e26","6622ce8782e1dc7b64367c88","image grid","q","","","","","Ontogenetic_Distractor_Threat_target","2500","ongrid","q","8","Ontogenetic","true","experimental"
"","null","html-keyboard-response","219","784988","0.0-13.0-2.2","jafKRN57pU","65e2d60d637373a334e3e222","6617fad957f7c6a12ea16e26","6622ce8782e1dc7b64367c88","
    <div id=""grid-container"">
        <!-- Grid items will be dynamically added here -->
    </div>    ","null","","","","","","","","","","","",""
"","null","html-keyboard-response","220","785718","0.0-13.0-0.3","jafKRN57pU","65e2d60d637373a334e3e222","6617fad957f7c6a12ea16e26","6622ce8782e1dc7b64367c88","fixation cross","null","","","","","","","","","","","",""
"","1524","html-keyboard-response","221","787243","0.0-13.0-1.3","jafKRN57pU","65e2d60d637373a334e3e222","6617fad957f7c6a12ea16e26","6622ce8782e1dc7b64367c88","image grid","p","","","","","Ontogenetic_Distractor_Nonthreat_target","2500","ongrid","p","7","Ontogenetic","true","experimental"
"","null","html-keyboard-response","222","787401","0.0-13.0-2.3","jafKRN57pU","65e2d60d637373a334e3e222","6617fad957f7c6a12ea16e26","6622ce8782e1dc7b64367c88","
    <div id=""grid-container"">
        <!-- Grid items will be dynamically added here -->
    </div>    ","null","","","","","","","","","","","",""
"","null","html-keyboard-response","223","788113","0.0-13.0-0.4","jafKRN57pU","65e2d60d637373a334e3e222","6617fad957f7c6a12ea16e26","6622ce8782e1dc7b64367c88","fixation cross","null","","","","","","","","","","","",""
"","1358","html-keyboard-response","224","789472","0.0-13.0-1.4","jafKRN57pU","65e2d60d637373a334e3e222","6617fad957f7c6a12ea16e26","6622ce8782e1dc7b64367c88","image grid","p","","","","","Ontogenetic_Distractor_Nonthreat_target","2500","ongrid","p","5","Ontogenetic","true","experimental"
"","null","html-keyboard-response","225","789629","0.0-13.0-2.4","jafKRN57pU","65e2d60d637373a334e3e222","6617fad957f7c6a12ea16e26","6622ce8782e1dc7b64367c88","
    <div id=""grid-container"">
        <!-- Grid items will be dynamically added here -->
    </div>    ","null","","","","","","","","","","","",""
"","null","html-keyboard-response","226","790352","0.0-13.0-0.5","jafKRN57pU","65e2d60d637373a334e3e222","6617fad957f7c6a12ea16e26","6622ce8782e1dc7b64367c88","fixation cross","null","","","","","","","","","","","",""
"","1253","html-keyboard-response","227","791603","0.0-13.0-1.5","jafKRN57pU","65e2d60d637373a334e3e222","6617fad957f7c6a12ea16e26","6622ce8782e1dc7b64367c88","image grid"," ","","","","","Ontogenetic_Distractor_notarget","2500","ongrid"," ","9","Ontogenetic","true","experimental"
"","null","html-keyboard-response","228","791762","0.0-13.0-2.5","jafKRN57pU","65e2d60d637373a334e3e222","6617fad957f7c6a12ea16e26","6622ce8782e1dc7b64367c88","
    <div id=""grid-container"">
        <!-- Grid items will be dynamically added here -->
    </div>    ","null","","","","","","","","","","","",""
"","null","html-keyboard-response","229","792482","0.0-13.0-0.6","jafKRN57pU","65e2d60d637373a334e3e222","6617fad957f7c6a12ea16e26","6622ce8782e1dc7b64367c88","fixation cross","null","","","","","","","","","","","",""
"","1645","html-keyboard-response","230","794128","0.0-13.0-1.6","jafKRN57pU","65e2d60d637373a334e3e222","6617fad957f7c6a12ea16e26","6622ce8782e1dc7b64367c88","image grid","q","","","","","Ontogenetic_Distractor_Threat_target","2500","ongrid","q","9","Ontogenetic","true","experimental"
"","null","html-keyboard-response","231","794295","0.0-13.0-2.6","jafKRN57pU","65e2d60d637373a334e3e222","6617fad957f7c6a12ea16e26","6622ce8782e1dc7b64367c88","
    <div id=""grid-container"">
        <!-- Grid items will be dynamically added here -->
    </div>    ","null","","","","","","","","","","","",""
"","null","html-keyboard-response","232","795021","0.0-13.0-0.7","jafKRN57pU","65e2d60d637373a334e3e222","6617fad957f7c6a12ea16e26","6622ce8782e1dc7b64367c88","fixation cross","null","","","","","","","","","","","",""
"","1677","html-keyboard-response","233","796699","0.0-13.0-1.7","jafKRN57pU","65e2d60d637373a334e3e222","6617fad957f7c6a12ea16e26","6622ce8782e1dc7b64367c88","image grid"," ","","","","","Ontogenetic_Distractor_Threat_target","2500","ongrid","q","7","Ontogenetic","false","experimental"
"","null","html-keyboard-response","234","796859","0.0-13.0-2.7","jafKRN57pU","65e2d60d637373a334e3e222","6617fad957f7c6a12ea16e26","6622ce8782e1dc7b64367c88","
    <div id=""grid-container"">
        <!-- Grid items will be dynamically added here -->
    </div>    ","null","","","","","","","","","","","",""
"","null","html-keyboard-response","235","797576","0.0-13.0-0.8","jafKRN57pU","65e2d60d637373a334e3e222","6617fad957f7c6a12ea16e26","6622ce8782e1dc7b64367c88","fixation cross","null","","","","","","","","","","","",""
"","1097","html-keyboard-response","236","798674","0.0-13.0-1.8","jafKRN57pU","65e2d60d637373a334e3e222","6617fad957f7c6a12ea16e26","6622ce8782e1dc7b64367c88","image grid","p","","","","","Ontogenetic_Distractor_Nonthreat_target","2500","ongrid","p","4","Ontogenetic","true","experimental"
"","null","html-keyboard-response","237","798827","0.0-13.0-2.8","jafKRN57pU","65e2d60d637373a334e3e222","6617fad957f7c6a12ea16e26","6622ce8782e1dc7b64367c88","
    <div id=""grid-container"">
        <!-- Grid items will be dynamically added here -->
    </div>    ","null","","","","","","","","","","","",""
"","null","html-keyboard-response","238","799549","0.0-13.0-0.9","jafKRN57pU","65e2d60d637373a334e3e222","6617fad957f7c6a12ea16e26","6622ce8782e1dc7b64367c88","fixation cross","null","","","","","","","","","","","",""
"","1375","html-keyboard-response","239","800927","0.0-13.0-1.9","jafKRN57pU","65e2d60d637373a334e3e222","6617fad957f7c6a12ea16e26","6622ce8782e1dc7b64367c88","image grid"," ","","","","","Ontogenetic_Distractor_notarget","2500","ongrid"," ","2","Ontogenetic","true","experimental"
"","null","html-keyboard-response","240","801093","0.0-13.0-2.9","jafKRN57pU","65e2d60d637373a334e3e222","6617fad957f7c6a12ea16e26","6622ce8782e1dc7b64367c88","
    <div id=""grid-container"">
        <!-- Grid items will be dynamically added here -->
    </div>    ","null","","","","","","","","","","","",""
"","null","html-keyboard-response","241","801813","0.0-13.0-0.10","jafKRN57pU","65e2d60d637373a334e3e222","6617fad957f7c6a12ea16e26","6622ce8782e1dc7b64367c88","fixation cross","null","","","","","","","","","","","",""
"","1017","html-keyboard-response","242","802833","0.0-13.0-1.10","jafKRN57pU","65e2d60d637373a334e3e222","6617fad957f7c6a12ea16e26","6622ce8782e1dc7b64367c88","image grid","p","","","","","Ontogenetic_Distractor_Nonthreat_target","2500","ongrid","p","5","Ontogenetic","true","experimental"
"","null","html-keyboard-response","243","803009","0.0-13.0-2.10","jafKRN57pU","65e2d60d637373a334e3e222","6617fad957f7c6a12ea16e26","6622ce8782e1dc7b64367c88","
    <div id=""grid-container"">
        <!-- Grid items will be dynamically added here -->
    </div>    ","null","","","","","","","","","","","",""
"","null","html-keyboard-response","244","803724","0.0-13.0-0.11","jafKRN57pU","65e2d60d637373a334e3e222","6617fad957f7c6a12ea16e26","6622ce8782e1dc7b64367c88","fixation cross","null","","","","","","","","","","","",""
"","802","html-keyboard-response","245","804528","0.0-13.0-1.11","jafKRN57pU","65e2d60d637373a334e3e222","6617fad957f7c6a12ea16e26","6622ce8782e1dc7b64367c88","image grid","p","","","","","Ontogenetic_Distractor_Nonthreat_target","2500","ongrid","p","2","Ontogenetic","true","experimental"
"","null","html-keyboard-response","246","804697","0.0-13.0-2.11","jafKRN57pU","65e2d60d637373a334e3e222","6617fad957f7c6a12ea16e26","6622ce8782e1dc7b64367c88","
    <div id=""grid-container"">
        <!-- Grid items will be dynamically added here -->
    </div>    ","null","","","","","","","","","","","",""
"","null","html-keyboard-response","247","805414","0.0-13.0-0.12","jafKRN57pU","65e2d60d637373a334e3e222","6617fad957f7c6a12ea16e26","6622ce8782e1dc7b64367c88","fixation cross","null","","","","","","","","","","","",""
"","760","html-keyboard-response","248","806176","0.0-13.0-1.12","jafKRN57pU","65e2d60d637373a334e3e222","6617fad957f7c6a12ea16e26","6622ce8782e1dc7b64367c88","image grid","p","","","","","Ontogenetic_Distractor_Nonthreat_target","2500","ongrid","p","2","Ontogenetic","true","experimental"
"","null","html-keyboard-response","249","806350","0.0-13.0-2.12","jafKRN57pU","65e2d60d637373a334e3e222","6617fad957f7c6a12ea16e26","6622ce8782e1dc7b64367c88","
    <div id=""grid-container"">
        <!-- Grid items will be dynamically added here -->
    </div>    ","null","","","","","","","","","","","",""
"","null","html-keyboard-response","250","807080","0.0-13.0-0.13","jafKRN57pU","65e2d60d637373a334e3e222","6617fad957f7c6a12ea16e26","6622ce8782e1dc7b64367c88","fixation cross","null","","","","","","","","","","","",""
"","1895","html-keyboard-response","251","808976","0.0-13.0-1.13","jafKRN57pU","65e2d60d637373a334e3e222","6617fad957f7c6a12ea16e26","6622ce8782e1dc7b64367c88","image grid","q","","","","","Ontogenetic_Distractor_Threat_target","2500","ongrid","q","7","Ontogenetic","true","experimental"
"","null","html-keyboard-response","252","809141","0.0-13.0-2.13","jafKRN57pU","65e2d60d637373a334e3e222","6617fad957f7c6a12ea16e26","6622ce8782e1dc7b64367c88","
    <div id=""grid-container"">
        <!-- Grid items will be dynamically added here -->
    </div>    ","null","","","","","","","","","","","",""
"","null","html-keyboard-response","253","809861","0.0-13.0-0.14","jafKRN57pU","65e2d60d637373a334e3e222","6617fad957f7c6a12ea16e26","6622ce8782e1dc7b64367c88","fixation cross","null","","","","","","","","","","","",""
"","1437","html-keyboard-response","254","811299","0.0-13.0-1.14","jafKRN57pU","65e2d60d637373a334e3e222","6617fad957f7c6a12ea16e26","6622ce8782e1dc7b64367c88","image grid","q","","","","","Ontogenetic_Distractor_Threat_target","2500","ongrid","q","2","Ontogenetic","true","experimental"
"","null","html-keyboard-response","255","811459","0.0-13.0-2.14","jafKRN57pU","65e2d60d637373a334e3e222","6617fad957f7c6a12ea16e26","6622ce8782e1dc7b64367c88","
    <div id=""grid-container"">
        <!-- Grid items will be dynamically added here -->
    </div>    ","null","","","","","","","","","","","",""
"","null","html-keyboard-response","256","812175","0.0-13.0-0.15","jafKRN57pU","65e2d60d637373a334e3e222","6617fad957f7c6a12ea16e26","6622ce8782e1dc7b64367c88","fixation cross","null","","","","","","","","","","","",""
"","1557","html-keyboard-response","257","813733","0.0-13.0-1.15","jafKRN57pU","65e2d60d637373a334e3e222","6617fad957f7c6a12ea16e26","6622ce8782e1dc7b64367c88","image grid","q","","","","","Ontogenetic_Distractor_Threat_target","2500","ongrid","q","3","Ontogenetic","true","experimental"
"","null","html-keyboard-response","258","813891","0.0-13.0-2.15","jafKRN57pU","65e2d60d637373a334e3e222","6617fad957f7c6a12ea16e26","6622ce8782e1dc7b64367c88","
    <div id=""grid-container"">
        <!-- Grid items will be dynamically added here -->
    </div>    ","null","","","","","","","","","","","",""
"","null","html-keyboard-response","259","814605","0.0-13.0-0.16","jafKRN57pU","65e2d60d637373a334e3e222","6617fad957f7c6a12ea16e26","6622ce8782e1dc7b64367c88","fixation cross","null","","","","","","","","","","","",""
"","903","html-keyboard-response","260","815509","0.0-13.0-1.16","jafKRN57pU","65e2d60d637373a334e3e222","6617fad957f7c6a12ea16e26","6622ce8782e1dc7b64367c88","image grid","p","","","","","Ontogenetic_Distractor_Nonthreat_target","2500","ongrid","p","5","Ontogenetic","true","experimental"
"","null","html-keyboard-response","261","815672","0.0-13.0-2.16","jafKRN57pU","65e2d60d637373a334e3e222","6617fad957f7c6a12ea16e26","6622ce8782e1dc7b64367c88","
    <div id=""grid-container"">
        <!-- Grid items will be dynamically added here -->
    </div>    ","null","","","","","","","","","","","",""
"","null","html-keyboard-response","262","816395","0.0-13.0-0.17","jafKRN57pU","65e2d60d637373a334e3e222","6617fad957f7c6a12ea16e26","6622ce8782e1dc7b64367c88","fixation cross","null","","","","","","","","","","","",""
"","1805","html-keyboard-response","263","818201","0.0-13.0-1.17","jafKRN57pU","65e2d60d637373a334e3e222","6617fad957f7c6a12ea16e26","6622ce8782e1dc7b64367c88","image grid","p","","","","","Ontogenetic_Distractor_Threat_target","2500","ongrid","q","4","Ontogenetic","false","experimental"
"","null","html-keyboard-response","264","818366","0.0-13.0-2.17","jafKRN57pU","65e2d60d637373a334e3e222","6617fad957f7c6a12ea16e26","6622ce8782e1dc7b64367c88","
    <div id=""grid-container"">
        <!-- Grid items will be dynamically added here -->
    </div>    ","null","","","","","","","","","","","",""
"","null","html-keyboard-response","265","819080","0.0-13.0-0.18","jafKRN57pU","65e2d60d637373a334e3e222","6617fad957f7c6a12ea16e26","6622ce8782e1dc7b64367c88","fixation cross","null","","","","","","","","","","","",""
"","1317","html-keyboard-response","266","820398","0.0-13.0-1.18","jafKRN57pU","65e2d60d637373a334e3e222","6617fad957f7c6a12ea16e26","6622ce8782e1dc7b64367c88","image grid","q","","","","","Ontogenetic_Distractor_Threat_target","2500","ongrid","q","6","Ontogenetic","true","experimental"
"","null","html-keyboard-response","267","820556","0.0-13.0-2.18","jafKRN57pU","65e2d60d637373a334e3e222","6617fad957f7c6a12ea16e26","6622ce8782e1dc7b64367c88","
    <div id=""grid-container"">
        <!-- Grid items will be dynamically added here -->
    </div>    ","null","","","","","","","","","","","",""
"","null","html-keyboard-response","268","821296","0.0-13.0-0.19","jafKRN57pU","65e2d60d637373a334e3e222","6617fad957f7c6a12ea16e26","6622ce8782e1dc7b64367c88","fixation cross","null","","","","","","","","","","","",""
"","1619","html-keyboard-response","269","822916","0.0-13.0-1.19","jafKRN57pU","65e2d60d637373a334e3e222","6617fad957f7c6a12ea16e26","6622ce8782e1dc7b64367c88","image grid","q","","","","","Ontogenetic_Distractor_Threat_target","2500","ongrid","q","6","Ontogenetic","true","experimental"
"","null","html-keyboard-response","270","823071","0.0-13.0-2.19","jafKRN57pU","65e2d60d637373a334e3e222","6617fad957f7c6a12ea16e26","6622ce8782e1dc7b64367c88","
    <div id=""grid-container"">
        <!-- Grid items will be dynamically added here -->
    </div>    ","null","","","","","","","","","","","",""
"","null","html-keyboard-response","271","823780","0.0-13.0-0.20","jafKRN57pU","65e2d60d637373a334e3e222","6617fad957f7c6a12ea16e26","6622ce8782e1dc7b64367c88","fixation cross","null","","","","","","","","","","","",""
"","1301","html-keyboard-response","272","825082","0.0-13.0-1.20","jafKRN57pU","65e2d60d637373a334e3e222","6617fad957f7c6a12ea16e26","6622ce8782e1dc7b64367c88","image grid"," ","","","","","Ontogenetic_Distractor_notarget","2500","ongrid"," ","1","Ontogenetic","true","experimental"
"","null","html-keyboard-response","273","825240","0.0-13.0-2.20","jafKRN57pU","65e2d60d637373a334e3e222","6617fad957f7c6a12ea16e26","6622ce8782e1dc7b64367c88","
    <div id=""grid-container"">
        <!-- Grid items will be dynamically added here -->
    </div>    ","null","","","","","","","","","","","",""
"","null","html-keyboard-response","274","825956","0.0-13.0-0.21","jafKRN57pU","65e2d60d637373a334e3e222","6617fad957f7c6a12ea16e26","6622ce8782e1dc7b64367c88","fixation cross","null","","","","","","","","","","","",""
"","789","html-keyboard-response","275","826746","0.0-13.0-1.21","jafKRN57pU","65e2d60d637373a334e3e222","6617fad957f7c6a12ea16e26","6622ce8782e1dc7b64367c88","image grid","p","","","","","Ontogenetic_Distractor_Nonthreat_target","2500","ongrid","p","5","Ontogenetic","true","experimental"
"","null","html-keyboard-response","276","826907","0.0-13.0-2.21","jafKRN57pU","65e2d60d637373a334e3e222","6617fad957f7c6a12ea16e26","6622ce8782e1dc7b64367c88","
    <div id=""grid-container"">
        <!-- Grid items will be dynamically added here -->
    </div>    ","null","","","","","","","","","","","",""
"","null","html-keyboard-response","277","827629","0.0-13.0-0.22","jafKRN57pU","65e2d60d637373a334e3e222","6617fad957f7c6a12ea16e26","6622ce8782e1dc7b64367c88","fixation cross","null","","","","","","","","","","","",""
"","623","html-keyboard-response","278","828254","0.0-13.0-1.22","jafKRN57pU","65e2d60d637373a334e3e222","6617fad957f7c6a12ea16e26","6622ce8782e1dc7b64367c88","image grid","p","","","","","Ontogenetic_Distractor_Nonthreat_target","2500","ongrid","p","2","Ontogenetic","true","experimental"
"","null","html-keyboard-response","279","828423","0.0-13.0-2.22","jafKRN57pU","65e2d60d637373a334e3e222","6617fad957f7c6a12ea16e26","6622ce8782e1dc7b64367c88","
    <div id=""grid-container"">
        <!-- Grid items will be dynamically added here -->
    </div>    ","null","","","","","","","","","","","",""
"","null","html-keyboard-response","280","829140","0.0-13.0-0.23","jafKRN57pU","65e2d60d637373a334e3e222","6617fad957f7c6a12ea16e26","6622ce8782e1dc7b64367c88","fixation cross","null","","","","","","","","","","","",""
"","1094","html-keyboard-response","281","830236","0.0-13.0-1.23","jafKRN57pU","65e2d60d637373a334e3e222","6617fad957f7c6a12ea16e26","6622ce8782e1dc7b64367c88","image grid"," ","","","","","Ontogenetic_Distractor_notarget","2500","ongrid"," ","2","Ontogenetic","true","experimental"
"","null","html-keyboard-response","282","830393","0.0-13.0-2.23","jafKRN57pU","65e2d60d637373a334e3e222","6617fad957f7c6a12ea16e26","6622ce8782e1dc7b64367c88","
    <div id=""grid-container"">
        <!-- Grid items will be dynamically added here -->
    </div>    ","null","","","","","","","","","","","",""
"","null","html-keyboard-response","283","831111","0.0-13.0-0.24","jafKRN57pU","65e2d60d637373a334e3e222","6617fad957f7c6a12ea16e26","6622ce8782e1dc7b64367c88","fixation cross","null","","","","","","","","","","","",""
"","725","html-keyboard-response","284","831838","0.0-13.0-1.24","jafKRN57pU","65e2d60d637373a334e3e222","6617fad957f7c6a12ea16e26","6622ce8782e1dc7b64367c88","image grid","p","","","","","Ontogenetic_Distractor_Nonthreat_target","2500","ongrid","p","3","Ontogenetic","true","experimental"
"","null","html-keyboard-response","285","832007","0.0-13.0-2.24","jafKRN57pU","65e2d60d637373a334e3e222","6617fad957f7c6a12ea16e26","6622ce8782e1dc7b64367c88","
    <div id=""grid-container"">
        <!-- Grid items will be dynamically added here -->
    </div>    ","null","","","","","","","","","","","",""
"","null","html-keyboard-response","286","832728","0.0-13.0-0.25","jafKRN57pU","65e2d60d637373a334e3e222","6617fad957f7c6a12ea16e26","6622ce8782e1dc7b64367c88","fixation cross","null","","","","","","","","","","","",""
"","683","html-keyboard-response","287","833413","0.0-13.0-1.25","jafKRN57pU","65e2d60d637373a334e3e222","6617fad957f7c6a12ea16e26","6622ce8782e1dc7b64367c88","image grid","p","","","","","Ontogenetic_Distractor_Nonthreat_target","2500","ongrid","p","3","Ontogenetic","true","experimental"
"","null","html-keyboard-response","288","833573","0.0-13.0-2.25","jafKRN57pU","65e2d60d637373a334e3e222","6617fad957f7c6a12ea16e26","6622ce8782e1dc7b64367c88","
    <div id=""grid-container"">
        <!-- Grid items will be dynamically added here -->
    </div>    ","null","","","","","","","","","","","",""
"","null","html-keyboard-response","289","834288","0.0-13.0-0.26","jafKRN57pU","65e2d60d637373a334e3e222","6617fad957f7c6a12ea16e26","6622ce8782e1dc7b64367c88","fixation cross","null","","","","","","","","","","","",""
"","1283","html-keyboard-response","290","835572","0.0-13.0-1.26","jafKRN57pU","65e2d60d637373a334e3e222","6617fad957f7c6a12ea16e26","6622ce8782e1dc7b64367c88","image grid","p","","","","","Ontogenetic_Distractor_Nonthreat_target","2500","ongrid","p","7","Ontogenetic","true","experimental"
"","null","html-keyboard-response","291","835736","0.0-13.0-2.26","jafKRN57pU","65e2d60d637373a334e3e222","6617fad957f7c6a12ea16e26","6622ce8782e1dc7b64367c88","
    <div id=""grid-container"">
        <!-- Grid items will be dynamically added here -->
    </div>    ","null","","","","","","","","","","","",""
"","null","html-keyboard-response","292","836460","0.0-13.0-0.27","jafKRN57pU","65e2d60d637373a334e3e222","6617fad957f7c6a12ea16e26","6622ce8782e1dc7b64367c88","fixation cross","null","","","","","","","","","","","",""
"","1482","html-keyboard-response","293","837943","0.0-13.0-1.27","jafKRN57pU","65e2d60d637373a334e3e222","6617fad957f7c6a12ea16e26","6622ce8782e1dc7b64367c88","image grid","q","","","","","Ontogenetic_Distractor_Threat_target","2500","ongrid","q","2","Ontogenetic","true","experimental"
"","null","html-keyboard-response","294","838099","0.0-13.0-2.27","jafKRN57pU","65e2d60d637373a334e3e222","6617fad957f7c6a12ea16e26","6622ce8782e1dc7b64367c88","
    <div id=""grid-container"">
        <!-- Grid items will be dynamically added here -->
    </div>    ","null","","","","","","","","","","","",""
"","null","html-keyboard-response","295","838806","0.0-13.0-0.28","jafKRN57pU","65e2d60d637373a334e3e222","6617fad957f7c6a12ea16e26","6622ce8782e1dc7b64367c88","fixation cross","null","","","","","","","","","","","",""
"","835","html-keyboard-response","296","839643","0.0-13.0-1.28","jafKRN57pU","65e2d60d637373a334e3e222","6617fad957f7c6a12ea16e26","6622ce8782e1dc7b64367c88","image grid","p","","","","","Ontogenetic_Distractor_Nonthreat_target","2500","ongrid","p","1","Ontogenetic","true","experimental"
"","null","html-keyboard-response","297","839806","0.0-13.0-2.28","jafKRN57pU","65e2d60d637373a334e3e222","6617fad957f7c6a12ea16e26","6622ce8782e1dc7b64367c88","
    <div id=""grid-container"">
        <!-- Grid items will be dynamically added here -->
    </div>    ","null","","","","","","","","","","","",""
"","null","html-keyboard-response","298","840522","0.0-13.0-0.29","jafKRN57pU","65e2d60d637373a334e3e222","6617fad957f7c6a12ea16e26","6622ce8782e1dc7b64367c88","fixation cross","null","","","","","","","","","","","",""
"","1682","html-keyboard-response","299","842205","0.0-13.0-1.29","jafKRN57pU","65e2d60d637373a334e3e222","6617fad957f7c6a12ea16e26","6622ce8782e1dc7b64367c88","image grid","q","","","","","Ontogenetic_Distractor_Threat_target","2500","ongrid","q","3","Ontogenetic","true","experimental"
"","null","html-keyboard-response","300","842372","0.0-13.0-2.29","jafKRN57pU","65e2d60d637373a334e3e222","6617fad957f7c6a12ea16e26","6622ce8782e1dc7b64367c88","
    <div id=""grid-container"">
        <!-- Grid items will be dynamically added here -->
    </div>    ","null","","","","","","","","","","","",""
"","null","html-keyboard-response","301","843088","0.0-13.0-0.30","jafKRN57pU","65e2d60d637373a334e3e222","6617fad957f7c6a12ea16e26","6622ce8782e1dc7b64367c88","fixation cross","null","","","","","","","","","","","",""
"","909","html-keyboard-response","302","843998","0.0-13.0-1.30","jafKRN57pU","65e2d60d637373a334e3e222","6617fad957f7c6a12ea16e26","6622ce8782e1dc7b64367c88","image grid","p","","","","","Ontogenetic_Distractor_Nonthreat_target","2500","ongrid","p","3","Ontogenetic","true","experimental"
"","null","html-keyboard-response","303","844165","0.0-13.0-2.30","jafKRN57pU","65e2d60d637373a334e3e222","6617fad957f7c6a12ea16e26","6622ce8782e1dc7b64367c88","
    <div id=""grid-container"">
        <!-- Grid items will be dynamically added here -->
    </div>    ","null","","","","","","","","","","","",""
"","null","html-keyboard-response","304","844880","0.0-13.0-0.31","jafKRN57pU","65e2d60d637373a334e3e222","6617fad957f7c6a12ea16e26","6622ce8782e1dc7b64367c88","fixation cross","null","","","","","","","","","","","",""
"","1843","html-keyboard-response","305","846725","0.0-13.0-1.31","jafKRN57pU","65e2d60d637373a334e3e222","6617fad957f7c6a12ea16e26","6622ce8782e1dc7b64367c88","image grid","q","","","","","Ontogenetic_Distractor_Threat_target","2500","ongrid","q","9","Ontogenetic","true","experimental"
"","null","html-keyboard-response","306","846882","0.0-13.0-2.31","jafKRN57pU","65e2d60d637373a334e3e222","6617fad957f7c6a12ea16e26","6622ce8782e1dc7b64367c88","
    <div id=""grid-container"">
        <!-- Grid items will be dynamically added here -->
    </div>    ","null","","","","","","","","","","","",""
"","null","html-keyboard-response","307","847588","0.0-13.0-0.32","jafKRN57pU","65e2d60d637373a334e3e222","6617fad957f7c6a12ea16e26","6622ce8782e1dc7b64367c88","fixation cross","null","","","","","","","","","","","",""
"","866","html-keyboard-response","308","848456","0.0-13.0-1.32","jafKRN57pU","65e2d60d637373a334e3e222","6617fad957f7c6a12ea16e26","6622ce8782e1dc7b64367c88","image grid","p","","","","","Ontogenetic_Distractor_Nonthreat_target","2500","ongrid","p","1","Ontogenetic","true","experimental"
"","null","html-keyboard-response","309","848623","0.0-13.0-2.32","jafKRN57pU","65e2d60d637373a334e3e222","6617fad957f7c6a12ea16e26","6622ce8782e1dc7b64367c88","
    <div id=""grid-container"">
        <!-- Grid items will be dynamically added here -->
    </div>    ","null","","","","","","","","","","","",""
"","null","html-keyboard-response","310","849338","0.0-13.0-0.33","jafKRN57pU","65e2d60d637373a334e3e222","6617fad957f7c6a12ea16e26","6622ce8782e1dc7b64367c88","fixation cross","null","","","","","","","","","","","",""
"","1564","html-keyboard-response","311","850904","0.0-13.0-1.33","jafKRN57pU","65e2d60d637373a334e3e222","6617fad957f7c6a12ea16e26","6622ce8782e1dc7b64367c88","image grid","q","","","","","Ontogenetic_Distractor_Threat_target","2500","ongrid","q","6","Ontogenetic","true","experimental"
"","null","html-keyboard-response","312","851072","0.0-13.0-2.33","jafKRN57pU","65e2d60d637373a334e3e222","6617fad957f7c6a12ea16e26","6622ce8782e1dc7b64367c88","
    <div id=""grid-container"">
        <!-- Grid items will be dynamically added here -->
    </div>    ","null","","","","","","","","","","","",""
"","null","html-keyboard-response","313","851790","0.0-13.0-0.34","jafKRN57pU","65e2d60d637373a334e3e222","6617fad957f7c6a12ea16e26","6622ce8782e1dc7b64367c88","fixation cross","null","","","","","","","","","","","",""
"","700","html-keyboard-response","314","852491","0.0-13.0-1.34","jafKRN57pU","65e2d60d637373a334e3e222","6617fad957f7c6a12ea16e26","6622ce8782e1dc7b64367c88","image grid","p","","","","","Ontogenetic_Distractor_Nonthreat_target","2500","ongrid","p","5","Ontogenetic","true","experimental"
"","null","html-keyboard-response","315","852658","0.0-13.0-2.34","jafKRN57pU","65e2d60d637373a334e3e222","6617fad957f7c6a12ea16e26","6622ce8782e1dc7b64367c88","
    <div id=""grid-container"">
        <!-- Grid items will be dynamically added here -->
    </div>    ","null","","","","","","","","","","","",""
"","null","html-keyboard-response","316","853373","0.0-13.0-0.35","jafKRN57pU","65e2d60d637373a334e3e222","6617fad957f7c6a12ea16e26","6622ce8782e1dc7b64367c88","fixation cross","null","","","","","","","","","","","",""
"","1450","html-keyboard-response","317","854824","0.0-13.0-1.35","jafKRN57pU","65e2d60d637373a334e3e222","6617fad957f7c6a12ea16e26","6622ce8782e1dc7b64367c88","image grid","q","","","","","Ontogenetic_Distractor_Threat_target","2500","ongrid","q","6","Ontogenetic","true","experimental"
"","null","html-keyboard-response","318","854991","0.0-13.0-2.35","jafKRN57pU","65e2d60d637373a334e3e222","6617fad957f7c6a12ea16e26","6622ce8782e1dc7b64367c88","
    <div id=""grid-container"">
        <!-- Grid items will be dynamically added here -->
    </div>    ","null","","","","","","","","","","","",""
"","null","html-keyboard-response","319","855713","0.0-13.0-0.36","jafKRN57pU","65e2d60d637373a334e3e222","6617fad957f7c6a12ea16e26","6622ce8782e1dc7b64367c88","fixation cross","null","","","","","","","","","","","",""
"","1269","html-keyboard-response","320","856983","0.0-13.0-1.36","jafKRN57pU","65e2d60d637373a334e3e222","6617fad957f7c6a12ea16e26","6622ce8782e1dc7b64367c88","image grid","q","","","","","Ontogenetic_Distractor_Threat_target","2500","ongrid","q","7","Ontogenetic","true","experimental"
"","null","html-keyboard-response","321","857139","0.0-13.0-2.36","jafKRN57pU","65e2d60d637373a334e3e222","6617fad957f7c6a12ea16e26","6622ce8782e1dc7b64367c88","
    <div id=""grid-container"">
        <!-- Grid items will be dynamically added here -->
    </div>    ","null","","","","","","","","","","","",""
"","null","html-keyboard-response","322","857857","0.0-13.0-0.37","jafKRN57pU","65e2d60d637373a334e3e222","6617fad957f7c6a12ea16e26","6622ce8782e1dc7b64367c88","fixation cross","null","","","","","","","","","","","",""
"","1473","html-keyboard-response","323","859331","0.0-13.0-1.37","jafKRN57pU","65e2d60d637373a334e3e222","6617fad957f7c6a12ea16e26","6622ce8782e1dc7b64367c88","image grid","q","","","","","Ontogenetic_Distractor_Threat_target","2500","ongrid","q","2","Ontogenetic","true","experimental"
"","null","html-keyboard-response","324","859492","0.0-13.0-2.37","jafKRN57pU","65e2d60d637373a334e3e222","6617fad957f7c6a12ea16e26","6622ce8782e1dc7b64367c88","
    <div id=""grid-container"">
        <!-- Grid items will be dynamically added here -->
    </div>    ","null","","","","","","","","","","","",""
"","null","html-keyboard-response","325","860211","0.0-13.0-0.38","jafKRN57pU","65e2d60d637373a334e3e222","6617fad957f7c6a12ea16e26","6622ce8782e1dc7b64367c88","fixation cross","null","","","","","","","","","","","",""
"","956","html-keyboard-response","326","861169","0.0-13.0-1.38","jafKRN57pU","65e2d60d637373a334e3e222","6617fad957f7c6a12ea16e26","6622ce8782e1dc7b64367c88","image grid","p","","","","","Ontogenetic_Distractor_Nonthreat_target","2500","ongrid","p","5","Ontogenetic","true","experimental"
"","null","html-keyboard-response","327","861324","0.0-13.0-2.38","jafKRN57pU","65e2d60d637373a334e3e222","6617fad957f7c6a12ea16e26","6622ce8782e1dc7b64367c88","
    <div id=""grid-container"">
        <!-- Grid items will be dynamically added here -->
    </div>    ","null","","","","","","","","","","","",""
"","null","html-keyboard-response","328","862039","0.0-13.0-0.39","jafKRN57pU","65e2d60d637373a334e3e222","6617fad957f7c6a12ea16e26","6622ce8782e1dc7b64367c88","fixation cross","null","","","","","","","","","","","",""
"","786","html-keyboard-response","329","862826","0.0-13.0-1.39","jafKRN57pU","65e2d60d637373a334e3e222","6617fad957f7c6a12ea16e26","6622ce8782e1dc7b64367c88","image grid","p","","","","","Ontogenetic_Distractor_Nonthreat_target","2500","ongrid","p","4","Ontogenetic","true","experimental"
"","null","html-keyboard-response","330","862992","0.0-13.0-2.39","jafKRN57pU","65e2d60d637373a334e3e222","6617fad957f7c6a12ea16e26","6622ce8782e1dc7b64367c88","
    <div id=""grid-container"">
        <!-- Grid items will be dynamically added here -->
    </div>    ","null","","","","","","","","","","","",""
"","1110","html-keyboard-response","331","864318","0.0-14.0","jafKRN57pU","65e2d60d637373a334e3e222","6617fad957f7c6a12ea16e26","6622ce8782e1dc7b64367c88","break screen"," ","","","","","","","","","","","",""
"","null","html-keyboard-response","332","866844","0.0-15.0-0.0","jafKRN57pU","65e2d60d637373a334e3e222","6617fad957f7c6a12ea16e26","6622ce8782e1dc7b64367c88","fixation cross","null","","","","","","","","","","","",""
"","null","html-keyboard-response","333","867668","0.0-15.0-1.0","jafKRN57pU","65e2d60d637373a334e3e222","6617fad957f7c6a12ea16e26","6622ce8782e1dc7b64367c88","
        <div id=""grid-container"">
        <!-- Grid items will be dynamically added here -->
    </div>    ","null","","","","","","","","","","","",""
"","1112","html-keyboard-response","334","867982","0.0-15.0-2.0","jafKRN57pU","65e2d60d637373a334e3e222","6617fad957f7c6a12ea16e26","6622ce8782e1dc7b64367c88","mask grid","q","","","","","Phylogenetic_Distractor_Threat_target","800","onmask","q","4","Phylogenetic","true","experimental"
"","null","html-keyboard-response","335","868696","0.0-15.0-0.1","jafKRN57pU","65e2d60d637373a334e3e222","6617fad957f7c6a12ea16e26","6622ce8782e1dc7b64367c88","fixation cross","null","","","","","","","","","","","",""
"","729","html-keyboard-response","336","869427","0.0-15.0-1.1","jafKRN57pU","65e2d60d637373a334e3e222","6617fad957f7c6a12ea16e26","6622ce8782e1dc7b64367c88","image grid","p","","","","","Phylogenetic_Distractor_Nonthreat_target","800","ongrid","p","5","Phylogenetic","true","experimental"
"","null","html-keyboard-response","337","869600","0.0-15.0-2.1","jafKRN57pU","65e2d60d637373a334e3e222","6617fad957f7c6a12ea16e26","6622ce8782e1dc7b64367c88","
    <div id=""grid-container"">
        <!-- Grid items will be dynamically added here -->
    </div>    ","null","","","","","","","","","","","",""
"","null","html-keyboard-response","338","870307","0.0-15.0-0.2","jafKRN57pU","65e2d60d637373a334e3e222","6617fad957f7c6a12ea16e26","6622ce8782e1dc7b64367c88","fixation cross","null","","","","","","","","","","","",""
"","null","html-keyboard-response","339","871126","0.0-15.0-1.2","jafKRN57pU","65e2d60d637373a334e3e222","6617fad957f7c6a12ea16e26","6622ce8782e1dc7b64367c88","
        <div id=""grid-container"">
        <!-- Grid items will be dynamically added here -->
    </div>    ","null","","","","","","","","","","","",""
"","1220","html-keyboard-response","340","871548","0.0-15.0-2.2","jafKRN57pU","65e2d60d637373a334e3e222","6617fad957f7c6a12ea16e26","6622ce8782e1dc7b64367c88","mask grid","p","","","","","Phylogenetic_Distractor_Threat_target","800","onmask","q","3","Phylogenetic","false","experimental"
"","null","html-keyboard-response","341","872279","0.0-15.0-0.3","jafKRN57pU","65e2d60d637373a334e3e222","6617fad957f7c6a12ea16e26","6622ce8782e1dc7b64367c88","fixation cross","null","","","","","","","","","","","",""
"","682","html-keyboard-response","342","872962","0.0-15.0-1.3","jafKRN57pU","65e2d60d637373a334e3e222","6617fad957f7c6a12ea16e26","6622ce8782e1dc7b64367c88","image grid","q","","","","","Phylogenetic_Distractor_Threat_target","800","ongrid","q","5","Phylogenetic","true","experimental"
"","null","html-keyboard-response","343","873124","0.0-15.0-2.3","jafKRN57pU","65e2d60d637373a334e3e222","6617fad957f7c6a12ea16e26","6622ce8782e1dc7b64367c88","
    <div id=""grid-container"">
        <!-- Grid items will be dynamically added here -->
    </div>    ","null","","","","","","","","","","","",""
"","null","html-keyboard-response","344","873839","0.0-15.0-0.4","jafKRN57pU","65e2d60d637373a334e3e222","6617fad957f7c6a12ea16e26","6622ce8782e1dc7b64367c88","fixation cross","null","","","","","","","","","","","",""
"","null","html-keyboard-response","345","874645","0.0-15.0-1.4","jafKRN57pU","65e2d60d637373a334e3e222","6617fad957f7c6a12ea16e26","6622ce8782e1dc7b64367c88","
        <div id=""grid-container"">
        <!-- Grid items will be dynamically added here -->
    </div>    ","null","","","","","","","","","","","",""
"","964","html-keyboard-response","346","874810","0.0-15.0-2.4","jafKRN57pU","65e2d60d637373a334e3e222","6617fad957f7c6a12ea16e26","6622ce8782e1dc7b64367c88","mask grid","p","","","","","Phylogenetic_Distractor_Nonthreat_target","800","onmask","p","7","Phylogenetic","true","experimental"
"","null","html-keyboard-response","347","875529","0.0-15.0-0.5","jafKRN57pU","65e2d60d637373a334e3e222","6617fad957f7c6a12ea16e26","6622ce8782e1dc7b64367c88","fixation cross","null","","","","","","","","","","","",""
"","791","html-keyboard-response","348","876322","0.0-15.0-1.5","jafKRN57pU","65e2d60d637373a334e3e222","6617fad957f7c6a12ea16e26","6622ce8782e1dc7b64367c88","image grid","q","","","","","Phylogenetic_Distractor_Threat_target","800","ongrid","q","1","Phylogenetic","true","experimental"
"","null","html-keyboard-response","349","876489","0.0-15.0-2.5","jafKRN57pU","65e2d60d637373a334e3e222","6617fad957f7c6a12ea16e26","6622ce8782e1dc7b64367c88","
    <div id=""grid-container"">
        <!-- Grid items will be dynamically added here -->
    </div>    ","null","","","","","","","","","","","",""
"","null","html-keyboard-response","350","877207","0.0-15.0-0.6","jafKRN57pU","65e2d60d637373a334e3e222","6617fad957f7c6a12ea16e26","6622ce8782e1dc7b64367c88","fixation cross","null","","","","","","","","","","","",""
"","null","html-keyboard-response","351","878027","0.0-15.0-1.6","jafKRN57pU","65e2d60d637373a334e3e222","6617fad957f7c6a12ea16e26","6622ce8782e1dc7b64367c88","
        <div id=""grid-container"">
        <!-- Grid items will be dynamically added here -->
    </div>    ","null","","","","","","","","","","","",""
"","1001","html-keyboard-response","352","878228","0.0-15.0-2.6","jafKRN57pU","65e2d60d637373a334e3e222","6617fad957f7c6a12ea16e26","6622ce8782e1dc7b64367c88","mask grid","p","","","","","Phylogenetic_Distractor_Nonthreat_target","800","onmask","p","3","Phylogenetic","true","experimental"
"","null","html-keyboard-response","353","878948","0.0-15.0-0.7","jafKRN57pU","65e2d60d637373a334e3e222","6617fad957f7c6a12ea16e26","6622ce8782e1dc7b64367c88","fixation cross","null","","","","","","","","","","","",""
"","null","html-keyboard-response","354","879779","0.0-15.0-1.7","jafKRN57pU","65e2d60d637373a334e3e222","6617fad957f7c6a12ea16e26","6622ce8782e1dc7b64367c88","
        <div id=""grid-container"">
        <!-- Grid items will be dynamically added here -->
    </div>    ","null","","","","","","","","","","","",""
"","897","html-keyboard-response","355","879878","0.0-15.0-2.7","jafKRN57pU","65e2d60d637373a334e3e222","6617fad957f7c6a12ea16e26","6622ce8782e1dc7b64367c88","mask grid","p","","","","","Phylogenetic_Distractor_Nonthreat_target","800","onmask","p","6","Phylogenetic","true","experimental"
"","null","html-keyboard-response","356","880590","0.0-15.0-0.8","jafKRN57pU","65e2d60d637373a334e3e222","6617fad957f7c6a12ea16e26","6622ce8782e1dc7b64367c88","fixation cross","null","","","","","","","","","","","",""
"","723","html-keyboard-response","357","881314","0.0-15.0-1.8","jafKRN57pU","65e2d60d637373a334e3e222","6617fad957f7c6a12ea16e26","6622ce8782e1dc7b64367c88","image grid","q","","","","","Phylogenetic_Distractor_Threat_target","800","ongrid","q","9","Phylogenetic","true","experimental"
"","null","html-keyboard-response","358","881476","0.0-15.0-2.8","jafKRN57pU","65e2d60d637373a334e3e222","6617fad957f7c6a12ea16e26","6622ce8782e1dc7b64367c88","
    <div id=""grid-container"">
        <!-- Grid items will be dynamically added here -->
    </div>    ","null","","","","","","","","","","","",""
"","null","html-keyboard-response","359","882189","0.0-15.0-0.9","jafKRN57pU","65e2d60d637373a334e3e222","6617fad957f7c6a12ea16e26","6622ce8782e1dc7b64367c88","fixation cross","null","","","","","","","","","","","",""
"","null","html-keyboard-response","360","883001","0.0-15.0-1.9","jafKRN57pU","65e2d60d637373a334e3e222","6617fad957f7c6a12ea16e26","6622ce8782e1dc7b64367c88","
        <div id=""grid-container"">
        <!-- Grid items will be dynamically added here -->
    </div>    ","null","","","","","","","","","","","",""
"","1141","html-keyboard-response","361","883343","0.0-15.0-2.9","jafKRN57pU","65e2d60d637373a334e3e222","6617fad957f7c6a12ea16e26","6622ce8782e1dc7b64367c88","mask grid","p","","","","","Phylogenetic_Distractor_Nonthreat_target","800","onmask","p","1","Phylogenetic","true","experimental"
"","null","html-keyboard-response","362","884062","0.0-15.0-0.10","jafKRN57pU","65e2d60d637373a334e3e222","6617fad957f7c6a12ea16e26","6622ce8782e1dc7b64367c88","fixation cross","null","","","","","","","","","","","",""
"","722","html-keyboard-response","363","884786","0.0-15.0-1.10","jafKRN57pU","65e2d60d637373a334e3e222","6617fad957f7c6a12ea16e26","6622ce8782e1dc7b64367c88","image grid","q","","","","","Phylogenetic_Distractor_Threat_target","800","ongrid","q","5","Phylogenetic","true","experimental"
"","null","html-keyboard-response","364","884940","0.0-15.0-2.10","jafKRN57pU","65e2d60d637373a334e3e222","6617fad957f7c6a12ea16e26","6622ce8782e1dc7b64367c88","
    <div id=""grid-container"">
        <!-- Grid items will be dynamically added here -->
    </div>    ","null","","","","","","","","","","","",""
"","null","html-keyboard-response","365","885662","0.0-15.0-0.11","jafKRN57pU","65e2d60d637373a334e3e222","6617fad957f7c6a12ea16e26","6622ce8782e1dc7b64367c88","fixation cross","null","","","","","","","","","","","",""
"","null","html-keyboard-response","366","886485","0.0-15.0-1.11","jafKRN57pU","65e2d60d637373a334e3e222","6617fad957f7c6a12ea16e26","6622ce8782e1dc7b64367c88","
        <div id=""grid-container"">
        <!-- Grid items will be dynamically added here -->
    </div>    ","null","","","","","","","","","","","",""
"","837","html-keyboard-response","367","886523","0.0-15.0-2.11","jafKRN57pU","65e2d60d637373a334e3e222","6617fad957f7c6a12ea16e26","6622ce8782e1dc7b64367c88","mask grid"," ","","","","","Phylogenetic_Distractor_Nonthreat_target","800","onmask","p","9","Phylogenetic","false","experimental"
"","null","html-keyboard-response","368","887244","0.0-15.0-0.12","jafKRN57pU","65e2d60d637373a334e3e222","6617fad957f7c6a12ea16e26","6622ce8782e1dc7b64367c88","fixation cross","null","","","","","","","","","","","",""
"","null","html-keyboard-response","369","888068","0.0-15.0-1.12","jafKRN57pU","65e2d60d637373a334e3e222","6617fad957f7c6a12ea16e26","6622ce8782e1dc7b64367c88","
        <div id=""grid-container"">
        <!-- Grid items will be dynamically added here -->
    </div>    ","null","","","","","","","","","","","",""
