"success","rt","trial_type","trial_index","time_elapsed","internal_node_id","unique_identifier","subject_id","study_id","session_id","stimulus","response","timeout","failed_images","failed_audio","failed_video","task","time_manipulation","respondedwhen","correctresponse","targetimagelocation","blocktype","correct","roundtype"
"true","1857","fullscreen","0","2869","0.0-0.0","84O9cZDYSD","653f02673c461bbfd79d8789","6617fad957f7c6a12ea16e26","6622cf93de5c5465f45dedb2","","","","","","","","","","","","","",""
"","1562","html-keyboard-response","1","4436","0.0-1.0","84O9cZDYSD","653f02673c461bbfd79d8789","6617fad957f7c6a12ea16e26","6622cf93de5c5465f45dedb2","instruction screen 0"," ","","","","","","","","","","","",""
"true","","preload","2","107230","0.0-2.0","84O9cZDYSD","653f02673c461bbfd79d8789","6617fad957f7c6a12ea16e26","6622cf93de5c5465f45dedb2","","","false","[]","[]","[]","","","","","","","",""
"","7187","html-keyboard-response","3","114420","0.0-3.0","84O9cZDYSD","653f02673c461bbfd79d8789","6617fad957f7c6a12ea16e26","6622cf93de5c5465f45dedb2","instruction screen 1"," ","","","","","","","","","","","",""
"","1766","html-keyboard-response","4","116234","0.0-4.0","84O9cZDYSD","653f02673c461bbfd79d8789","6617fad957f7c6a12ea16e26","6622cf93de5c5465f45dedb2","instruction screen 2","q","","","","","","","","","","","",""
"","1402","html-keyboard-response","5","117642","0.0-5.0","84O9cZDYSD","653f02673c461bbfd79d8789","6617fad957f7c6a12ea16e26","6622cf93de5c5465f45dedb2","instruction screen 3","p","","","","","","","","","","","",""
"","1242","html-keyboard-response","6","118890","0.0-6.0","84O9cZDYSD","653f02673c461bbfd79d8789","6617fad957f7c6a12ea16e26","6622cf93de5c5465f45dedb2","instruction screen 4"," ","","","","","","","","","","","",""
"","1642","html-keyboard-response","7","120538","0.0-7.0","84O9cZDYSD","653f02673c461bbfd79d8789","6617fad957f7c6a12ea16e26","6622cf93de5c5465f45dedb2","instruction screen 5"," ","","","","","","","","","","","",""
"","null","html-keyboard-response","8","121058","0.0-8.0","84O9cZDYSD","653f02673c461bbfd79d8789","6617fad957f7c6a12ea16e26","6622cf93de5c5465f45dedb2","fixation cross","null","","","","","","","","","","","",""
"","null","html-keyboard-response","9","121573","0.0-9.0-0.0","84O9cZDYSD","653f02673c461bbfd79d8789","6617fad957f7c6a12ea16e26","6622cf93de5c5465f45dedb2","fixation cross","null","","","","","","","","","","","",""
"","628","html-keyboard-response","10","122202","0.0-9.0-1.0","84O9cZDYSD","653f02673c461bbfd79d8789","6617fad957f7c6a12ea16e26","6622cf93de5c5465f45dedb2","image grid","p","","","","","Phylogenetic_Distractor_Nonthreat_target","3000","ongrid","p","9","Phylogenetic","true","practice"
"","null","html-keyboard-response","11","122368","0.0-9.0-2.0","84O9cZDYSD","653f02673c461bbfd79d8789","6617fad957f7c6a12ea16e26","6622cf93de5c5465f45dedb2","
    <div id=""grid-container"">
        <!-- Grid items will be dynamically added here -->
    </div>    ","null","","","","","","","","","","","",""
"","null","html-keyboard-response","12","123585","0.0-9.0-3.0","84O9cZDYSD","653f02673c461bbfd79d8789","6617fad957f7c6a12ea16e26","6622cf93de5c5465f45dedb2","feedback screen","null","","","","","","","","","","","",""
"","null","html-keyboard-response","13","124094","0.0-9.0-0.1","84O9cZDYSD","653f02673c461bbfd79d8789","6617fad957f7c6a12ea16e26","6622cf93de5c5465f45dedb2","fixation cross","null","","","","","","","","","","","",""
"","250","html-keyboard-response","14","124345","0.0-9.0-1.1","84O9cZDYSD","653f02673c461bbfd79d8789","6617fad957f7c6a12ea16e26","6622cf93de5c5465f45dedb2","image grid","q","","","","","Ontogenetic_Distractor_Threat_target","2900","ongrid","q","9","Phylogenetic","true","practice"
"","null","html-keyboard-response","15","124498","0.0-9.0-2.1","84O9cZDYSD","653f02673c461bbfd79d8789","6617fad957f7c6a12ea16e26","6622cf93de5c5465f45dedb2","
    <div id=""grid-container"">
        <!-- Grid items will be dynamically added here -->
    </div>    ","null","","","","","","","","","","","",""
"","null","html-keyboard-response","16","125721","0.0-9.0-3.1","84O9cZDYSD","653f02673c461bbfd79d8789","6617fad957f7c6a12ea16e26","6622cf93de5c5465f45dedb2","feedback screen","null","","","","","","","","","","","",""
"","null","html-keyboard-response","17","126245","0.0-9.0-0.2","84O9cZDYSD","653f02673c461bbfd79d8789","6617fad957f7c6a12ea16e26","6622cf93de5c5465f45dedb2","fixation cross","null","","","","","","","","","","","",""
"","419","html-keyboard-response","18","126665","0.0-9.0-1.2","84O9cZDYSD","653f02673c461bbfd79d8789","6617fad957f7c6a12ea16e26","6622cf93de5c5465f45dedb2","image grid","p","","","","","Phylogenetic_Distractor_Nonthreat_target","2800","ongrid","p","8","Phylogenetic","true","practice"
"","null","html-keyboard-response","19","126822","0.0-9.0-2.2","84O9cZDYSD","653f02673c461bbfd79d8789","6617fad957f7c6a12ea16e26","6622cf93de5c5465f45dedb2","
    <div id=""grid-container"">
        <!-- Grid items will be dynamically added here -->
    </div>    ","null","","","","","","","","","","","",""
"","null","html-keyboard-response","20","128026","0.0-9.0-3.2","84O9cZDYSD","653f02673c461bbfd79d8789","6617fad957f7c6a12ea16e26","6622cf93de5c5465f45dedb2","feedback screen","null","","","","","","","","","","","",""
"","null","html-keyboard-response","21","128539","0.0-9.0-0.3","84O9cZDYSD","653f02673c461bbfd79d8789","6617fad957f7c6a12ea16e26","6622cf93de5c5465f45dedb2","fixation cross","null","","","","","","","","","","","",""
"","500","html-keyboard-response","22","129041","0.0-9.0-1.3","84O9cZDYSD","653f02673c461bbfd79d8789","6617fad957f7c6a12ea16e26","6622cf93de5c5465f45dedb2","image grid","q","","","","","Ontogenetic_Distractor_notarget","2700","ongrid"," ","7","Phylogenetic","false","practice"
"","null","html-keyboard-response","23","129195","0.0-9.0-2.3","84O9cZDYSD","653f02673c461bbfd79d8789","6617fad957f7c6a12ea16e26","6622cf93de5c5465f45dedb2","
    <div id=""grid-container"">
        <!-- Grid items will be dynamically added here -->
    </div>    ","null","","","","","","","","","","","",""
"","null","html-keyboard-response","24","130412","0.0-9.0-3.3","84O9cZDYSD","653f02673c461bbfd79d8789","6617fad957f7c6a12ea16e26","6622cf93de5c5465f45dedb2","feedback screen","null","","","","","","","","","","","",""
"","505","html-keyboard-response","25","130922","0.0-9.0-0.4","84O9cZDYSD","653f02673c461bbfd79d8789","6617fad957f7c6a12ea16e26","6622cf93de5c5465f45dedb2","fixation cross","p","","","","","","","","","","","",""
"","287","html-keyboard-response","26","131211","0.0-9.0-1.4","84O9cZDYSD","653f02673c461bbfd79d8789","6617fad957f7c6a12ea16e26","6622cf93de5c5465f45dedb2","image grid","p","","","","","Phylogenetic_Distractor_Threat_target","2600","ongrid","q","6","Phylogenetic","false","practice"
"","null","html-keyboard-response","27","131375","0.0-9.0-2.4","84O9cZDYSD","653f02673c461bbfd79d8789","6617fad957f7c6a12ea16e26","6622cf93de5c5465f45dedb2","
    <div id=""grid-container"">
        <!-- Grid items will be dynamically added here -->
    </div>    ","null","","","","","","","","","","","",""
"","47","html-keyboard-response","28","131634","0.0-9.0-3.4","84O9cZDYSD","653f02673c461bbfd79d8789","6617fad957f7c6a12ea16e26","6622cf93de5c5465f45dedb2","feedback screen","p","","","","","","","","","","","",""
"","219","html-keyboard-response","29","132147","0.0-9.0-0.5","84O9cZDYSD","653f02673c461bbfd79d8789","6617fad957f7c6a12ea16e26","6622cf93de5c5465f45dedb2","fixation cross","p","","","","","","","","","","","",""
"","190","html-keyboard-response","30","132338","0.0-9.0-1.5","84O9cZDYSD","653f02673c461bbfd79d8789","6617fad957f7c6a12ea16e26","6622cf93de5c5465f45dedb2","image grid","p","","","","","Phylogenetic_Distractor_Nonthreat_target","2500","ongrid","p","5","Phylogenetic","true","practice"
"","158","html-keyboard-response","31","132498","0.0-9.0-2.5","84O9cZDYSD","653f02673c461bbfd79d8789","6617fad957f7c6a12ea16e26","6622cf93de5c5465f45dedb2","
    <div id=""grid-container"">
        <!-- Grid items will be dynamically added here -->
    </div>    ","q","","","","","","","","","","","",""
"","47","html-keyboard-response","32","132762","0.0-9.0-3.5","84O9cZDYSD","653f02673c461bbfd79d8789","6617fad957f7c6a12ea16e26","6622cf93de5c5465f45dedb2","feedback screen","p","","","","","","","","","","","",""
"","192","html-keyboard-response","33","133285","0.0-9.0-0.6","84O9cZDYSD","653f02673c461bbfd79d8789","6617fad957f7c6a12ea16e26","6622cf93de5c5465f45dedb2","fixation cross","q","","","","","","","","","","","",""
"","155","html-keyboard-response","34","133442","0.0-9.0-1.6","84O9cZDYSD","653f02673c461bbfd79d8789","6617fad957f7c6a12ea16e26","6622cf93de5c5465f45dedb2","image grid","p","","","","","Ontogenetic_Distractor_Nonthreat_target","2400","ongrid","p","1","Phylogenetic","true","practice"
"","null","html-keyboard-response","35","133594","0.0-9.0-2.6","84O9cZDYSD","653f02673c461bbfd79d8789","6617fad957f7c6a12ea16e26","6622cf93de5c5465f45dedb2","
    <div id=""grid-container"">
        <!-- Grid items will be dynamically added here -->
    </div>    ","null","","","","","","","","","","","",""
"","null","html-keyboard-response","36","134808","0.0-9.0-3.6","84O9cZDYSD","653f02673c461bbfd79d8789","6617fad957f7c6a12ea16e26","6622cf93de5c5465f45dedb2","feedback screen","null","","","","","","","","","","","",""
"","null","html-keyboard-response","37","135326","0.0-9.0-0.7","84O9cZDYSD","653f02673c461bbfd79d8789","6617fad957f7c6a12ea16e26","6622cf93de5c5465f45dedb2","fixation cross","null","","","","","","","","","","","",""
"","546","html-keyboard-response","38","135873","0.0-9.0-1.7","84O9cZDYSD","653f02673c461bbfd79d8789","6617fad957f7c6a12ea16e26","6622cf93de5c5465f45dedb2","image grid","q","","","","","Ontogenetic_Distractor_Threat_target","2300","ongrid","q","2","Phylogenetic","true","practice"
"","null","html-keyboard-response","39","136031","0.0-9.0-2.7","84O9cZDYSD","653f02673c461bbfd79d8789","6617fad957f7c6a12ea16e26","6622cf93de5c5465f45dedb2","
    <div id=""grid-container"">
        <!-- Grid items will be dynamically added here -->
    </div>    ","null","","","","","","","","","","","",""
"","null","html-keyboard-response","40","137248","0.0-9.0-3.7","84O9cZDYSD","653f02673c461bbfd79d8789","6617fad957f7c6a12ea16e26","6622cf93de5c5465f45dedb2","feedback screen","null","","","","","","","","","","","",""
"","378","html-keyboard-response","41","137770","0.0-9.0-0.8","84O9cZDYSD","653f02673c461bbfd79d8789","6617fad957f7c6a12ea16e26","6622cf93de5c5465f45dedb2","fixation cross","q","","","","","","","","","","","",""
"","559","html-keyboard-response","42","138330","0.0-9.0-1.8","84O9cZDYSD","653f02673c461bbfd79d8789","6617fad957f7c6a12ea16e26","6622cf93de5c5465f45dedb2","image grid","q","","","","","Ontogenetic_Distractor_Nonthreat_target","2200","ongrid","p","1","Phylogenetic","false","practice"
"","null","html-keyboard-response","43","138483","0.0-9.0-2.8","84O9cZDYSD","653f02673c461bbfd79d8789","6617fad957f7c6a12ea16e26","6622cf93de5c5465f45dedb2","
    <div id=""grid-container"">
        <!-- Grid items will be dynamically added here -->
    </div>    ","null","","","","","","","","","","","",""
"","996","html-keyboard-response","44","139690","0.0-9.0-3.8","84O9cZDYSD","653f02673c461bbfd79d8789","6617fad957f7c6a12ea16e26","6622cf93de5c5465f45dedb2","feedback screen","p","","","","","","","","","","","",""
"","null","html-keyboard-response","45","140209","0.0-9.0-0.9","84O9cZDYSD","653f02673c461bbfd79d8789","6617fad957f7c6a12ea16e26","6622cf93de5c5465f45dedb2","fixation cross","null","","","","","","","","","","","",""
"","592","html-keyboard-response","46","140802","0.0-9.0-1.9","84O9cZDYSD","653f02673c461bbfd79d8789","6617fad957f7c6a12ea16e26","6622cf93de5c5465f45dedb2","image grid","q","","","","","Phylogenetic_Distractor_notarget","2100","ongrid"," ","8","Phylogenetic","false","practice"
"","null","html-keyboard-response","47","140960","0.0-9.0-2.9","84O9cZDYSD","653f02673c461bbfd79d8789","6617fad957f7c6a12ea16e26","6622cf93de5c5465f45dedb2","
    <div id=""grid-container"">
        <!-- Grid items will be dynamically added here -->
    </div>    ","null","","","","","","","","","","","",""
"","707","html-keyboard-response","48","141882","0.0-9.0-3.9","84O9cZDYSD","653f02673c461bbfd79d8789","6617fad957f7c6a12ea16e26","6622cf93de5c5465f45dedb2","feedback screen","p","","","","","","","","","","","",""
"","null","html-keyboard-response","49","142393","0.0-9.0-0.10","84O9cZDYSD","653f02673c461bbfd79d8789","6617fad957f7c6a12ea16e26","6622cf93de5c5465f45dedb2","fixation cross","null","","","","","","","","","","","",""
"","488","html-keyboard-response","50","142882","0.0-9.0-1.10","84O9cZDYSD","653f02673c461bbfd79d8789","6617fad957f7c6a12ea16e26","6622cf93de5c5465f45dedb2","image grid","p","","","","","Ontogenetic_Distractor_notarget","2000","ongrid"," ","8","Phylogenetic","false","practice"
"","null","html-keyboard-response","51","143041","0.0-9.0-2.10","84O9cZDYSD","653f02673c461bbfd79d8789","6617fad957f7c6a12ea16e26","6622cf93de5c5465f45dedb2","
    <div id=""grid-container"">
        <!-- Grid items will be dynamically added here -->
    </div>    ","null","","","","","","","","","","","",""
"","392","html-keyboard-response","52","143650","0.0-9.0-3.10","84O9cZDYSD","653f02673c461bbfd79d8789","6617fad957f7c6a12ea16e26","6622cf93de5c5465f45dedb2","feedback screen","q","","","","","","","","","","","",""
"","null","html-keyboard-response","53","144165","0.0-9.0-0.11","84O9cZDYSD","653f02673c461bbfd79d8789","6617fad957f7c6a12ea16e26","6622cf93de5c5465f45dedb2","fixation cross","null","","","","","","","","","","","",""
"","420","html-keyboard-response","54","144586","0.0-9.0-1.11","84O9cZDYSD","653f02673c461bbfd79d8789","6617fad957f7c6a12ea16e26","6622cf93de5c5465f45dedb2","image grid","p","","","","","Ontogenetic_Distractor_Threat_target","1900","ongrid","q","4","Phylogenetic","false","practice"
"","null","html-keyboard-response","55","144751","0.0-9.0-2.11","84O9cZDYSD","653f02673c461bbfd79d8789","6617fad957f7c6a12ea16e26","6622cf93de5c5465f45dedb2","
    <div id=""grid-container"">
        <!-- Grid items will be dynamically added here -->
    </div>    ","null","","","","","","","","","","","",""
"","null","html-keyboard-response","56","145975","0.0-9.0-3.11","84O9cZDYSD","653f02673c461bbfd79d8789","6617fad957f7c6a12ea16e26","6622cf93de5c5465f45dedb2","feedback screen","null","","","","","","","","","","","",""
"","null","html-keyboard-response","57","146490","0.0-9.0-0.12","84O9cZDYSD","653f02673c461bbfd79d8789","6617fad957f7c6a12ea16e26","6622cf93de5c5465f45dedb2","fixation cross","null","","","","","","","","","","","",""
"","310","html-keyboard-response","58","146801","0.0-9.0-1.12","84O9cZDYSD","653f02673c461bbfd79d8789","6617fad957f7c6a12ea16e26","6622cf93de5c5465f45dedb2","image grid","q","","","","","Phylogenetic_Distractor_Threat_target","1800","ongrid","q","6","Phylogenetic","true","practice"
"","null","html-keyboard-response","59","146959","0.0-9.0-2.12","84O9cZDYSD","653f02673c461bbfd79d8789","6617fad957f7c6a12ea16e26","6622cf93de5c5465f45dedb2","
    <div id=""grid-container"">
        <!-- Grid items will be dynamically added here -->
    </div>    ","null","","","","","","","","","","","",""
"","null","html-keyboard-response","60","148174","0.0-9.0-3.12","84O9cZDYSD","653f02673c461bbfd79d8789","6617fad957f7c6a12ea16e26","6622cf93de5c5465f45dedb2","feedback screen","null","","","","","","","","","","","",""
"","null","html-keyboard-response","61","148683","0.0-9.0-0.13","84O9cZDYSD","653f02673c461bbfd79d8789","6617fad957f7c6a12ea16e26","6622cf93de5c5465f45dedb2","fixation cross","null","","","","","","","","","","","",""
"","694","html-keyboard-response","62","149378","0.0-9.0-1.13","84O9cZDYSD","653f02673c461bbfd79d8789","6617fad957f7c6a12ea16e26","6622cf93de5c5465f45dedb2","image grid","p","","","","","Phylogenetic_Distractor_Nonthreat_target","1700","ongrid","p","8","Phylogenetic","true","practice"
"","null","html-keyboard-response","63","149543","0.0-9.0-2.13","84O9cZDYSD","653f02673c461bbfd79d8789","6617fad957f7c6a12ea16e26","6622cf93de5c5465f45dedb2","
    <div id=""grid-container"">
        <!-- Grid items will be dynamically added here -->
    </div>    ","null","","","","","","","","","","","",""
"","null","html-keyboard-response","64","150762","0.0-9.0-3.13","84O9cZDYSD","653f02673c461bbfd79d8789","6617fad957f7c6a12ea16e26","6622cf93de5c5465f45dedb2","feedback screen","null","","","","","","","","","","","",""
"","null","html-keyboard-response","65","151269","0.0-9.0-0.14","84O9cZDYSD","653f02673c461bbfd79d8789","6617fad957f7c6a12ea16e26","6622cf93de5c5465f45dedb2","fixation cross","null","","","","","","","","","","","",""
"","683","html-keyboard-response","66","151954","0.0-9.0-1.14","84O9cZDYSD","653f02673c461bbfd79d8789","6617fad957f7c6a12ea16e26","6622cf93de5c5465f45dedb2","image grid","p","","","","","Ontogenetic_Distractor_Nonthreat_target","1600","ongrid","p","4","Phylogenetic","true","practice"
"","null","html-keyboard-response","67","152112","0.0-9.0-2.14","84O9cZDYSD","653f02673c461bbfd79d8789","6617fad957f7c6a12ea16e26","6622cf93de5c5465f45dedb2","
    <div id=""grid-container"">
        <!-- Grid items will be dynamically added here -->
    </div>    ","null","","","","","","","","","","","",""
"","null","html-keyboard-response","68","153331","0.0-9.0-3.14","84O9cZDYSD","653f02673c461bbfd79d8789","6617fad957f7c6a12ea16e26","6622cf93de5c5465f45dedb2","feedback screen","null","","","","","","","","","","","",""
"","null","html-keyboard-response","69","153841","0.0-9.0-0.15","84O9cZDYSD","653f02673c461bbfd79d8789","6617fad957f7c6a12ea16e26","6622cf93de5c5465f45dedb2","fixation cross","null","","","","","","","","","","","",""
"","null","html-keyboard-response","70","155357","0.0-9.0-1.15","84O9cZDYSD","653f02673c461bbfd79d8789","6617fad957f7c6a12ea16e26","6622cf93de5c5465f45dedb2","
        <div id=""grid-container"">
        <!-- Grid items will be dynamically added here -->
    </div>    ","null","","","","","","","","","","","",""
"","1616","html-keyboard-response","71","155474","0.0-9.0-2.15","84O9cZDYSD","653f02673c461bbfd79d8789","6617fad957f7c6a12ea16e26","6622cf93de5c5465f45dedb2","mask grid","q","","","","","Ontogenetic_Distractor_Threat_target","1500","onmask","q","7","Phylogenetic","true","practice"
"","null","html-keyboard-response","72","156687","0.0-9.0-3.15","84O9cZDYSD","653f02673c461bbfd79d8789","6617fad957f7c6a12ea16e26","6622cf93de5c5465f45dedb2","feedback screen","null","","","","","","","","","","","",""
"","null","html-keyboard-response","73","157201","0.0-9.0-0.16","84O9cZDYSD","653f02673c461bbfd79d8789","6617fad957f7c6a12ea16e26","6622cf93de5c5465f45dedb2","fixation cross","null","","","","","","","","","","","",""
"","376","html-keyboard-response","74","157578","0.0-9.0-1.16","84O9cZDYSD","653f02673c461bbfd79d8789","6617fad957f7c6a12ea16e26","6622cf93de5c5465f45dedb2","image grid","p","","","","","Ontogenetic_Distractor_Nonthreat_target","1400","ongrid","p","6","Phylogenetic","true","practice"
"","null","html-keyboard-response","75","157735","0.0-9.0-2.16","84O9cZDYSD","653f02673c461bbfd79d8789","6617fad957f7c6a12ea16e26","6622cf93de5c5465f45dedb2","
    <div id=""grid-container"">
        <!-- Grid items will be dynamically added here -->
    </div>    ","null","","","","","","","","","","","",""
"","null","html-keyboard-response","76","158952","0.0-9.0-3.16","84O9cZDYSD","653f02673c461bbfd79d8789","6617fad957f7c6a12ea16e26","6622cf93de5c5465f45dedb2","feedback screen","null","","","","","","","","","","","",""
"","null","html-keyboard-response","77","159465","0.0-9.0-0.17","84O9cZDYSD","653f02673c461bbfd79d8789","6617fad957f7c6a12ea16e26","6622cf93de5c5465f45dedb2","fixation cross","null","","","","","","","","","","","",""
"","null","html-keyboard-response","78","160775","0.0-9.0-1.17","84O9cZDYSD","653f02673c461bbfd79d8789","6617fad957f7c6a12ea16e26","6622cf93de5c5465f45dedb2","
        <div id=""grid-container"">
        <!-- Grid items will be dynamically added here -->
    </div>    ","null","","","","","","","","","","","",""
"","1590","html-keyboard-response","79","161066","0.0-9.0-2.17","84O9cZDYSD","653f02673c461bbfd79d8789","6617fad957f7c6a12ea16e26","6622cf93de5c5465f45dedb2","mask grid","p","","","","","Phylogenetic_Distractor_notarget","1300","onmask"," ","2","Phylogenetic","false","practice"
"","null","html-keyboard-response","80","162276","0.0-9.0-3.17","84O9cZDYSD","653f02673c461bbfd79d8789","6617fad957f7c6a12ea16e26","6622cf93de5c5465f45dedb2","feedback screen","null","","","","","","","","","","","",""
"","null","html-keyboard-response","81","162790","0.0-9.0-0.18","84O9cZDYSD","653f02673c461bbfd79d8789","6617fad957f7c6a12ea16e26","6622cf93de5c5465f45dedb2","fixation cross","null","","","","","","","","","","","",""
"","858","html-keyboard-response","82","163650","0.0-9.0-1.18","84O9cZDYSD","653f02673c461bbfd79d8789","6617fad957f7c6a12ea16e26","6622cf93de5c5465f45dedb2","image grid","p","","","","","Phylogenetic_Distractor_Threat_target","1200","ongrid","q","5","Phylogenetic","false","practice"
"","null","html-keyboard-response","83","163808","0.0-9.0-2.18","84O9cZDYSD","653f02673c461bbfd79d8789","6617fad957f7c6a12ea16e26","6622cf93de5c5465f45dedb2","
    <div id=""grid-container"">
        <!-- Grid items will be dynamically added here -->
    </div>    ","null","","","","","","","","","","","",""
"","null","html-keyboard-response","84","165031","0.0-9.0-3.18","84O9cZDYSD","653f02673c461bbfd79d8789","6617fad957f7c6a12ea16e26","6622cf93de5c5465f45dedb2","feedback screen","null","","","","","","","","","","","",""
"","null","html-keyboard-response","85","165548","0.0-9.0-0.19","84O9cZDYSD","653f02673c461bbfd79d8789","6617fad957f7c6a12ea16e26","6622cf93de5c5465f45dedb2","fixation cross","null","","","","","","","","","","","",""
"","645","html-keyboard-response","86","166194","0.0-9.0-1.19","84O9cZDYSD","653f02673c461bbfd79d8789","6617fad957f7c6a12ea16e26","6622cf93de5c5465f45dedb2","image grid","q","","","","","Phylogenetic_Distractor_Threat_target","1100","ongrid","q","5","Phylogenetic","true","practice"
"","null","html-keyboard-response","87","166352","0.0-9.0-2.19","84O9cZDYSD","653f02673c461bbfd79d8789","6617fad957f7c6a12ea16e26","6622cf93de5c5465f45dedb2","
    <div id=""grid-container"">
        <!-- Grid items will be dynamically added here -->
    </div>    ","null","","","","","","","","","","","",""
"","null","html-keyboard-response","88","167570","0.0-9.0-3.19","84O9cZDYSD","653f02673c461bbfd79d8789","6617fad957f7c6a12ea16e26","6622cf93de5c5465f45dedb2","feedback screen","null","","","","","","","","","","","",""
"","2047","html-keyboard-response","89","169665","0.0-10.0","84O9cZDYSD","653f02673c461bbfd79d8789","6617fad957f7c6a12ea16e26","6622cf93de5c5465f45dedb2","pre-experimental_briefing"," ","","","","","","","","","","","",""
"","null","html-keyboard-response","90","172186","0.0-11.0-0.0","84O9cZDYSD","653f02673c461bbfd79d8789","6617fad957f7c6a12ea16e26","6622cf93de5c5465f45dedb2","fixation cross","null","","","","","","","","","","","",""
"","350","html-keyboard-response","91","172537","0.0-11.0-1.0","84O9cZDYSD","653f02673c461bbfd79d8789","6617fad957f7c6a12ea16e26","6622cf93de5c5465f45dedb2","image grid","q","","","","","Phylogenetic_Distractor_Nonthreat_target","800","ongrid","p","9","Phylogenetic","false","experimental"
"","null","html-keyboard-response","92","172699","0.0-11.0-2.0","84O9cZDYSD","653f02673c461bbfd79d8789","6617fad957f7c6a12ea16e26","6622cf93de5c5465f45dedb2","
    <div id=""grid-container"">
        <!-- Grid items will be dynamically added here -->
    </div>    ","null","","","","","","","","","","","",""
"","null","html-keyboard-response","93","173424","0.0-11.0-0.1","84O9cZDYSD","653f02673c461bbfd79d8789","6617fad957f7c6a12ea16e26","6622cf93de5c5465f45dedb2","fixation cross","null","","","","","","","","","","","",""
"","377","html-keyboard-response","94","173802","0.0-11.0-1.1","84O9cZDYSD","653f02673c461bbfd79d8789","6617fad957f7c6a12ea16e26","6622cf93de5c5465f45dedb2","image grid","p","","","","","Phylogenetic_Distractor_Nonthreat_target","800","ongrid","p","2","Phylogenetic","true","experimental"
"","null","html-keyboard-response","95","173967","0.0-11.0-2.1","84O9cZDYSD","653f02673c461bbfd79d8789","6617fad957f7c6a12ea16e26","6622cf93de5c5465f45dedb2","
    <div id=""grid-container"">
        <!-- Grid items will be dynamically added here -->
    </div>    ","null","","","","","","","","","","","",""
"","null","html-keyboard-response","96","174687","0.0-11.0-0.2","84O9cZDYSD","653f02673c461bbfd79d8789","6617fad957f7c6a12ea16e26","6622cf93de5c5465f45dedb2","fixation cross","null","","","","","","","","","","","",""
"","433","html-keyboard-response","97","175121","0.0-11.0-1.2","84O9cZDYSD","653f02673c461bbfd79d8789","6617fad957f7c6a12ea16e26","6622cf93de5c5465f45dedb2","image grid","p","","","","","Phylogenetic_Distractor_Threat_target","800","ongrid","q","5","Phylogenetic","false","experimental"
"","null","html-keyboard-response","98","175273","0.0-11.0-2.2","84O9cZDYSD","653f02673c461bbfd79d8789","6617fad957f7c6a12ea16e26","6622cf93de5c5465f45dedb2","
    <div id=""grid-container"">
        <!-- Grid items will be dynamically added here -->
    </div>    ","null","","","","","","","","","","","",""
"","null","html-keyboard-response","99","175994","0.0-11.0-0.3","84O9cZDYSD","653f02673c461bbfd79d8789","6617fad957f7c6a12ea16e26","6622cf93de5c5465f45dedb2","fixation cross","null","","","","","","","","","","","",""
"","407","html-keyboard-response","100","176411","0.0-11.0-1.3","84O9cZDYSD","653f02673c461bbfd79d8789","6617fad957f7c6a12ea16e26","6622cf93de5c5465f45dedb2","image grid","p","","","","","Phylogenetic_Distractor_Threat_target","800","ongrid","q","9","Phylogenetic","false","experimental"
"","null","html-keyboard-response","101","176572","0.0-11.0-2.3","84O9cZDYSD","653f02673c461bbfd79d8789","6617fad957f7c6a12ea16e26","6622cf93de5c5465f45dedb2","
    <div id=""grid-container"">
        <!-- Grid items will be dynamically added here -->
    </div>    ","null","","","","","","","","","","","",""
"","null","html-keyboard-response","102","177301","0.0-11.0-0.4","84O9cZDYSD","653f02673c461bbfd79d8789","6617fad957f7c6a12ea16e26","6622cf93de5c5465f45dedb2","fixation cross","null","","","","","","","","","","","",""
"","484","html-keyboard-response","103","177786","0.0-11.0-1.4","84O9cZDYSD","653f02673c461bbfd79d8789","6617fad957f7c6a12ea16e26","6622cf93de5c5465f45dedb2","image grid","p","","","","","Phylogenetic_Distractor_Threat_target","800","ongrid","q","1","Phylogenetic","false","experimental"
"","null","html-keyboard-response","104","177951","0.0-11.0-2.4","84O9cZDYSD","653f02673c461bbfd79d8789","6617fad957f7c6a12ea16e26","6622cf93de5c5465f45dedb2","
    <div id=""grid-container"">
        <!-- Grid items will be dynamically added here -->
    </div>    ","null","","","","","","","","","","","",""
"","null","html-keyboard-response","105","178672","0.0-11.0-0.5","84O9cZDYSD","653f02673c461bbfd79d8789","6617fad957f7c6a12ea16e26","6622cf93de5c5465f45dedb2","fixation cross","null","","","","","","","","","","","",""
"","202","html-keyboard-response","106","178875","0.0-11.0-1.5","84O9cZDYSD","653f02673c461bbfd79d8789","6617fad957f7c6a12ea16e26","6622cf93de5c5465f45dedb2","image grid","q","","","","","Phylogenetic_Distractor_Nonthreat_target","800","ongrid","p","7","Phylogenetic","false","experimental"
"","null","html-keyboard-response","107","179032","0.0-11.0-2.5","84O9cZDYSD","653f02673c461bbfd79d8789","6617fad957f7c6a12ea16e26","6622cf93de5c5465f45dedb2","
    <div id=""grid-container"">
        <!-- Grid items will be dynamically added here -->
    </div>    ","null","","","","","","","","","","","",""
"","null","html-keyboard-response","108","179747","0.0-11.0-0.6","84O9cZDYSD","653f02673c461bbfd79d8789","6617fad957f7c6a12ea16e26","6622cf93de5c5465f45dedb2","fixation cross","null","","","","","","","","","","","",""
"","135","html-keyboard-response","109","179884","0.0-11.0-1.6","84O9cZDYSD","653f02673c461bbfd79d8789","6617fad957f7c6a12ea16e26","6622cf93de5c5465f45dedb2","image grid","p","","","","","Phylogenetic_Distractor_Nonthreat_target","800","ongrid","p","3","Phylogenetic","true","experimental"
"","null","html-keyboard-response","110","180050","0.0-11.0-2.6","84O9cZDYSD","653f02673c461bbfd79d8789","6617fad957f7c6a12ea16e26","6622cf93de5c5465f45dedb2","
    <div id=""grid-container"">
        <!-- Grid items will be dynamically added here -->
    </div>    ","null","","","","","","","","","","","",""
"","null","html-keyboard-response","111","180760","0.0-11.0-0.7","84O9cZDYSD","653f02673c461bbfd79d8789","6617fad957f7c6a12ea16e26","6622cf93de5c5465f45dedb2","fixation cross","null","","","","","","","","","","","",""
"","331","html-keyboard-response","112","181091","0.0-11.0-1.7","84O9cZDYSD","653f02673c461bbfd79d8789","6617fad957f7c6a12ea16e26","6622cf93de5c5465f45dedb2","image grid","p","","","","","Phylogenetic_Distractor_Threat_target","800","ongrid","q","9","Phylogenetic","false","experimental"
"","null","html-keyboard-response","113","181250","0.0-11.0-2.7","84O9cZDYSD","653f02673c461bbfd79d8789","6617fad957f7c6a12ea16e26","6622cf93de5c5465f45dedb2","
    <div id=""grid-container"">
        <!-- Grid items will be dynamically added here -->
    </div>    ","null","","","","","","","","","","","",""
"","null","html-keyboard-response","114","181962","0.0-11.0-0.8","84O9cZDYSD","653f02673c461bbfd79d8789","6617fad957f7c6a12ea16e26","6622cf93de5c5465f45dedb2","fixation cross","null","","","","","","","","","","","",""
"","240","html-keyboard-response","115","182203","0.0-11.0-1.8","84O9cZDYSD","653f02673c461bbfd79d8789","6617fad957f7c6a12ea16e26","6622cf93de5c5465f45dedb2","image grid","q","","","","","Phylogenetic_Distractor_notarget","800","ongrid"," ","8","Phylogenetic","false","experimental"
"","null","html-keyboard-response","116","182368","0.0-11.0-2.8","84O9cZDYSD","653f02673c461bbfd79d8789","6617fad957f7c6a12ea16e26","6622cf93de5c5465f45dedb2","
    <div id=""grid-container"">
        <!-- Grid items will be dynamically added here -->
    </div>    ","null","","","","","","","","","","","",""
"","null","html-keyboard-response","117","183086","0.0-11.0-0.9","84O9cZDYSD","653f02673c461bbfd79d8789","6617fad957f7c6a12ea16e26","6622cf93de5c5465f45dedb2","fixation cross","null","","","","","","","","","","","",""
"","532","html-keyboard-response","118","183618","0.0-11.0-1.9","84O9cZDYSD","653f02673c461bbfd79d8789","6617fad957f7c6a12ea16e26","6622cf93de5c5465f45dedb2","image grid","p","","","","","Phylogenetic_Distractor_Threat_target","800","ongrid","q","8","Phylogenetic","false","experimental"
"","null","html-keyboard-response","119","183787","0.0-11.0-2.9","84O9cZDYSD","653f02673c461bbfd79d8789","6617fad957f7c6a12ea16e26","6622cf93de5c5465f45dedb2","
    <div id=""grid-container"">
        <!-- Grid items will be dynamically added here -->
    </div>    ","null","","","","","","","","","","","",""
"","null","html-keyboard-response","120","184503","0.0-11.0-0.10","84O9cZDYSD","653f02673c461bbfd79d8789","6617fad957f7c6a12ea16e26","6622cf93de5c5465f45dedb2","fixation cross","null","","","","","","","","","","","",""
"","347","html-keyboard-response","121","184851","0.0-11.0-1.10","84O9cZDYSD","653f02673c461bbfd79d8789","6617fad957f7c6a12ea16e26","6622cf93de5c5465f45dedb2","image grid","q","","","","","Phylogenetic_Distractor_Nonthreat_target","800","ongrid","p","8","Phylogenetic","false","experimental"
"","null","html-keyboard-response","122","185012","0.0-11.0-2.10","84O9cZDYSD","653f02673c461bbfd79d8789","6617fad957f7c6a12ea16e26","6622cf93de5c5465f45dedb2","
    <div id=""grid-container"">
        <!-- Grid items will be dynamically added here -->
    </div>    ","null","","","","","","","","","","","",""
"","null","html-keyboard-response","123","185721","0.0-11.0-0.11","84O9cZDYSD","653f02673c461bbfd79d8789","6617fad957f7c6a12ea16e26","6622cf93de5c5465f45dedb2","fixation cross","null","","","","","","","","","","","",""
"","193","html-keyboard-response","124","185915","0.0-11.0-1.11","84O9cZDYSD","653f02673c461bbfd79d8789","6617fad957f7c6a12ea16e26","6622cf93de5c5465f45dedb2","image grid","p","","","","","Phylogenetic_Distractor_Threat_target","800","ongrid","q","9","Phylogenetic","false","experimental"
"","null","html-keyboard-response","125","186077","0.0-11.0-2.11","84O9cZDYSD","653f02673c461bbfd79d8789","6617fad957f7c6a12ea16e26","6622cf93de5c5465f45dedb2","
    <div id=""grid-container"">
        <!-- Grid items will be dynamically added here -->
    </div>    ","null","","","","","","","","","","","",""
"","null","html-keyboard-response","126","186792","0.0-11.0-0.12","84O9cZDYSD","653f02673c461bbfd79d8789","6617fad957f7c6a12ea16e26","6622cf93de5c5465f45dedb2","fixation cross","null","","","","","","","","","","","",""
"","170","html-keyboard-response","127","186963","0.0-11.0-1.12","84O9cZDYSD","653f02673c461bbfd79d8789","6617fad957f7c6a12ea16e26","6622cf93de5c5465f45dedb2","image grid","p","","","","","Phylogenetic_Distractor_Nonthreat_target","800","ongrid","p","4","Phylogenetic","true","experimental"
"","null","html-keyboard-response","128","187130","0.0-11.0-2.12","84O9cZDYSD","653f02673c461bbfd79d8789","6617fad957f7c6a12ea16e26","6622cf93de5c5465f45dedb2","
    <div id=""grid-container"">
        <!-- Grid items will be dynamically added here -->
    </div>    ","null","","","","","","","","","","","",""
"","null","html-keyboard-response","129","187859","0.0-11.0-0.13","84O9cZDYSD","653f02673c461bbfd79d8789","6617fad957f7c6a12ea16e26","6622cf93de5c5465f45dedb2","fixation cross","null","","","","","","","","","","","",""
"","271","html-keyboard-response","130","188131","0.0-11.0-1.13","84O9cZDYSD","653f02673c461bbfd79d8789","6617fad957f7c6a12ea16e26","6622cf93de5c5465f45dedb2","image grid","p","","","","","Phylogenetic_Distractor_notarget","800","ongrid"," ","3","Phylogenetic","false","experimental"
"","null","html-keyboard-response","131","188285","0.0-11.0-2.13","84O9cZDYSD","653f02673c461bbfd79d8789","6617fad957f7c6a12ea16e26","6622cf93de5c5465f45dedb2","
    <div id=""grid-container"">
        <!-- Grid items will be dynamically added here -->
    </div>    ","null","","","","","","","","","","","",""
"","null","html-keyboard-response","132","188999","0.0-11.0-0.14","84O9cZDYSD","653f02673c461bbfd79d8789","6617fad957f7c6a12ea16e26","6622cf93de5c5465f45dedb2","fixation cross","null","","","","","","","","","","","",""
"","315","html-keyboard-response","133","189315","0.0-11.0-1.14","84O9cZDYSD","653f02673c461bbfd79d8789","6617fad957f7c6a12ea16e26","6622cf93de5c5465f45dedb2","image grid","q","","","","","Phylogenetic_Distractor_Threat_target","800","ongrid","q","4","Phylogenetic","true","experimental"
"","null","html-keyboard-response","134","189475","0.0-11.0-2.14","84O9cZDYSD","653f02673c461bbfd79d8789","6617fad957f7c6a12ea16e26","6622cf93de5c5465f45dedb2","
    <div id=""grid-container"">
        <!-- Grid items will be dynamically added here -->
    </div>    ","null","","","","","","","","","","","",""
"","null","html-keyboard-response","135","190191","0.0-11.0-0.15","84O9cZDYSD","653f02673c461bbfd79d8789","6617fad957f7c6a12ea16e26","6622cf93de5c5465f45dedb2","fixation cross","null","","","","","","","","","","","",""
"","220","html-keyboard-response","136","190412","0.0-11.0-1.15","84O9cZDYSD","653f02673c461bbfd79d8789","6617fad957f7c6a12ea16e26","6622cf93de5c5465f45dedb2","image grid","p","","","","","Phylogenetic_Distractor_Nonthreat_target","800","ongrid","p","6","Phylogenetic","true","experimental"
"","null","html-keyboard-response","137","190571","0.0-11.0-2.15","84O9cZDYSD","653f02673c461bbfd79d8789","6617fad957f7c6a12ea16e26","6622cf93de5c5465f45dedb2","
    <div id=""grid-container"">
        <!-- Grid items will be dynamically added here -->
    </div>    ","null","","","","","","","","","","","",""
"","null","html-keyboard-response","138","191278","0.0-11.0-0.16","84O9cZDYSD","653f02673c461bbfd79d8789","6617fad957f7c6a12ea16e26","6622cf93de5c5465f45dedb2","fixation cross","null","","","","","","","","","","","",""
"","308","html-keyboard-response","139","191587","0.0-11.0-1.16","84O9cZDYSD","653f02673c461bbfd79d8789","6617fad957f7c6a12ea16e26","6622cf93de5c5465f45dedb2","image grid","q","","","","","Phylogenetic_Distractor_Nonthreat_target","800","ongrid","p","9","Phylogenetic","false","experimental"
"","null","html-keyboard-response","140","191745","0.0-11.0-2.16","84O9cZDYSD","653f02673c461bbfd79d8789","6617fad957f7c6a12ea16e26","6622cf93de5c5465f45dedb2","
    <div id=""grid-container"">
        <!-- Grid items will be dynamically added here -->
    </div>    ","null","","","","","","","","","","","",""
"","null","html-keyboard-response","141","192469","0.0-11.0-0.17","84O9cZDYSD","653f02673c461bbfd79d8789","6617fad957f7c6a12ea16e26","6622cf93de5c5465f45dedb2","fixation cross","null","","","","","","","","","","","",""
"","221","html-keyboard-response","142","192691","0.0-11.0-1.17","84O9cZDYSD","653f02673c461bbfd79d8789","6617fad957f7c6a12ea16e26","6622cf93de5c5465f45dedb2","image grid","p","","","","","Phylogenetic_Distractor_Threat_target","800","ongrid","q","7","Phylogenetic","false","experimental"
"","null","html-keyboard-response","143","192848","0.0-11.0-2.17","84O9cZDYSD","653f02673c461bbfd79d8789","6617fad957f7c6a12ea16e26","6622cf93de5c5465f45dedb2","
    <div id=""grid-container"">
        <!-- Grid items will be dynamically added here -->
    </div>    ","null","","","","","","","","","","","",""
"","null","html-keyboard-response","144","193570","0.0-11.0-0.18","84O9cZDYSD","653f02673c461bbfd79d8789","6617fad957f7c6a12ea16e26","6622cf93de5c5465f45dedb2","fixation cross","null","","","","","","","","","","","",""
"","249","html-keyboard-response","145","193820","0.0-11.0-1.18","84O9cZDYSD","653f02673c461bbfd79d8789","6617fad957f7c6a12ea16e26","6622cf93de5c5465f45dedb2","image grid","p","","","","","Phylogenetic_Distractor_Nonthreat_target","800","ongrid","p","9","Phylogenetic","true","experimental"
"","null","html-keyboard-response","146","193979","0.0-11.0-2.18","84O9cZDYSD","653f02673c461bbfd79d8789","6617fad957f7c6a12ea16e26","6622cf93de5c5465f45dedb2","
    <div id=""grid-container"">
        <!-- Grid items will be dynamically added here -->
    </div>    ","null","","","","","","","","","","","",""
"","null","html-keyboard-response","147","194692","0.0-11.0-0.19","84O9cZDYSD","653f02673c461bbfd79d8789","6617fad957f7c6a12ea16e26","6622cf93de5c5465f45dedb2","fixation cross","null","","","","","","","","","","","",""
"","374","html-keyboard-response","148","195067","0.0-11.0-1.19","84O9cZDYSD","653f02673c461bbfd79d8789","6617fad957f7c6a12ea16e26","6622cf93de5c5465f45dedb2","image grid","q","","","","","Phylogenetic_Distractor_Nonthreat_target","800","ongrid","p","7","Phylogenetic","false","experimental"
"","null","html-keyboard-response","149","195240","0.0-11.0-2.19","84O9cZDYSD","653f02673c461bbfd79d8789","6617fad957f7c6a12ea16e26","6622cf93de5c5465f45dedb2","
    <div id=""grid-container"">
        <!-- Grid items will be dynamically added here -->
    </div>    ","null","","","","","","","","","","","",""
"","null","html-keyboard-response","150","195957","0.0-11.0-0.20","84O9cZDYSD","653f02673c461bbfd79d8789","6617fad957f7c6a12ea16e26","6622cf93de5c5465f45dedb2","fixation cross","null","","","","","","","","","","","",""
"","301","html-keyboard-response","151","196259","0.0-11.0-1.20","84O9cZDYSD","653f02673c461bbfd79d8789","6617fad957f7c6a12ea16e26","6622cf93de5c5465f45dedb2","image grid","q","","","","","Phylogenetic_Distractor_Threat_target","800","ongrid","q","4","Phylogenetic","true","experimental"
"","null","html-keyboard-response","152","196425","0.0-11.0-2.20","84O9cZDYSD","653f02673c461bbfd79d8789","6617fad957f7c6a12ea16e26","6622cf93de5c5465f45dedb2","
    <div id=""grid-container"">
        <!-- Grid items will be dynamically added here -->
    </div>    ","null","","","","","","","","","","","",""
"","null","html-keyboard-response","153","197142","0.0-11.0-0.21","84O9cZDYSD","653f02673c461bbfd79d8789","6617fad957f7c6a12ea16e26","6622cf93de5c5465f45dedb2","fixation cross","null","","","","","","","","","","","",""
"","124","html-keyboard-response","154","197267","0.0-11.0-1.21","84O9cZDYSD","653f02673c461bbfd79d8789","6617fad957f7c6a12ea16e26","6622cf93de5c5465f45dedb2","image grid","p","","","","","Phylogenetic_Distractor_Threat_target","800","ongrid","q","9","Phylogenetic","false","experimental"
"","null","html-keyboard-response","155","197434","0.0-11.0-2.21","84O9cZDYSD","653f02673c461bbfd79d8789","6617fad957f7c6a12ea16e26","6622cf93de5c5465f45dedb2","
    <div id=""grid-container"">
        <!-- Grid items will be dynamically added here -->
    </div>    ","null","","","","","","","","","","","",""
"","null","html-keyboard-response","156","198154","0.0-11.0-0.22","84O9cZDYSD","653f02673c461bbfd79d8789","6617fad957f7c6a12ea16e26","6622cf93de5c5465f45dedb2","fixation cross","null","","","","","","","","","","","",""
"","144","html-keyboard-response","157","198299","0.0-11.0-1.22","84O9cZDYSD","653f02673c461bbfd79d8789","6617fad957f7c6a12ea16e26","6622cf93de5c5465f45dedb2","image grid","q","","","","","Phylogenetic_Distractor_Nonthreat_target","800","ongrid","p","4","Phylogenetic","false","experimental"
"","null","html-keyboard-response","158","198452","0.0-11.0-2.22","84O9cZDYSD","653f02673c461bbfd79d8789","6617fad957f7c6a12ea16e26","6622cf93de5c5465f45dedb2","
    <div id=""grid-container"">
        <!-- Grid items will be dynamically added here -->
    </div>    ","null","","","","","","","","","","","",""
"","null","html-keyboard-response","159","199160","0.0-11.0-0.23","84O9cZDYSD","653f02673c461bbfd79d8789","6617fad957f7c6a12ea16e26","6622cf93de5c5465f45dedb2","fixation cross","null","","","","","","","","","","","",""
"","186","html-keyboard-response","160","199347","0.0-11.0-1.23","84O9cZDYSD","653f02673c461bbfd79d8789","6617fad957f7c6a12ea16e26","6622cf93de5c5465f45dedb2","image grid","q","","","","","Phylogenetic_Distractor_Threat_target","800","ongrid","q","4","Phylogenetic","true","experimental"
"","null","html-keyboard-response","161","199502","0.0-11.0-2.23","84O9cZDYSD","653f02673c461bbfd79d8789","6617fad957f7c6a12ea16e26","6622cf93de5c5465f45dedb2","
    <div id=""grid-container"">
        <!-- Grid items will be dynamically added here -->
    </div>    ","null","","","","","","","","","","","",""
"","null","html-keyboard-response","162","200221","0.0-11.0-0.24","84O9cZDYSD","653f02673c461bbfd79d8789","6617fad957f7c6a12ea16e26","6622cf93de5c5465f45dedb2","fixation cross","null","","","","","","","","","","","",""
"","156","html-keyboard-response","163","200379","0.0-11.0-1.24","84O9cZDYSD","653f02673c461bbfd79d8789","6617fad957f7c6a12ea16e26","6622cf93de5c5465f45dedb2","image grid","p","","","","","Phylogenetic_Distractor_Nonthreat_target","800","ongrid","p","1","Phylogenetic","true","experimental"
"","null","html-keyboard-response","164","200537","0.0-11.0-2.24","84O9cZDYSD","653f02673c461bbfd79d8789","6617fad957f7c6a12ea16e26","6622cf93de5c5465f45dedb2","
    <div id=""grid-container"">
        <!-- Grid items will be dynamically added here -->
    </div>    ","null","","","","","","","","","","","",""
"","null","html-keyboard-response","165","201245","0.0-11.0-0.25","84O9cZDYSD","653f02673c461bbfd79d8789","6617fad957f7c6a12ea16e26","6622cf93de5c5465f45dedb2","fixation cross","null","","","","","","","","","","","",""
"","237","html-keyboard-response","166","201484","0.0-11.0-1.25","84O9cZDYSD","653f02673c461bbfd79d8789","6617fad957f7c6a12ea16e26","6622cf93de5c5465f45dedb2","image grid","q","","","","","Phylogenetic_Distractor_Threat_target","800","ongrid","q","6","Phylogenetic","true","experimental"
"","null","html-keyboard-response","167","201639","0.0-11.0-2.25","84O9cZDYSD","653f02673c461bbfd79d8789","6617fad957f7c6a12ea16e26","6622cf93de5c5465f45dedb2","
    <div id=""grid-container"">
        <!-- Grid items will be dynamically added here -->
    </div>    ","null","","","","","","","","","","","",""
"","null","html-keyboard-response","168","202366","0.0-11.0-0.26","84O9cZDYSD","653f02673c461bbfd79d8789","6617fad957f7c6a12ea16e26","6622cf93de5c5465f45dedb2","fixation cross","null","","","","","","","","","","","",""
"","244","html-keyboard-response","169","202611","0.0-11.0-1.26","84O9cZDYSD","653f02673c461bbfd79d8789","6617fad957f7c6a12ea16e26","6622cf93de5c5465f45dedb2","image grid","p","","","","","Phylogenetic_Distractor_Nonthreat_target","800","ongrid","p","1","Phylogenetic","true","experimental"
"","null","html-keyboard-response","170","202774","0.0-11.0-2.26","84O9cZDYSD","653f02673c461bbfd79d8789","6617fad957f7c6a12ea16e26","6622cf93de5c5465f45dedb2","
    <div id=""grid-container"">
        <!-- Grid items will be dynamically added here -->
    </div>    ","null","","","","","","","","","","","",""
"","null","html-keyboard-response","171","203483","0.0-11.0-0.27","84O9cZDYSD","653f02673c461bbfd79d8789","6617fad957f7c6a12ea16e26","6622cf93de5c5465f45dedb2","fixation cross","null","","","","","","","","","","","",""
"","143","html-keyboard-response","172","203627","0.0-11.0-1.27","84O9cZDYSD","653f02673c461bbfd79d8789","6617fad957f7c6a12ea16e26","6622cf93de5c5465f45dedb2","image grid","p","","","","","Phylogenetic_Distractor_Nonthreat_target","800","ongrid","p","5","Phylogenetic","true","experimental"
"","null","html-keyboard-response","173","203792","0.0-11.0-2.27","84O9cZDYSD","653f02673c461bbfd79d8789","6617fad957f7c6a12ea16e26","6622cf93de5c5465f45dedb2","
    <div id=""grid-container"">
        <!-- Grid items will be dynamically added here -->
    </div>    ","null","","","","","","","","","","","",""
"","null","html-keyboard-response","174","204512","0.0-11.0-0.28","84O9cZDYSD","653f02673c461bbfd79d8789","6617fad957f7c6a12ea16e26","6622cf93de5c5465f45dedb2","fixation cross","null","","","","","","","","","","","",""
"","209","html-keyboard-response","175","204723","0.0-11.0-1.28","84O9cZDYSD","653f02673c461bbfd79d8789","6617fad957f7c6a12ea16e26","6622cf93de5c5465f45dedb2","image grid","q","","","","","Phylogenetic_Distractor_Nonthreat_target","800","ongrid","p","4","Phylogenetic","false","experimental"
"","null","html-keyboard-response","176","204890","0.0-11.0-2.28","84O9cZDYSD","653f02673c461bbfd79d8789","6617fad957f7c6a12ea16e26","6622cf93de5c5465f45dedb2","
    <div id=""grid-container"">
        <!-- Grid items will be dynamically added here -->
    </div>    ","null","","","","","","","","","","","",""
"","null","html-keyboard-response","177","205607","0.0-11.0-0.29","84O9cZDYSD","653f02673c461bbfd79d8789","6617fad957f7c6a12ea16e26","6622cf93de5c5465f45dedb2","fixation cross","null","","","","","","","","","","","",""
"","211","html-keyboard-response","178","205819","0.0-11.0-1.29","84O9cZDYSD","653f02673c461bbfd79d8789","6617fad957f7c6a12ea16e26","6622cf93de5c5465f45dedb2","image grid","q","","","","","Phylogenetic_Distractor_Threat_target","800","ongrid","q","2","Phylogenetic","true","experimental"
"","null","html-keyboard-response","179","205977","0.0-11.0-2.29","84O9cZDYSD","653f02673c461bbfd79d8789","6617fad957f7c6a12ea16e26","6622cf93de5c5465f45dedb2","
    <div id=""grid-container"">
        <!-- Grid items will be dynamically added here -->
    </div>    ","null","","","","","","","","","","","",""
"","null","html-keyboard-response","180","206694","0.0-11.0-0.30","84O9cZDYSD","653f02673c461bbfd79d8789","6617fad957f7c6a12ea16e26","6622cf93de5c5465f45dedb2","fixation cross","null","","","","","","","","","","","",""
"","172","html-keyboard-response","181","206867","0.0-11.0-1.30","84O9cZDYSD","653f02673c461bbfd79d8789","6617fad957f7c6a12ea16e26","6622cf93de5c5465f45dedb2","image grid","p","","","","","Phylogenetic_Distractor_notarget","800","ongrid"," ","8","Phylogenetic","false","experimental"
"","null","html-keyboard-response","182","207027","0.0-11.0-2.30","84O9cZDYSD","653f02673c461bbfd79d8789","6617fad957f7c6a12ea16e26","6622cf93de5c5465f45dedb2","
    <div id=""grid-container"">
        <!-- Grid items will be dynamically added here -->
    </div>    ","null","","","","","","","","","","","",""
"","null","html-keyboard-response","183","207751","0.0-11.0-0.31","84O9cZDYSD","653f02673c461bbfd79d8789","6617fad957f7c6a12ea16e26","6622cf93de5c5465f45dedb2","fixation cross","null","","","","","","","","","","","",""
"","211","html-keyboard-response","184","207963","0.0-11.0-1.31","84O9cZDYSD","653f02673c461bbfd79d8789","6617fad957f7c6a12ea16e26","6622cf93de5c5465f45dedb2","image grid","q","","","","","Phylogenetic_Distractor_Threat_target","800","ongrid","q","8","Phylogenetic","true","experimental"
"","null","html-keyboard-response","185","208127","0.0-11.0-2.31","84O9cZDYSD","653f02673c461bbfd79d8789","6617fad957f7c6a12ea16e26","6622cf93de5c5465f45dedb2","
    <div id=""grid-container"">
        <!-- Grid items will be dynamically added here -->
    </div>    ","null","","","","","","","","","","","",""
"","null","html-keyboard-response","186","208854","0.0-11.0-0.32","84O9cZDYSD","653f02673c461bbfd79d8789","6617fad957f7c6a12ea16e26","6622cf93de5c5465f45dedb2","fixation cross","null","","","","","","","","","","","",""
"","220","html-keyboard-response","187","209075","0.0-11.0-1.32","84O9cZDYSD","653f02673c461bbfd79d8789","6617fad957f7c6a12ea16e26","6622cf93de5c5465f45dedb2","image grid","p","","","","","Phylogenetic_Distractor_Nonthreat_target","800","ongrid","p","1","Phylogenetic","true","experimental"
"","null","html-keyboard-response","188","209229","0.0-11.0-2.32","84O9cZDYSD","653f02673c461bbfd79d8789","6617fad957f7c6a12ea16e26","6622cf93de5c5465f45dedb2","
    <div id=""grid-container"">
        <!-- Grid items will be dynamically added here -->
    </div>    ","null","","","","","","","","","","","",""
"","null","html-keyboard-response","189","209956","0.0-11.0-0.33","84O9cZDYSD","653f02673c461bbfd79d8789","6617fad957f7c6a12ea16e26","6622cf93de5c5465f45dedb2","fixation cross","null","","","","","","","","","","","",""
"","207","html-keyboard-response","190","210163","0.0-11.0-1.33","84O9cZDYSD","653f02673c461bbfd79d8789","6617fad957f7c6a12ea16e26","6622cf93de5c5465f45dedb2","image grid","q","","","","","Phylogenetic_Distractor_Threat_target","800","ongrid","q","8","Phylogenetic","true","experimental"
"","null","html-keyboard-response","191","210330","0.0-11.0-2.33","84O9cZDYSD","653f02673c461bbfd79d8789","6617fad957f7c6a12ea16e26","6622cf93de5c5465f45dedb2","
    <div id=""grid-container"">
        <!-- Grid items will be dynamically added here -->
    </div>    ","null","","","","","","","","","","","",""
"","null","html-keyboard-response","192","211040","0.0-11.0-0.34","84O9cZDYSD","653f02673c461bbfd79d8789","6617fad957f7c6a12ea16e26","6622cf93de5c5465f45dedb2","fixation cross","null","","","","","","","","","","","",""
"","98","html-keyboard-response","193","211139","0.0-11.0-1.34","84O9cZDYSD","653f02673c461bbfd79d8789","6617fad957f7c6a12ea16e26","6622cf93de5c5465f45dedb2","image grid","p","","","","","Phylogenetic_Distractor_notarget","800","ongrid"," ","1","Phylogenetic","false","experimental"
"","null","html-keyboard-response","194","211298","0.0-11.0-2.34","84O9cZDYSD","653f02673c461bbfd79d8789","6617fad957f7c6a12ea16e26","6622cf93de5c5465f45dedb2","
    <div id=""grid-container"">
        <!-- Grid items will be dynamically added here -->
    </div>    ","null","","","","","","","","","","","",""
"","null","html-keyboard-response","195","212009","0.0-11.0-0.35","84O9cZDYSD","653f02673c461bbfd79d8789","6617fad957f7c6a12ea16e26","6622cf93de5c5465f45dedb2","fixation cross","null","","","","","","","","","","","",""
"","210","html-keyboard-response","196","212220","0.0-11.0-1.35","84O9cZDYSD","653f02673c461bbfd79d8789","6617fad957f7c6a12ea16e26","6622cf93de5c5465f45dedb2","image grid","p","","","","","Phylogenetic_Distractor_Threat_target","800","ongrid","q","2","Phylogenetic","false","experimental"
"","null","html-keyboard-response","197","212381","0.0-11.0-2.35","84O9cZDYSD","653f02673c461bbfd79d8789","6617fad957f7c6a12ea16e26","6622cf93de5c5465f45dedb2","
    <div id=""grid-container"">
        <!-- Grid items will be dynamically added here -->
    </div>    ","null","","","","","","","","","","","",""
"","null","html-keyboard-response","198","213102","0.0-11.0-0.36","84O9cZDYSD","653f02673c461bbfd79d8789","6617fad957f7c6a12ea16e26","6622cf93de5c5465f45dedb2","fixation cross","null","","","","","","","","","","","",""
"","131","html-keyboard-response","199","213235","0.0-11.0-1.36","84O9cZDYSD","653f02673c461bbfd79d8789","6617fad957f7c6a12ea16e26","6622cf93de5c5465f45dedb2","image grid","q","","","","","Phylogenetic_Distractor_Threat_target","800","ongrid","q","3","Phylogenetic","true","experimental"
"","null","html-keyboard-response","200","213400","0.0-11.0-2.36","84O9cZDYSD","653f02673c461bbfd79d8789","6617fad957f7c6a12ea16e26","6622cf93de5c5465f45dedb2","
    <div id=""grid-container"">
        <!-- Grid items will be dynamically added here -->
    </div>    ","null","","","","","","","","","","","",""
"","null","html-keyboard-response","201","214108","0.0-11.0-0.37","84O9cZDYSD","653f02673c461bbfd79d8789","6617fad957f7c6a12ea16e26","6622cf93de5c5465f45dedb2","fixation cross","null","","","","","","","","","","","",""
"","493","html-keyboard-response","202","214603","0.0-11.0-1.37","84O9cZDYSD","653f02673c461bbfd79d8789","6617fad957f7c6a12ea16e26","6622cf93de5c5465f45dedb2","image grid","p","","","","","Phylogenetic_Distractor_Nonthreat_target","800","ongrid","p","2","Phylogenetic","true","experimental"
"","null","html-keyboard-response","203","214767","0.0-11.0-2.37","84O9cZDYSD","653f02673c461bbfd79d8789","6617fad957f7c6a12ea16e26","6622cf93de5c5465f45dedb2","
    <div id=""grid-container"">
        <!-- Grid items will be dynamically added here -->
    </div>    ","null","","","","","","","","","","","",""
"","null","html-keyboard-response","204","215486","0.0-11.0-0.38","84O9cZDYSD","653f02673c461bbfd79d8789","6617fad957f7c6a12ea16e26","6622cf93de5c5465f45dedb2","fixation cross","null","","","","","","","","","","","",""
"","307","html-keyboard-response","205","215794","0.0-11.0-1.38","84O9cZDYSD","653f02673c461bbfd79d8789","6617fad957f7c6a12ea16e26","6622cf93de5c5465f45dedb2","image grid","q","","","","","Phylogenetic_Distractor_Threat_target","800","ongrid","q","8","Phylogenetic","true","experimental"
"","null","html-keyboard-response","206","215953","0.0-11.0-2.38","84O9cZDYSD","653f02673c461bbfd79d8789","6617fad957f7c6a12ea16e26","6622cf93de5c5465f45dedb2","
    <div id=""grid-container"">
        <!-- Grid items will be dynamically added here -->
    </div>    ","null","","","","","","","","","","","",""
"","null","html-keyboard-response","207","216658","0.0-11.0-0.39","84O9cZDYSD","653f02673c461bbfd79d8789","6617fad957f7c6a12ea16e26","6622cf93de5c5465f45dedb2","fixation cross","null","","","","","","","","","","","",""
"","208","html-keyboard-response","208","216867","0.0-11.0-1.39","84O9cZDYSD","653f02673c461bbfd79d8789","6617fad957f7c6a12ea16e26","6622cf93de5c5465f45dedb2","image grid","p","","","","","Phylogenetic_Distractor_Nonthreat_target","800","ongrid","p","4","Phylogenetic","true","experimental"
"","null","html-keyboard-response","209","217021","0.0-11.0-2.39","84O9cZDYSD","653f02673c461bbfd79d8789","6617fad957f7c6a12ea16e26","6622cf93de5c5465f45dedb2","
    <div id=""grid-container"">
        <!-- Grid items will be dynamically added here -->
    </div>    ","null","","","","","","","","","","","",""
"","59469","html-keyboard-response","210","276748","0.0-12.0","84O9cZDYSD","653f02673c461bbfd79d8789","6617fad957f7c6a12ea16e26","6622cf93de5c5465f45dedb2","break screen","q","","","","","","","","","","","",""
"","null","html-keyboard-response","211","279320","0.0-13.0-0.0","84O9cZDYSD","653f02673c461bbfd79d8789","6617fad957f7c6a12ea16e26","6622cf93de5c5465f45dedb2","fixation cross","null","","","","","","","","","","","",""
"","57","html-keyboard-response","212","279378","0.0-13.0-1.0","84O9cZDYSD","653f02673c461bbfd79d8789","6617fad957f7c6a12ea16e26","6622cf93de5c5465f45dedb2","image grid","p","","","","","Phylogenetic_Distractor_Threat_target","800","ongrid","q","6","Phylogenetic","false","experimental"
"","null","html-keyboard-response","213","279529","0.0-13.0-2.0","84O9cZDYSD","653f02673c461bbfd79d8789","6617fad957f7c6a12ea16e26","6622cf93de5c5465f45dedb2","
    <div id=""grid-container"">
        <!-- Grid items will be dynamically added here -->
    </div>    ","null","","","","","","","","","","","",""
"","null","html-keyboard-response","214","280242","0.0-13.0-0.1","84O9cZDYSD","653f02673c461bbfd79d8789","6617fad957f7c6a12ea16e26","6622cf93de5c5465f45dedb2","fixation cross","null","","","","","","","","","","","",""
"","207","html-keyboard-response","215","280450","0.0-13.0-1.1","84O9cZDYSD","653f02673c461bbfd79d8789","6617fad957f7c6a12ea16e26","6622cf93de5c5465f45dedb2","image grid","q","","","","","Phylogenetic_Distractor_Nonthreat_target","800","ongrid","p","1","Phylogenetic","false","experimental"
"","null","html-keyboard-response","216","280616","0.0-13.0-2.1","84O9cZDYSD","653f02673c461bbfd79d8789","6617fad957f7c6a12ea16e26","6622cf93de5c5465f45dedb2","
    <div id=""grid-container"">
        <!-- Grid items will be dynamically added here -->
    </div>    ","null","","","","","","","","","","","",""
"","null","html-keyboard-response","217","281333","0.0-13.0-0.2","84O9cZDYSD","653f02673c461bbfd79d8789","6617fad957f7c6a12ea16e26","6622cf93de5c5465f45dedb2","fixation cross","null","","","","","","","","","","","",""
"","381","html-keyboard-response","218","281715","0.0-13.0-1.2","84O9cZDYSD","653f02673c461bbfd79d8789","6617fad957f7c6a12ea16e26","6622cf93de5c5465f45dedb2","image grid","p","","","","","Phylogenetic_Distractor_Nonthreat_target","800","ongrid","p","7","Phylogenetic","true","experimental"
"","null","html-keyboard-response","219","281884","0.0-13.0-2.2","84O9cZDYSD","653f02673c461bbfd79d8789","6617fad957f7c6a12ea16e26","6622cf93de5c5465f45dedb2","
    <div id=""grid-container"">
        <!-- Grid items will be dynamically added here -->
    </div>    ","null","","","","","","","","","","","",""
"","null","html-keyboard-response","220","282603","0.0-13.0-0.3","84O9cZDYSD","653f02673c461bbfd79d8789","6617fad957f7c6a12ea16e26","6622cf93de5c5465f45dedb2","fixation cross","null","","","","","","","","","","","",""
"","111","html-keyboard-response","221","282715","0.0-13.0-1.3","84O9cZDYSD","653f02673c461bbfd79d8789","6617fad957f7c6a12ea16e26","6622cf93de5c5465f45dedb2","image grid","q","","","","","Phylogenetic_Distractor_Nonthreat_target","800","ongrid","p","1","Phylogenetic","false","experimental"
"","null","html-keyboard-response","222","282869","0.0-13.0-2.3","84O9cZDYSD","653f02673c461bbfd79d8789","6617fad957f7c6a12ea16e26","6622cf93de5c5465f45dedb2","
    <div id=""grid-container"">
        <!-- Grid items will be dynamically added here -->
    </div>    ","null","","","","","","","","","","","",""
"","null","html-keyboard-response","223","283591","0.0-13.0-0.4","84O9cZDYSD","653f02673c461bbfd79d8789","6617fad957f7c6a12ea16e26","6622cf93de5c5465f45dedb2","fixation cross","null","","","","","","","","","","","",""
"","275","html-keyboard-response","224","283867","0.0-13.0-1.4","84O9cZDYSD","653f02673c461bbfd79d8789","6617fad957f7c6a12ea16e26","6622cf93de5c5465f45dedb2","image grid","q","","","","","Phylogenetic_Distractor_Nonthreat_target","800","ongrid","p","9","Phylogenetic","false","experimental"
"","null","html-keyboard-response","225","284036","0.0-13.0-2.4","84O9cZDYSD","653f02673c461bbfd79d8789","6617fad957f7c6a12ea16e26","6622cf93de5c5465f45dedb2","
    <div id=""grid-container"">
        <!-- Grid items will be dynamically added here -->
    </div>    ","null","","","","","","","","","","","",""
"","null","html-keyboard-response","226","284762","0.0-13.0-0.5","84O9cZDYSD","653f02673c461bbfd79d8789","6617fad957f7c6a12ea16e26","6622cf93de5c5465f45dedb2","fixation cross","null","","","","","","","","","","","",""
"","160","html-keyboard-response","227","284923","0.0-13.0-1.5","84O9cZDYSD","653f02673c461bbfd79d8789","6617fad957f7c6a12ea16e26","6622cf93de5c5465f45dedb2","image grid","p","","","","","Phylogenetic_Distractor_Nonthreat_target","800","ongrid","p","5","Phylogenetic","true","experimental"
"","null","html-keyboard-response","228","285088","0.0-13.0-2.5","84O9cZDYSD","653f02673c461bbfd79d8789","6617fad957f7c6a12ea16e26","6622cf93de5c5465f45dedb2","
    <div id=""grid-container"">
        <!-- Grid items will be dynamically added here -->
    </div>    ","null","","","","","","","","","","","",""
"","null","html-keyboard-response","229","285797","0.0-13.0-0.6","84O9cZDYSD","653f02673c461bbfd79d8789","6617fad957f7c6a12ea16e26","6622cf93de5c5465f45dedb2","fixation cross","null","","","","","","","","","","","",""
"","20","html-keyboard-response","230","285818","0.0-13.0-1.6","84O9cZDYSD","653f02673c461bbfd79d8789","6617fad957f7c6a12ea16e26","6622cf93de5c5465f45dedb2","image grid","q","","","","","Phylogenetic_Distractor_Nonthreat_target","800","ongrid","p","7","Phylogenetic","false","experimental"
"","null","html-keyboard-response","231","285974","0.0-13.0-2.6","84O9cZDYSD","653f02673c461bbfd79d8789","6617fad957f7c6a12ea16e26","6622cf93de5c5465f45dedb2","
    <div id=""grid-container"">
        <!-- Grid items will be dynamically added here -->
    </div>    ","null","","","","","","","","","","","",""
"","348","html-keyboard-response","232","286692","0.0-13.0-0.7","84O9cZDYSD","653f02673c461bbfd79d8789","6617fad957f7c6a12ea16e26","6622cf93de5c5465f45dedb2","fixation cross","p","","","","","","","","","","","",""
"","581","html-keyboard-response","233","287275","0.0-13.0-1.7","84O9cZDYSD","653f02673c461bbfd79d8789","6617fad957f7c6a12ea16e26","6622cf93de5c5465f45dedb2","image grid","q","","","","","Phylogenetic_Distractor_Nonthreat_target","800","ongrid","p","1","Phylogenetic","false","experimental"
"","null","html-keyboard-response","234","287436","0.0-13.0-2.7","84O9cZDYSD","653f02673c461bbfd79d8789","6617fad957f7c6a12ea16e26","6622cf93de5c5465f45dedb2","
    <div id=""grid-container"">
        <!-- Grid items will be dynamically added here -->
    </div>    ","null","","","","","","","","","","","",""
"","null","html-keyboard-response","235","288162","0.0-13.0-0.8","84O9cZDYSD","653f02673c461bbfd79d8789","6617fad957f7c6a12ea16e26","6622cf93de5c5465f45dedb2","fixation cross","null","","","","","","","","","","","",""
"","7","html-keyboard-response","236","288170","0.0-13.0-1.8","84O9cZDYSD","653f02673c461bbfd79d8789","6617fad957f7c6a12ea16e26","6622cf93de5c5465f45dedb2","image grid","p","","","","","Phylogenetic_Distractor_Nonthreat_target","800","ongrid","p","9","Phylogenetic","true","experimental"
"","null","html-keyboard-response","237","288331","0.0-13.0-2.8","84O9cZDYSD","653f02673c461bbfd79d8789","6617fad957f7c6a12ea16e26","6622cf93de5c5465f45dedb2","
    <div id=""grid-container"">
        <!-- Grid items will be dynamically added here -->
    </div>    ","null","","","","","","","","","","","",""
"","474","html-keyboard-response","238","289040","0.0-13.0-0.9","84O9cZDYSD","653f02673c461bbfd79d8789","6617fad957f7c6a12ea16e26","6622cf93de5c5465f45dedb2","fixation cross","q","","","","","","","","","","","",""
"","771","html-keyboard-response","239","289812","0.0-13.0-1.9","84O9cZDYSD","653f02673c461bbfd79d8789","6617fad957f7c6a12ea16e26","6622cf93de5c5465f45dedb2","image grid","q","","","","","Phylogenetic_Distractor_Threat_target","800","ongrid","q","5","Phylogenetic","true","experimental"
"","null","html-keyboard-response","240","289977","0.0-13.0-2.9","84O9cZDYSD","653f02673c461bbfd79d8789","6617fad957f7c6a12ea16e26","6622cf93de5c5465f45dedb2","
    <div id=""grid-container"">
        <!-- Grid items will be dynamically added here -->
    </div>    ","null","","","","","","","","","","","",""
"","null","html-keyboard-response","241","290685","0.0-13.0-0.10","84O9cZDYSD","653f02673c461bbfd79d8789","6617fad957f7c6a12ea16e26","6622cf93de5c5465f45dedb2","fixation cross","null","","","","","","","","","","","",""
"","165","html-keyboard-response","242","290851","0.0-13.0-1.10","84O9cZDYSD","653f02673c461bbfd79d8789","6617fad957f7c6a12ea16e26","6622cf93de5c5465f45dedb2","image grid","p","","","","","Phylogenetic_Distractor_Nonthreat_target","800","ongrid","p","3","Phylogenetic","true","experimental"
"","null","html-keyboard-response","243","291011","0.0-13.0-2.10","84O9cZDYSD","653f02673c461bbfd79d8789","6617fad957f7c6a12ea16e26","6622cf93de5c5465f45dedb2","
    <div id=""grid-container"">
        <!-- Grid items will be dynamically added here -->
    </div>    ","null","","","","","","","","","","","",""
"","430","html-keyboard-response","244","291724","0.0-13.0-0.11","84O9cZDYSD","653f02673c461bbfd79d8789","6617fad957f7c6a12ea16e26","6622cf93de5c5465f45dedb2","fixation cross","q","","","","","","","","","","","",""
"","749","html-keyboard-response","245","292474","0.0-13.0-1.11","84O9cZDYSD","653f02673c461bbfd79d8789","6617fad957f7c6a12ea16e26","6622cf93de5c5465f45dedb2","image grid","p","","","","","Phylogenetic_Distractor_Threat_target","800","ongrid","q","9","Phylogenetic","false","experimental"
"","null","html-keyboard-response","246","292628","0.0-13.0-2.11","84O9cZDYSD","653f02673c461bbfd79d8789","6617fad957f7c6a12ea16e26","6622cf93de5c5465f45dedb2","
    <div id=""grid-container"">
        <!-- Grid items will be dynamically added here -->
    </div>    ","null","","","","","","","","","","","",""
"","424","html-keyboard-response","247","293362","0.0-13.0-0.12","84O9cZDYSD","653f02673c461bbfd79d8789","6617fad957f7c6a12ea16e26","6622cf93de5c5465f45dedb2","fixation cross","q","","","","","","","","","","","",""
"","504","html-keyboard-response","248","293867","0.0-13.0-1.12","84O9cZDYSD","653f02673c461bbfd79d8789","6617fad957f7c6a12ea16e26","6622cf93de5c5465f45dedb2","image grid","q","","","","","Phylogenetic_Distractor_Threat_target","800","ongrid","q","3","Phylogenetic","true","experimental"
"","null","html-keyboard-response","249","294027","0.0-13.0-2.12","84O9cZDYSD","653f02673c461bbfd79d8789","6617fad957f7c6a12ea16e26","6622cf93de5c5465f45dedb2","
    <div id=""grid-container"">
        <!-- Grid items will be dynamically added here -->
    </div>    ","null","","","","","","","","","","","",""
"","null","html-keyboard-response","250","294748","0.0-13.0-0.13","84O9cZDYSD","653f02673c461bbfd79d8789","6617fad957f7c6a12ea16e26","6622cf93de5c5465f45dedb2","fixation cross","null","","","","","","","","","","","",""
"","62","html-keyboard-response","251","294811","0.0-13.0-1.13","84O9cZDYSD","653f02673c461bbfd79d8789","6617fad957f7c6a12ea16e26","6622cf93de5c5465f45dedb2","image grid","p","","","","","Phylogenetic_Distractor_Threat_target","800","ongrid","q","4","Phylogenetic","false","experimental"
"","null","html-keyboard-response","252","294964","0.0-13.0-2.13","84O9cZDYSD","653f02673c461bbfd79d8789","6617fad957f7c6a12ea16e26","6622cf93de5c5465f45dedb2","
    <div id=""grid-container"">
        <!-- Grid items will be dynamically added here -->
    </div>    ","null","","","","","","","","","","","",""
"","null","html-keyboard-response","253","295687","0.0-13.0-0.14","84O9cZDYSD","653f02673c461bbfd79d8789","6617fad957f7c6a12ea16e26","6622cf93de5c5465f45dedb2","fixation cross","null","","","","","","","","","","","",""
"","2","html-keyboard-response","254","295690","0.0-13.0-1.14","84O9cZDYSD","653f02673c461bbfd79d8789","6617fad957f7c6a12ea16e26","6622cf93de5c5465f45dedb2","image grid","q","","","","","Phylogenetic_Distractor_Threat_target","800","ongrid","q","5","Phylogenetic","true","experimental"
"","null","html-keyboard-response","255","295855","0.0-13.0-2.14","84O9cZDYSD","653f02673c461bbfd79d8789","6617fad957f7c6a12ea16e26","6622cf93de5c5465f45dedb2","
    <div id=""grid-container"">
        <!-- Grid items will be dynamically added here -->
    </div>    ","null","","","","","","","","","","","",""
"","null","html-keyboard-response","256","296565","0.0-13.0-0.15","84O9cZDYSD","653f02673c461bbfd79d8789","6617fad957f7c6a12ea16e26","6622cf93de5c5465f45dedb2","fixation cross","null","","","","","","","","","","","",""
"","22","html-keyboard-response","257","296588","0.0-13.0-1.15","84O9cZDYSD","653f02673c461bbfd79d8789","6617fad957f7c6a12ea16e26","6622cf93de5c5465f45dedb2","image grid","p","","","","","Phylogenetic_Distractor_Nonthreat_target","800","ongrid","p","6","Phylogenetic","true","experimental"
"","null","html-keyboard-response","258","296744","0.0-13.0-2.15","84O9cZDYSD","653f02673c461bbfd79d8789","6617fad957f7c6a12ea16e26","6622cf93de5c5465f45dedb2","
    <div id=""grid-container"">
        <!-- Grid items will be dynamically added here -->
    </div>    ","null","","","","","","","","","","","",""
"","null","html-keyboard-response","259","297453","0.0-13.0-0.16","84O9cZDYSD","653f02673c461bbfd79d8789","6617fad957f7c6a12ea16e26","6622cf93de5c5465f45dedb2","fixation cross","null","","","","","","","","","","","",""
"","21","html-keyboard-response","260","297475","0.0-13.0-1.16","84O9cZDYSD","653f02673c461bbfd79d8789","6617fad957f7c6a12ea16e26","6622cf93de5c5465f45dedb2","image grid","q","","","","","Phylogenetic_Distractor_Threat_target","800","ongrid","q","1","Phylogenetic","true","experimental"
"","null","html-keyboard-response","261","297632","0.0-13.0-2.16","84O9cZDYSD","653f02673c461bbfd79d8789","6617fad957f7c6a12ea16e26","6622cf93de5c5465f45dedb2","
    <div id=""grid-container"">
        <!-- Grid items will be dynamically added here -->
    </div>    ","null","","","","","","","","","","","",""
"","null","html-keyboard-response","262","298354","0.0-13.0-0.17","84O9cZDYSD","653f02673c461bbfd79d8789","6617fad957f7c6a12ea16e26","6622cf93de5c5465f45dedb2","fixation cross","null","","","","","","","","","","","",""
"","64","html-keyboard-response","263","298418","0.0-13.0-1.17","84O9cZDYSD","653f02673c461bbfd79d8789","6617fad957f7c6a12ea16e26","6622cf93de5c5465f45dedb2","image grid","p","","","","","Phylogenetic_Distractor_Threat_target","800","ongrid","q","2","Phylogenetic","false","experimental"
"","null","html-keyboard-response","264","298584","0.0-13.0-2.17","84O9cZDYSD","653f02673c461bbfd79d8789","6617fad957f7c6a12ea16e26","6622cf93de5c5465f45dedb2","
    <div id=""grid-container"">
        <!-- Grid items will be dynamically added here -->
    </div>    ","null","","","","","","","","","","","",""
"","null","html-keyboard-response","265","299308","0.0-13.0-0.18","84O9cZDYSD","653f02673c461bbfd79d8789","6617fad957f7c6a12ea16e26","6622cf93de5c5465f45dedb2","fixation cross","null","","","","","","","","","","","",""
"","37","html-keyboard-response","266","299346","0.0-13.0-1.18","84O9cZDYSD","653f02673c461bbfd79d8789","6617fad957f7c6a12ea16e26","6622cf93de5c5465f45dedb2","image grid","q","","","","","Phylogenetic_Distractor_Threat_target","800","ongrid","q","8","Phylogenetic","true","experimental"
"","null","html-keyboard-response","267","299503","0.0-13.0-2.18","84O9cZDYSD","653f02673c461bbfd79d8789","6617fad957f7c6a12ea16e26","6622cf93de5c5465f45dedb2","
    <div id=""grid-container"">
        <!-- Grid items will be dynamically added here -->
    </div>    ","null","","","","","","","","","","","",""
"","null","html-keyboard-response","268","300220","0.0-13.0-0.19","84O9cZDYSD","653f02673c461bbfd79d8789","6617fad957f7c6a12ea16e26","6622cf93de5c5465f45dedb2","fixation cross","null","","","","","","","","","","","",""
"","278","html-keyboard-response","269","300499","0.0-13.0-1.19","84O9cZDYSD","653f02673c461bbfd79d8789","6617fad957f7c6a12ea16e26","6622cf93de5c5465f45dedb2","image grid","p","","","","","Phylogenetic_Distractor_Threat_target","800","ongrid","q","5","Phylogenetic","false","experimental"
"","null","html-keyboard-response","270","300655","0.0-13.0-2.19","84O9cZDYSD","653f02673c461bbfd79d8789","6617fad957f7c6a12ea16e26","6622cf93de5c5465f45dedb2","
    <div id=""grid-container"">
        <!-- Grid items will be dynamically added here -->
    </div>    ","null","","","","","","","","","","","",""
"","null","html-keyboard-response","271","301378","0.0-13.0-0.20","84O9cZDYSD","653f02673c461bbfd79d8789","6617fad957f7c6a12ea16e26","6622cf93de5c5465f45dedb2","fixation cross","null","","","","","","","","","","","",""
"","97","html-keyboard-response","272","301475","0.0-13.0-1.20","84O9cZDYSD","653f02673c461bbfd79d8789","6617fad957f7c6a12ea16e26","6622cf93de5c5465f45dedb2","image grid","q","","","","","Phylogenetic_Distractor_Threat_target","800","ongrid","q","8","Phylogenetic","true","experimental"
"","null","html-keyboard-response","273","301629","0.0-13.0-2.20","84O9cZDYSD","653f02673c461bbfd79d8789","6617fad957f7c6a12ea16e26","6622cf93de5c5465f45dedb2","
    <div id=""grid-container"">
        <!-- Grid items will be dynamically added here -->
    </div>    ","null","","","","","","","","","","","",""
"","null","html-keyboard-response","274","302352","0.0-13.0-0.21","84O9cZDYSD","653f02673c461bbfd79d8789","6617fad957f7c6a12ea16e26","6622cf93de5c5465f45dedb2","fixation cross","null","","","","","","","","","","","",""
"","50","html-keyboard-response","275","302403","0.0-13.0-1.21","84O9cZDYSD","653f02673c461bbfd79d8789","6617fad957f7c6a12ea16e26","6622cf93de5c5465f45dedb2","image grid","p","","","","","Phylogenetic_Distractor_notarget","800","ongrid"," ","9","Phylogenetic","false","experimental"
"","null","html-keyboard-response","276","302556","0.0-13.0-2.21","84O9cZDYSD","653f02673c461bbfd79d8789","6617fad957f7c6a12ea16e26","6622cf93de5c5465f45dedb2","
    <div id=""grid-container"">
        <!-- Grid items will be dynamically added here -->
    </div>    ","null","","","","","","","","","","","",""
"","null","html-keyboard-response","277","303274","0.0-13.0-0.22","84O9cZDYSD","653f02673c461bbfd79d8789","6617fad957f7c6a12ea16e26","6622cf93de5c5465f45dedb2","fixation cross","null","","","","","","","","","","","",""
"","40","html-keyboard-response","278","303315","0.0-13.0-1.22","84O9cZDYSD","653f02673c461bbfd79d8789","6617fad957f7c6a12ea16e26","6622cf93de5c5465f45dedb2","image grid","q","","","","","Phylogenetic_Distractor_Nonthreat_target","800","ongrid","p","7","Phylogenetic","false","experimental"
"","null","html-keyboard-response","279","303473","0.0-13.0-2.22","84O9cZDYSD","653f02673c461bbfd79d8789","6617fad957f7c6a12ea16e26","6622cf93de5c5465f45dedb2","
    <div id=""grid-container"">
        <!-- Grid items will be dynamically added here -->
    </div>    ","null","","","","","","","","","","","",""
"","null","html-keyboard-response","280","304184","0.0-13.0-0.23","84O9cZDYSD","653f02673c461bbfd79d8789","6617fad957f7c6a12ea16e26","6622cf93de5c5465f45dedb2","fixation cross","null","","","","","","","","","","","",""
"","146","html-keyboard-response","281","304331","0.0-13.0-1.23","84O9cZDYSD","653f02673c461bbfd79d8789","6617fad957f7c6a12ea16e26","6622cf93de5c5465f45dedb2","image grid","p","","","","","Phylogenetic_Distractor_Threat_target","800","ongrid","q","2","Phylogenetic","false","experimental"
"","null","html-keyboard-response","282","304491","0.0-13.0-2.23","84O9cZDYSD","653f02673c461bbfd79d8789","6617fad957f7c6a12ea16e26","6622cf93de5c5465f45dedb2","
    <div id=""grid-container"">
        <!-- Grid items will be dynamically added here -->
    </div>    ","null","","","","","","","","","","","",""
"","null","html-keyboard-response","283","305208","0.0-13.0-0.24","84O9cZDYSD","653f02673c461bbfd79d8789","6617fad957f7c6a12ea16e26","6622cf93de5c5465f45dedb2","fixation cross","null","","","","","","","","","","","",""
"","82","html-keyboard-response","284","305291","0.0-13.0-1.24","84O9cZDYSD","653f02673c461bbfd79d8789","6617fad957f7c6a12ea16e26","6622cf93de5c5465f45dedb2","image grid","q","","","","","Phylogenetic_Distractor_Nonthreat_target","800","ongrid","p","6","Phylogenetic","false","experimental"
"","null","html-keyboard-response","285","305457","0.0-13.0-2.24","84O9cZDYSD","653f02673c461bbfd79d8789","6617fad957f7c6a12ea16e26","6622cf93de5c5465f45dedb2","
    <div id=""grid-container"">
        <!-- Grid items will be dynamically added here -->
    </div>    ","null","","","","","","","","","","","",""
"","null","html-keyboard-response","286","306179","0.0-13.0-0.25","84O9cZDYSD","653f02673c461bbfd79d8789","6617fad957f7c6a12ea16e26","6622cf93de5c5465f45dedb2","fixation cross","null","","","","","","","","","","","",""
"","47","html-keyboard-response","287","306226","0.0-13.0-1.25","84O9cZDYSD","653f02673c461bbfd79d8789","6617fad957f7c6a12ea16e26","6622cf93de5c5465f45dedb2","image grid","p","","","","","Phylogenetic_Distractor_Nonthreat_target","800","ongrid","p","7","Phylogenetic","true","experimental"
"","null","html-keyboard-response","288","306378","0.0-13.0-2.25","84O9cZDYSD","653f02673c461bbfd79d8789","6617fad957f7c6a12ea16e26","6622cf93de5c5465f45dedb2","
    <div id=""grid-container"">
        <!-- Grid items will be dynamically added here -->
    </div>    ","null","","","","","","","","","","","",""
"","null","html-keyboard-response","289","307108","0.0-13.0-0.26","84O9cZDYSD","653f02673c461bbfd79d8789","6617fad957f7c6a12ea16e26","6622cf93de5c5465f45dedb2","fixation cross","null","","","","","","","","","","","",""
"","6","html-keyboard-response","290","307114","0.0-13.0-1.26","84O9cZDYSD","653f02673c461bbfd79d8789","6617fad957f7c6a12ea16e26","6622cf93de5c5465f45dedb2","image grid","q","","","","","Phylogenetic_Distractor_notarget","800","ongrid"," ","9","Phylogenetic","false","experimental"
"","null","html-keyboard-response","291","307275","0.0-13.0-2.26","84O9cZDYSD","653f02673c461bbfd79d8789","6617fad957f7c6a12ea16e26","6622cf93de5c5465f45dedb2","
    <div id=""grid-container"">
        <!-- Grid items will be dynamically added here -->
    </div>    ","null","","","","","","","","","","","",""
"","null","html-keyboard-response","292","308006","0.0-13.0-0.27","84O9cZDYSD","653f02673c461bbfd79d8789","6617fad957f7c6a12ea16e26","6622cf93de5c5465f45dedb2","fixation cross","null","","","","","","","","","","","",""
"","101","html-keyboard-response","293","308107","0.0-13.0-1.27","84O9cZDYSD","653f02673c461bbfd79d8789","6617fad957f7c6a12ea16e26","6622cf93de5c5465f45dedb2","image grid","p","","","","","Phylogenetic_Distractor_Threat_target","800","ongrid","q","6","Phylogenetic","false","experimental"
"","null","html-keyboard-response","294","308261","0.0-13.0-2.27","84O9cZDYSD","653f02673c461bbfd79d8789","6617fad957f7c6a12ea16e26","6622cf93de5c5465f45dedb2","
    <div id=""grid-container"">
        <!-- Grid items will be dynamically added here -->
    </div>    ","null","","","","","","","","","","","",""
"","499","html-keyboard-response","295","308971","0.0-13.0-0.28","84O9cZDYSD","653f02673c461bbfd79d8789","6617fad957f7c6a12ea16e26","6622cf93de5c5465f45dedb2","fixation cross","q","","","","","","","","","","","",""
"","479","html-keyboard-response","296","309451","0.0-13.0-1.28","84O9cZDYSD","653f02673c461bbfd79d8789","6617fad957f7c6a12ea16e26","6622cf93de5c5465f45dedb2","image grid","q","","","","","Phylogenetic_Distractor_Threat_target","800","ongrid","q","1","Phylogenetic","true","experimental"
"","null","html-keyboard-response","297","309628","0.0-13.0-2.28","84O9cZDYSD","653f02673c461bbfd79d8789","6617fad957f7c6a12ea16e26","6622cf93de5c5465f45dedb2","
    <div id=""grid-container"">
        <!-- Grid items will be dynamically added here -->
    </div>    ","null","","","","","","","","","","","",""
"","425","html-keyboard-response","298","310350","0.0-13.0-0.29","84O9cZDYSD","653f02673c461bbfd79d8789","6617fad957f7c6a12ea16e26","6622cf93de5c5465f45dedb2","fixation cross","p","","","","","","","","","","","",""
"","525","html-keyboard-response","299","310876","0.0-13.0-1.29","84O9cZDYSD","653f02673c461bbfd79d8789","6617fad957f7c6a12ea16e26","6622cf93de5c5465f45dedb2","image grid","q","","","","","Phylogenetic_Distractor_Threat_target","800","ongrid","q","8","Phylogenetic","true","experimental"
"","null","html-keyboard-response","300","311035","0.0-13.0-2.29","84O9cZDYSD","653f02673c461bbfd79d8789","6617fad957f7c6a12ea16e26","6622cf93de5c5465f45dedb2","
    <div id=""grid-container"">
        <!-- Grid items will be dynamically added here -->
    </div>    ","null","","","","","","","","","","","",""
"","null","html-keyboard-response","301","311749","0.0-13.0-0.30","84O9cZDYSD","653f02673c461bbfd79d8789","6617fad957f7c6a12ea16e26","6622cf93de5c5465f45dedb2","fixation cross","null","","","","","","","","","","","",""
"","109","html-keyboard-response","302","311859","0.0-13.0-1.30","84O9cZDYSD","653f02673c461bbfd79d8789","6617fad957f7c6a12ea16e26","6622cf93de5c5465f45dedb2","image grid","p","","","","","Phylogenetic_Distractor_Nonthreat_target","800","ongrid","p","2","Phylogenetic","true","experimental"
"","null","html-keyboard-response","303","312015","0.0-13.0-2.30","84O9cZDYSD","653f02673c461bbfd79d8789","6617fad957f7c6a12ea16e26","6622cf93de5c5465f45dedb2","
    <div id=""grid-container"">
        <!-- Grid items will be dynamically added here -->
    </div>    ","null","","","","","","","","","","","",""
"","null","html-keyboard-response","304","312737","0.0-13.0-0.31","84O9cZDYSD","653f02673c461bbfd79d8789","6617fad957f7c6a12ea16e26","6622cf93de5c5465f45dedb2","fixation cross","null","","","","","","","","","","","",""
"","56","html-keyboard-response","305","312793","0.0-13.0-1.31","84O9cZDYSD","653f02673c461bbfd79d8789","6617fad957f7c6a12ea16e26","6622cf93de5c5465f45dedb2","image grid","q","","","","","Phylogenetic_Distractor_Nonthreat_target","800","ongrid","p","1","Phylogenetic","false","experimental"
"","null","html-keyboard-response","306","312949","0.0-13.0-2.31","84O9cZDYSD","653f02673c461bbfd79d8789","6617fad957f7c6a12ea16e26","6622cf93de5c5465f45dedb2","
    <div id=""grid-container"">
        <!-- Grid items will be dynamically added here -->
    </div>    ","null","","","","","","","","","","","",""
"","null","html-keyboard-response","307","313667","0.0-13.0-0.32","84O9cZDYSD","653f02673c461bbfd79d8789","6617fad957f7c6a12ea16e26","6622cf93de5c5465f45dedb2","fixation cross","null","","","","","","","","","","","",""
"","311","html-keyboard-response","308","313979","0.0-13.0-1.32","84O9cZDYSD","653f02673c461bbfd79d8789","6617fad957f7c6a12ea16e26","6622cf93de5c5465f45dedb2","image grid","p","","","","","Phylogenetic_Distractor_Nonthreat_target","800","ongrid","p","3","Phylogenetic","true","experimental"
"","null","html-keyboard-response","309","314143","0.0-13.0-2.32","84O9cZDYSD","653f02673c461bbfd79d8789","6617fad957f7c6a12ea16e26","6622cf93de5c5465f45dedb2","
    <div id=""grid-container"">
        <!-- Grid items will be dynamically added here -->
    </div>    ","null","","","","","","","","","","","",""
"","null","html-keyboard-response","310","314858","0.0-13.0-0.33","84O9cZDYSD","653f02673c461bbfd79d8789","6617fad957f7c6a12ea16e26","6622cf93de5c5465f45dedb2","fixation cross","null","","","","","","","","","","","",""
"","175","html-keyboard-response","311","315035","0.0-13.0-1.33","84O9cZDYSD","653f02673c461bbfd79d8789","6617fad957f7c6a12ea16e26","6622cf93de5c5465f45dedb2","image grid","q","","","","","Phylogenetic_Distractor_notarget","800","ongrid"," ","4","Phylogenetic","false","experimental"
"","null","html-keyboard-response","312","315188","0.0-13.0-2.33","84O9cZDYSD","653f02673c461bbfd79d8789","6617fad957f7c6a12ea16e26","6622cf93de5c5465f45dedb2","
    <div id=""grid-container"">
        <!-- Grid items will be dynamically added here -->
    </div>    ","null","","","","","","","","","","","",""
"","null","html-keyboard-response","313","315909","0.0-13.0-0.34","84O9cZDYSD","653f02673c461bbfd79d8789","6617fad957f7c6a12ea16e26","6622cf93de5c5465f45dedb2","fixation cross","null","","","","","","","","","","","",""
"","181","html-keyboard-response","314","316091","0.0-13.0-1.34","84O9cZDYSD","653f02673c461bbfd79d8789","6617fad957f7c6a12ea16e26","6622cf93de5c5465f45dedb2","image grid","p","","","","","Phylogenetic_Distractor_Threat_target","800","ongrid","q","3","Phylogenetic","false","experimental"
"","null","html-keyboard-response","315","316253","0.0-13.0-2.34","84O9cZDYSD","653f02673c461bbfd79d8789","6617fad957f7c6a12ea16e26","6622cf93de5c5465f45dedb2","
    <div id=""grid-container"">
        <!-- Grid items will be dynamically added here -->
    </div>    ","null","","","","","","","","","","","",""
"","461","html-keyboard-response","316","316970","0.0-13.0-0.35","84O9cZDYSD","653f02673c461bbfd79d8789","6617fad957f7c6a12ea16e26","6622cf93de5c5465f45dedb2","fixation cross","q","","","","","","","","","","","",""
"","512","html-keyboard-response","317","317483","0.0-13.0-1.35","84O9cZDYSD","653f02673c461bbfd79d8789","6617fad957f7c6a12ea16e26","6622cf93de5c5465f45dedb2","image grid","q","","","","","Phylogenetic_Distractor_notarget","800","ongrid"," ","9","Phylogenetic","false","experimental"
"","null","html-keyboard-response","318","317637","0.0-13.0-2.35","84O9cZDYSD","653f02673c461bbfd79d8789","6617fad957f7c6a12ea16e26","6622cf93de5c5465f45dedb2","
    <div id=""grid-container"">
        <!-- Grid items will be dynamically added here -->
    </div>    ","null","","","","","","","","","","","",""
"","null","html-keyboard-response","319","318351","0.0-13.0-0.36","84O9cZDYSD","653f02673c461bbfd79d8789","6617fad957f7c6a12ea16e26","6622cf93de5c5465f45dedb2","fixation cross","null","","","","","","","","","","","",""
"","330","html-keyboard-response","320","318682","0.0-13.0-1.36","84O9cZDYSD","653f02673c461bbfd79d8789","6617fad957f7c6a12ea16e26","6622cf93de5c5465f45dedb2","image grid","p","","","","","Phylogenetic_Distractor_Nonthreat_target","800","ongrid","p","9","Phylogenetic","true","experimental"
"","null","html-keyboard-response","321","318841","0.0-13.0-2.36","84O9cZDYSD","653f02673c461bbfd79d8789","6617fad957f7c6a12ea16e26","6622cf93de5c5465f45dedb2","
    <div id=""grid-container"">
        <!-- Grid items will be dynamically added here -->
    </div>    ","null","","","","","","","","","","","",""
"","null","html-keyboard-response","322","319555","0.0-13.0-0.37","84O9cZDYSD","653f02673c461bbfd79d8789","6617fad957f7c6a12ea16e26","6622cf93de5c5465f45dedb2","fixation cross","null","","","","","","","","","","","",""
"","null","html-keyboard-response","323","320366","0.0-13.0-1.37","84O9cZDYSD","653f02673c461bbfd79d8789","6617fad957f7c6a12ea16e26","6622cf93de5c5465f45dedb2","
        <div id=""grid-container"">
        <!-- Grid items will be dynamically added here -->
    </div>    ","null","","","","","","","","","","","",""
"","843","html-keyboard-response","324","320410","0.0-13.0-2.37","84O9cZDYSD","653f02673c461bbfd79d8789","6617fad957f7c6a12ea16e26","6622cf93de5c5465f45dedb2","mask grid","p","","","","","Phylogenetic_Distractor_Threat_target","800","onmask","q","6","Phylogenetic","false","experimental"
"","null","html-keyboard-response","325","321121","0.0-13.0-0.38","84O9cZDYSD","653f02673c461bbfd79d8789","6617fad957f7c6a12ea16e26","6622cf93de5c5465f45dedb2","fixation cross","null","","","","","","","","","","","",""
"","425","html-keyboard-response","326","321547","0.0-13.0-1.38","84O9cZDYSD","653f02673c461bbfd79d8789","6617fad957f7c6a12ea16e26","6622cf93de5c5465f45dedb2","image grid","p","","","","","Phylogenetic_Distractor_Threat_target","800","ongrid","q","7","Phylogenetic","false","experimental"
"","null","html-keyboard-response","327","321710","0.0-13.0-2.38","84O9cZDYSD","653f02673c461bbfd79d8789","6617fad957f7c6a12ea16e26","6622cf93de5c5465f45dedb2","
    <div id=""grid-container"">
        <!-- Grid items will be dynamically added here -->
    </div>    ","null","","","","","","","","","","","",""
"","null","html-keyboard-response","328","322427","0.0-13.0-0.39","84O9cZDYSD","653f02673c461bbfd79d8789","6617fad957f7c6a12ea16e26","6622cf93de5c5465f45dedb2","fixation cross","null","","","","","","","","","","","",""
"","439","html-keyboard-response","329","322866","0.0-13.0-1.39","84O9cZDYSD","653f02673c461bbfd79d8789","6617fad957f7c6a12ea16e26","6622cf93de5c5465f45dedb2","image grid","p","","","","","Phylogenetic_Distractor_Nonthreat_target","800","ongrid","p","6","Phylogenetic","true","experimental"
"","null","html-keyboard-response","330","323028","0.0-13.0-2.39","84O9cZDYSD","653f02673c461bbfd79d8789","6617fad957f7c6a12ea16e26","6622cf93de5c5465f45dedb2","
    <div id=""grid-container"">
        <!-- Grid items will be dynamically added here -->
    </div>    ","null","","","","","","","","","","","",""
"","74371","html-keyboard-response","331","397603","0.0-14.0","84O9cZDYSD","653f02673c461bbfd79d8789","6617fad957f7c6a12ea16e26","6622cf93de5c5465f45dedb2","break screen","q","","","","","","","","","","","",""
"","null","html-keyboard-response","332","400121","0.0-15.0-0.0","84O9cZDYSD","653f02673c461bbfd79d8789","6617fad957f7c6a12ea16e26","6622cf93de5c5465f45dedb2","fixation cross","null","","","","","","","","","","","",""
"","1185","html-keyboard-response","333","401306","0.0-15.0-1.0","84O9cZDYSD","653f02673c461bbfd79d8789","6617fad957f7c6a12ea16e26","6622cf93de5c5465f45dedb2","image grid","p","","","","","Ontogenetic_Distractor_Threat_target","2500","ongrid","q","5","Ontogenetic","false","experimental"
"","null","html-keyboard-response","334","401470","0.0-15.0-2.0","84O9cZDYSD","653f02673c461bbfd79d8789","6617fad957f7c6a12ea16e26","6622cf93de5c5465f45dedb2","
    <div id=""grid-container"">
        <!-- Grid items will be dynamically added here -->
    </div>    ","null","","","","","","","","","","","",""
"","null","html-keyboard-response","335","402197","0.0-15.0-0.1","84O9cZDYSD","653f02673c461bbfd79d8789","6617fad957f7c6a12ea16e26","6622cf93de5c5465f45dedb2","fixation cross","null","","","","","","","","","","","",""
"","365","html-keyboard-response","336","402563","0.0-15.0-1.1","84O9cZDYSD","653f02673c461bbfd79d8789","6617fad957f7c6a12ea16e26","6622cf93de5c5465f45dedb2","image grid","q","","","","","Ontogenetic_Distractor_Nonthreat_target","2500","ongrid","p","4","Ontogenetic","false","experimental"
"","null","html-keyboard-response","337","402725","0.0-15.0-2.1","84O9cZDYSD","653f02673c461bbfd79d8789","6617fad957f7c6a12ea16e26","6622cf93de5c5465f45dedb2","
    <div id=""grid-container"">
        <!-- Grid items will be dynamically added here -->
    </div>    ","null","","","","","","","","","","","",""
"","null","html-keyboard-response","338","403446","0.0-15.0-0.2","84O9cZDYSD","653f02673c461bbfd79d8789","6617fad957f7c6a12ea16e26","6622cf93de5c5465f45dedb2","fixation cross","null","","","","","","","","","","","",""
"","604","html-keyboard-response","339","404052","0.0-15.0-1.2","84O9cZDYSD","653f02673c461bbfd79d8789","6617fad957f7c6a12ea16e26","6622cf93de5c5465f45dedb2","image grid","p","","","","","Ontogenetic_Distractor_Threat_target","2500","ongrid","q","8","Ontogenetic","false","experimental"
"","null","html-keyboard-response","340","404216","0.0-15.0-2.2","84O9cZDYSD","653f02673c461bbfd79d8789","6617fad957f7c6a12ea16e26","6622cf93de5c5465f45dedb2","
    <div id=""grid-container"">
        <!-- Grid items will be dynamically added here -->
    </div>    ","null","","","","","","","","","","","",""
"","null","html-keyboard-response","341","404933","0.0-15.0-0.3","84O9cZDYSD","653f02673c461bbfd79d8789","6617fad957f7c6a12ea16e26","6622cf93de5c5465f45dedb2","fixation cross","null","","","","","","","","","","","",""
"","533","html-keyboard-response","342","405468","0.0-15.0-1.3","84O9cZDYSD","653f02673c461bbfd79d8789","6617fad957f7c6a12ea16e26","6622cf93de5c5465f45dedb2","image grid","p","","","","","Ontogenetic_Distractor_notarget","2500","ongrid"," ","6","Ontogenetic","false","experimental"
"","null","html-keyboard-response","343","405626","0.0-15.0-2.3","84O9cZDYSD","653f02673c461bbfd79d8789","6617fad957f7c6a12ea16e26","6622cf93de5c5465f45dedb2","
    <div id=""grid-container"">
        <!-- Grid items will be dynamically added here -->
    </div>    ","null","","","","","","","","","","","",""
"","null","html-keyboard-response","344","406350","0.0-15.0-0.4","84O9cZDYSD","653f02673c461bbfd79d8789","6617fad957f7c6a12ea16e26","6622cf93de5c5465f45dedb2","fixation cross","null","","","","","","","","","","","",""
"","572","html-keyboard-response","345","406923","0.0-15.0-1.4","84O9cZDYSD","653f02673c461bbfd79d8789","6617fad957f7c6a12ea16e26","6622cf93de5c5465f45dedb2","image grid","p","","","","","Ontogenetic_Distractor_Nonthreat_target","2500","ongrid","p","9","Ontogenetic","true","experimental"
"","null","html-keyboard-response","346","407086","0.0-15.0-2.4","84O9cZDYSD","653f02673c461bbfd79d8789","6617fad957f7c6a12ea16e26","6622cf93de5c5465f45dedb2","
    <div id=""grid-container"">
        <!-- Grid items will be dynamically added here -->
    </div>    ","null","","","","","","","","","","","",""
"","null","html-keyboard-response","347","407803","0.0-15.0-0.5","84O9cZDYSD","653f02673c461bbfd79d8789","6617fad957f7c6a12ea16e26","6622cf93de5c5465f45dedb2","fixation cross","null","","","","","","","","","","","",""
"","377","html-keyboard-response","348","408181","0.0-15.0-1.5","84O9cZDYSD","653f02673c461bbfd79d8789","6617fad957f7c6a12ea16e26","6622cf93de5c5465f45dedb2","image grid","q","","","","","Ontogenetic_Distractor_Nonthreat_target","2500","ongrid","p","7","Ontogenetic","false","experimental"
"","null","html-keyboard-response","349","408346","0.0-15.0-2.5","84O9cZDYSD","653f02673c461bbfd79d8789","6617fad957f7c6a12ea16e26","6622cf93de5c5465f45dedb2","
    <div id=""grid-container"">
        <!-- Grid items will be dynamically added here -->
    </div>    ","null","","","","","","","","","","","",""
"","null","html-keyboard-response","350","409070","0.0-15.0-0.6","84O9cZDYSD","653f02673c461bbfd79d8789","6617fad957f7c6a12ea16e26","6622cf93de5c5465f45dedb2","fixation cross","null","","","","","","","","","","","",""
"","372","html-keyboard-response","351","409443","0.0-15.0-1.6","84O9cZDYSD","653f02673c461bbfd79d8789","6617fad957f7c6a12ea16e26","6622cf93de5c5465f45dedb2","image grid","q","","","","","Ontogenetic_Distractor_Nonthreat_target","2500","ongrid","p","7","Ontogenetic","false","experimental"
"","null","html-keyboard-response","352","409597","0.0-15.0-2.6","84O9cZDYSD","653f02673c461bbfd79d8789","6617fad957f7c6a12ea16e26","6622cf93de5c5465f45dedb2","
    <div id=""grid-container"">
        <!-- Grid items will be dynamically added here -->
    </div>    ","null","","","","","","","","","","","",""
"","null","html-keyboard-response","353","410312","0.0-15.0-0.7","84O9cZDYSD","653f02673c461bbfd79d8789","6617fad957f7c6a12ea16e26","6622cf93de5c5465f45dedb2","fixation cross","null","","","","","","","","","","","",""
"","490","html-keyboard-response","354","410803","0.0-15.0-1.7","84O9cZDYSD","653f02673c461bbfd79d8789","6617fad957f7c6a12ea16e26","6622cf93de5c5465f45dedb2","image grid","p","","","","","Ontogenetic_Distractor_Nonthreat_target","2500","ongrid","p","2","Ontogenetic","true","experimental"
"","null","html-keyboard-response","355","410964","0.0-15.0-2.7","84O9cZDYSD","653f02673c461bbfd79d8789","6617fad957f7c6a12ea16e26","6622cf93de5c5465f45dedb2","
    <div id=""grid-container"">
        <!-- Grid items will be dynamically added here -->
    </div>    ","null","","","","","","","","","","","",""
"","null","html-keyboard-response","356","411687","0.0-15.0-0.8","84O9cZDYSD","653f02673c461bbfd79d8789","6617fad957f7c6a12ea16e26","6622cf93de5c5465f45dedb2","fixation cross","null","","","","","","","","","","","",""
"","514","html-keyboard-response","357","412203","0.0-15.0-1.8","84O9cZDYSD","653f02673c461bbfd79d8789","6617fad957f7c6a12ea16e26","6622cf93de5c5465f45dedb2","image grid","p","","","","","Ontogenetic_Distractor_Threat_target","2500","ongrid","q","6","Ontogenetic","false","experimental"
"","null","html-keyboard-response","358","412362","0.0-15.0-2.8","84O9cZDYSD","653f02673c461bbfd79d8789","6617fad957f7c6a12ea16e26","6622cf93de5c5465f45dedb2","
    <div id=""grid-container"">
        <!-- Grid items will be dynamically added here -->
    </div>    ","null","","","","","","","","","","","",""
"","null","html-keyboard-response","359","413089","0.0-15.0-0.9","84O9cZDYSD","653f02673c461bbfd79d8789","6617fad957f7c6a12ea16e26","6622cf93de5c5465f45dedb2","fixation cross","null","","","","","","","","","","","",""
"","329","html-keyboard-response","360","413419","0.0-15.0-1.9","84O9cZDYSD","653f02673c461bbfd79d8789","6617fad957f7c6a12ea16e26","6622cf93de5c5465f45dedb2","image grid","q","","","","","Ontogenetic_Distractor_Threat_target","2500","ongrid","q","7","Ontogenetic","true","experimental"
"","null","html-keyboard-response","361","413585","0.0-15.0-2.9","84O9cZDYSD","653f02673c461bbfd79d8789","6617fad957f7c6a12ea16e26","6622cf93de5c5465f45dedb2","
    <div id=""grid-container"">
        <!-- Grid items will be dynamically added here -->
    </div>    ","null","","","","","","","","","","","",""
"","null","html-keyboard-response","362","414299","0.0-15.0-0.10","84O9cZDYSD","653f02673c461bbfd79d8789","6617fad957f7c6a12ea16e26","6622cf93de5c5465f45dedb2","fixation cross","null","","","","","","","","","","","",""
"","463","html-keyboard-response","363","414763","0.0-15.0-1.10","84O9cZDYSD","653f02673c461bbfd79d8789","6617fad957f7c6a12ea16e26","6622cf93de5c5465f45dedb2","image grid","p","","","","","Ontogenetic_Distractor_Threat_target","2500","ongrid","q","7","Ontogenetic","false","experimental"
"","null","html-keyboard-response","364","414918","0.0-15.0-2.10","84O9cZDYSD","653f02673c461bbfd79d8789","6617fad957f7c6a12ea16e26","6622cf93de5c5465f45dedb2","
    <div id=""grid-container"">
        <!-- Grid items will be dynamically added here -->
    </div>    ","null","","","","","","","","","","","",""
"","null","html-keyboard-response","365","415642","0.0-15.0-0.11","84O9cZDYSD","653f02673c461bbfd79d8789","6617fad957f7c6a12ea16e26","6622cf93de5c5465f45dedb2","fixation cross","null","","","","","","","","","","","",""
"","368","html-keyboard-response","366","416011","0.0-15.0-1.11","84O9cZDYSD","653f02673c461bbfd79d8789","6617fad957f7c6a12ea16e26","6622cf93de5c5465f45dedb2","image grid","q","","","","","Ontogenetic_Distractor_Nonthreat_target","2500","ongrid","p","8","Ontogenetic","false","experimental"
"","null","html-keyboard-response","367","416178","0.0-15.0-2.11","84O9cZDYSD","653f02673c461bbfd79d8789","6617fad957f7c6a12ea16e26","6622cf93de5c5465f45dedb2","
    <div id=""grid-container"">
        <!-- Grid items will be dynamically added here -->
    </div>    ","null","","","","","","","","","","","",""
"","null","html-keyboard-response","368","416888","0.0-15.0-0.12","84O9cZDYSD","653f02673c461bbfd79d8789","6617fad957f7c6a12ea16e26","6622cf93de5c5465f45dedb2","fixation cross","null","","","","","","","","","","","",""
"","579","html-keyboard-response","369","417468","0.0-15.0-1.12","84O9cZDYSD","653f02673c461bbfd79d8789","6617fad957f7c6a12ea16e26","6622cf93de5c5465f45dedb2","image grid","p","","","","","Ontogenetic_Distractor_Nonthreat_target","2500","ongrid","p","5","Ontogenetic","true","experimental"
"","null","html-keyboard-response","370","417639","0.0-15.0-2.12","84O9cZDYSD","653f02673c461bbfd79d8789","6617fad957f7c6a12ea16e26","6622cf93de5c5465f45dedb2","
    <div id=""grid-container"">
        <!-- Grid items will be dynamically added here -->
    </div>    ","null","","","","","","","","","","","",""
