"success","rt","trial_type","trial_index","time_elapsed","internal_node_id","unique_identifier","subject_id","study_id","session_id","stimulus","response","timeout","failed_images","failed_audio","failed_video","task","time_manipulation","respondedwhen","correctresponse","targetimagelocation","blocktype","correct","roundtype"
"true","2950","fullscreen","0","3953","0.0-0.0","hSdHdJPZH0","65d6ce10fbdaf41679cebe84","6617fad957f7c6a12ea16e26","6622cade065f433be3dbf8c3","","","","","","","","","","","","","",""
"","6274","html-keyboard-response","1","10229","0.0-1.0","hSdHdJPZH0","65d6ce10fbdaf41679cebe84","6617fad957f7c6a12ea16e26","6622cade065f433be3dbf8c3","instruction screen 0","arrowright","","","","","","","","","","","",""
"true","","preload","2","15920","0.0-2.0","hSdHdJPZH0","65d6ce10fbdaf41679cebe84","6617fad957f7c6a12ea16e26","6622cade065f433be3dbf8c3","","","false","[]","[]","[]","","","","","","","",""
"","12195","html-keyboard-response","3","28116","0.0-3.0","hSdHdJPZH0","65d6ce10fbdaf41679cebe84","6617fad957f7c6a12ea16e26","6622cade065f433be3dbf8c3","instruction screen 1","arrowright","","","","","","","","","","","",""
"","21150","html-keyboard-response","4","49268","0.0-4.0","hSdHdJPZH0","65d6ce10fbdaf41679cebe84","6617fad957f7c6a12ea16e26","6622cade065f433be3dbf8c3","instruction screen 2","q","","","","","","","","","","","",""
"","5357","html-keyboard-response","5","54627","0.0-5.0","hSdHdJPZH0","65d6ce10fbdaf41679cebe84","6617fad957f7c6a12ea16e26","6622cade065f433be3dbf8c3","instruction screen 3","p","","","","","","","","","","","",""
"","3078","html-keyboard-response","6","57707","0.0-6.0","hSdHdJPZH0","65d6ce10fbdaf41679cebe84","6617fad957f7c6a12ea16e26","6622cade065f433be3dbf8c3","instruction screen 4"," ","","","","","","","","","","","",""
"","11108","html-keyboard-response","7","68844","0.0-7.0","hSdHdJPZH0","65d6ce10fbdaf41679cebe84","6617fad957f7c6a12ea16e26","6622cade065f433be3dbf8c3","instruction screen 5"," ","","","","","","","","","","","",""
"","null","html-keyboard-response","8","69376","0.0-8.0","hSdHdJPZH0","65d6ce10fbdaf41679cebe84","6617fad957f7c6a12ea16e26","6622cade065f433be3dbf8c3","fixation cross","null","","","","","","","","","","","",""
"","null","html-keyboard-response","9","69877","0.0-9.0-0.0","hSdHdJPZH0","65d6ce10fbdaf41679cebe84","6617fad957f7c6a12ea16e26","6622cade065f433be3dbf8c3","fixation cross","null","","","","","","","","","","","",""
"","2158","html-keyboard-response","10","72036","0.0-9.0-1.0","hSdHdJPZH0","65d6ce10fbdaf41679cebe84","6617fad957f7c6a12ea16e26","6622cade065f433be3dbf8c3","image grid"," ","","","","","Phylogenetic_Distractor_notarget","3000","ongrid"," ","9","Phylogenetic","true","practice"
"","null","html-keyboard-response","11","72187","0.0-9.0-2.0","hSdHdJPZH0","65d6ce10fbdaf41679cebe84","6617fad957f7c6a12ea16e26","6622cade065f433be3dbf8c3","
    <div id=""grid-container"">
        <!-- Grid items will be dynamically added here -->
    </div>    ","null","","","","","","","","","","","",""
"","null","html-keyboard-response","12","73391","0.0-9.0-3.0","hSdHdJPZH0","65d6ce10fbdaf41679cebe84","6617fad957f7c6a12ea16e26","6622cade065f433be3dbf8c3","feedback screen","null","","","","","","","","","","","",""
"","null","html-keyboard-response","13","73895","0.0-9.0-0.1","hSdHdJPZH0","65d6ce10fbdaf41679cebe84","6617fad957f7c6a12ea16e26","6622cade065f433be3dbf8c3","fixation cross","null","","","","","","","","","","","",""
"","2051","html-keyboard-response","14","75946","0.0-9.0-1.1","hSdHdJPZH0","65d6ce10fbdaf41679cebe84","6617fad957f7c6a12ea16e26","6622cade065f433be3dbf8c3","image grid","q","","","","","Ontogenetic_Distractor_Threat_target","2900","ongrid","q","7","Phylogenetic","true","practice"
"","null","html-keyboard-response","15","76098","0.0-9.0-2.1","hSdHdJPZH0","65d6ce10fbdaf41679cebe84","6617fad957f7c6a12ea16e26","6622cade065f433be3dbf8c3","
    <div id=""grid-container"">
        <!-- Grid items will be dynamically added here -->
    </div>    ","null","","","","","","","","","","","",""
"","null","html-keyboard-response","16","77300","0.0-9.0-3.1","hSdHdJPZH0","65d6ce10fbdaf41679cebe84","6617fad957f7c6a12ea16e26","6622cade065f433be3dbf8c3","feedback screen","null","","","","","","","","","","","",""
"","null","html-keyboard-response","17","77803","0.0-9.0-0.2","hSdHdJPZH0","65d6ce10fbdaf41679cebe84","6617fad957f7c6a12ea16e26","6622cade065f433be3dbf8c3","fixation cross","null","","","","","","","","","","","",""
"","1784","html-keyboard-response","18","79588","0.0-9.0-1.2","hSdHdJPZH0","65d6ce10fbdaf41679cebe84","6617fad957f7c6a12ea16e26","6622cade065f433be3dbf8c3","image grid"," ","","","","","Ontogenetic_Distractor_Nonthreat_target","2800","ongrid","p","9","Phylogenetic","false","practice"
"","null","html-keyboard-response","19","79739","0.0-9.0-2.2","hSdHdJPZH0","65d6ce10fbdaf41679cebe84","6617fad957f7c6a12ea16e26","6622cade065f433be3dbf8c3","
    <div id=""grid-container"">
        <!-- Grid items will be dynamically added here -->
    </div>    ","null","","","","","","","","","","","",""
"","null","html-keyboard-response","20","80941","0.0-9.0-3.2","hSdHdJPZH0","65d6ce10fbdaf41679cebe84","6617fad957f7c6a12ea16e26","6622cade065f433be3dbf8c3","feedback screen","null","","","","","","","","","","","",""
"","null","html-keyboard-response","21","81445","0.0-9.0-0.3","hSdHdJPZH0","65d6ce10fbdaf41679cebe84","6617fad957f7c6a12ea16e26","6622cade065f433be3dbf8c3","fixation cross","null","","","","","","","","","","","",""
"","1438","html-keyboard-response","22","82883","0.0-9.0-1.3","hSdHdJPZH0","65d6ce10fbdaf41679cebe84","6617fad957f7c6a12ea16e26","6622cade065f433be3dbf8c3","image grid","q","","","","","Ontogenetic_Distractor_Threat_target","2700","ongrid","q","3","Phylogenetic","true","practice"
"","null","html-keyboard-response","23","83035","0.0-9.0-2.3","hSdHdJPZH0","65d6ce10fbdaf41679cebe84","6617fad957f7c6a12ea16e26","6622cade065f433be3dbf8c3","
    <div id=""grid-container"">
        <!-- Grid items will be dynamically added here -->
    </div>    ","null","","","","","","","","","","","",""
"","null","html-keyboard-response","24","84237","0.0-9.0-3.3","hSdHdJPZH0","65d6ce10fbdaf41679cebe84","6617fad957f7c6a12ea16e26","6622cade065f433be3dbf8c3","feedback screen","null","","","","","","","","","","","",""
"","null","html-keyboard-response","25","84741","0.0-9.0-0.4","hSdHdJPZH0","65d6ce10fbdaf41679cebe84","6617fad957f7c6a12ea16e26","6622cade065f433be3dbf8c3","fixation cross","null","","","","","","","","","","","",""
"","2342","html-keyboard-response","26","87083","0.0-9.0-1.4","hSdHdJPZH0","65d6ce10fbdaf41679cebe84","6617fad957f7c6a12ea16e26","6622cade065f433be3dbf8c3","image grid","p","","","","","Phylogenetic_Distractor_Nonthreat_target","2600","ongrid","p","7","Phylogenetic","true","practice"
"","null","html-keyboard-response","27","87234","0.0-9.0-2.4","hSdHdJPZH0","65d6ce10fbdaf41679cebe84","6617fad957f7c6a12ea16e26","6622cade065f433be3dbf8c3","
    <div id=""grid-container"">
        <!-- Grid items will be dynamically added here -->
    </div>    ","null","","","","","","","","","","","",""
"","null","html-keyboard-response","28","88436","0.0-9.0-3.4","hSdHdJPZH0","65d6ce10fbdaf41679cebe84","6617fad957f7c6a12ea16e26","6622cade065f433be3dbf8c3","feedback screen","null","","","","","","","","","","","",""
"","null","html-keyboard-response","29","88939","0.0-9.0-0.5","hSdHdJPZH0","65d6ce10fbdaf41679cebe84","6617fad957f7c6a12ea16e26","6622cade065f433be3dbf8c3","fixation cross","null","","","","","","","","","","","",""
"","1776","html-keyboard-response","30","90715","0.0-9.0-1.5","hSdHdJPZH0","65d6ce10fbdaf41679cebe84","6617fad957f7c6a12ea16e26","6622cade065f433be3dbf8c3","image grid"," ","","","","","Phylogenetic_Distractor_notarget","2500","ongrid"," ","5","Phylogenetic","true","practice"
"","null","html-keyboard-response","31","90867","0.0-9.0-2.5","hSdHdJPZH0","65d6ce10fbdaf41679cebe84","6617fad957f7c6a12ea16e26","6622cade065f433be3dbf8c3","
    <div id=""grid-container"">
        <!-- Grid items will be dynamically added here -->
    </div>    ","null","","","","","","","","","","","",""
"","null","html-keyboard-response","32","92070","0.0-9.0-3.5","hSdHdJPZH0","65d6ce10fbdaf41679cebe84","6617fad957f7c6a12ea16e26","6622cade065f433be3dbf8c3","feedback screen","null","","","","","","","","","","","",""
"","null","html-keyboard-response","33","92573","0.0-9.0-0.6","hSdHdJPZH0","65d6ce10fbdaf41679cebe84","6617fad957f7c6a12ea16e26","6622cade065f433be3dbf8c3","fixation cross","null","","","","","","","","","","","",""
"","998","html-keyboard-response","34","93571","0.0-9.0-1.6","hSdHdJPZH0","65d6ce10fbdaf41679cebe84","6617fad957f7c6a12ea16e26","6622cade065f433be3dbf8c3","image grid","p","","","","","Ontogenetic_Distractor_Nonthreat_target","2400","ongrid","p","8","Phylogenetic","true","practice"
"","null","html-keyboard-response","35","93722","0.0-9.0-2.6","hSdHdJPZH0","65d6ce10fbdaf41679cebe84","6617fad957f7c6a12ea16e26","6622cade065f433be3dbf8c3","
    <div id=""grid-container"">
        <!-- Grid items will be dynamically added here -->
    </div>    ","null","","","","","","","","","","","",""
"","null","html-keyboard-response","36","94924","0.0-9.0-3.6","hSdHdJPZH0","65d6ce10fbdaf41679cebe84","6617fad957f7c6a12ea16e26","6622cade065f433be3dbf8c3","feedback screen","null","","","","","","","","","","","",""
"","null","html-keyboard-response","37","95427","0.0-9.0-0.7","hSdHdJPZH0","65d6ce10fbdaf41679cebe84","6617fad957f7c6a12ea16e26","6622cade065f433be3dbf8c3","fixation cross","null","","","","","","","","","","","",""
"","1600","html-keyboard-response","38","97027","0.0-9.0-1.7","hSdHdJPZH0","65d6ce10fbdaf41679cebe84","6617fad957f7c6a12ea16e26","6622cade065f433be3dbf8c3","image grid"," ","","","","","Ontogenetic_Distractor_notarget","2300","ongrid"," ","8","Phylogenetic","true","practice"
"","null","html-keyboard-response","39","97178","0.0-9.0-2.7","hSdHdJPZH0","65d6ce10fbdaf41679cebe84","6617fad957f7c6a12ea16e26","6622cade065f433be3dbf8c3","
    <div id=""grid-container"">
        <!-- Grid items will be dynamically added here -->
    </div>    ","null","","","","","","","","","","","",""
"","null","html-keyboard-response","40","98381","0.0-9.0-3.7","hSdHdJPZH0","65d6ce10fbdaf41679cebe84","6617fad957f7c6a12ea16e26","6622cade065f433be3dbf8c3","feedback screen","null","","","","","","","","","","","",""
"","null","html-keyboard-response","41","98884","0.0-9.0-0.8","hSdHdJPZH0","65d6ce10fbdaf41679cebe84","6617fad957f7c6a12ea16e26","6622cade065f433be3dbf8c3","fixation cross","null","","","","","","","","","","","",""
"","1343","html-keyboard-response","42","100227","0.0-9.0-1.8","hSdHdJPZH0","65d6ce10fbdaf41679cebe84","6617fad957f7c6a12ea16e26","6622cade065f433be3dbf8c3","image grid","p","","","","","Phylogenetic_Distractor_Nonthreat_target","2200","ongrid","p","8","Phylogenetic","true","practice"
"","null","html-keyboard-response","43","100378","0.0-9.0-2.8","hSdHdJPZH0","65d6ce10fbdaf41679cebe84","6617fad957f7c6a12ea16e26","6622cade065f433be3dbf8c3","
    <div id=""grid-container"">
        <!-- Grid items will be dynamically added here -->
    </div>    ","null","","","","","","","","","","","",""
"","null","html-keyboard-response","44","101582","0.0-9.0-3.8","hSdHdJPZH0","65d6ce10fbdaf41679cebe84","6617fad957f7c6a12ea16e26","6622cade065f433be3dbf8c3","feedback screen","null","","","","","","","","","","","",""
"","null","html-keyboard-response","45","102085","0.0-9.0-0.9","hSdHdJPZH0","65d6ce10fbdaf41679cebe84","6617fad957f7c6a12ea16e26","6622cade065f433be3dbf8c3","fixation cross","null","","","","","","","","","","","",""
"","1550","html-keyboard-response","46","103635","0.0-9.0-1.9","hSdHdJPZH0","65d6ce10fbdaf41679cebe84","6617fad957f7c6a12ea16e26","6622cade065f433be3dbf8c3","image grid","q","","","","","Phylogenetic_Distractor_Threat_target","2100","ongrid","q","3","Phylogenetic","true","practice"
"","null","html-keyboard-response","47","103787","0.0-9.0-2.9","hSdHdJPZH0","65d6ce10fbdaf41679cebe84","6617fad957f7c6a12ea16e26","6622cade065f433be3dbf8c3","
    <div id=""grid-container"">
        <!-- Grid items will be dynamically added here -->
    </div>    ","null","","","","","","","","","","","",""
"","null","html-keyboard-response","48","104991","0.0-9.0-3.9","hSdHdJPZH0","65d6ce10fbdaf41679cebe84","6617fad957f7c6a12ea16e26","6622cade065f433be3dbf8c3","feedback screen","null","","","","","","","","","","","",""
"","null","html-keyboard-response","49","105494","0.0-9.0-0.10","hSdHdJPZH0","65d6ce10fbdaf41679cebe84","6617fad957f7c6a12ea16e26","6622cade065f433be3dbf8c3","fixation cross","null","","","","","","","","","","","",""
"","869","html-keyboard-response","50","106363","0.0-9.0-1.10","hSdHdJPZH0","65d6ce10fbdaf41679cebe84","6617fad957f7c6a12ea16e26","6622cade065f433be3dbf8c3","image grid","q","","","","","Phylogenetic_Distractor_Threat_target","2000","ongrid","q","6","Phylogenetic","true","practice"
"","null","html-keyboard-response","51","106515","0.0-9.0-2.10","hSdHdJPZH0","65d6ce10fbdaf41679cebe84","6617fad957f7c6a12ea16e26","6622cade065f433be3dbf8c3","
    <div id=""grid-container"">
        <!-- Grid items will be dynamically added here -->
    </div>    ","null","","","","","","","","","","","",""
"","null","html-keyboard-response","52","107718","0.0-9.0-3.10","hSdHdJPZH0","65d6ce10fbdaf41679cebe84","6617fad957f7c6a12ea16e26","6622cade065f433be3dbf8c3","feedback screen","null","","","","","","","","","","","",""
"","null","html-keyboard-response","53","108220","0.0-9.0-0.11","hSdHdJPZH0","65d6ce10fbdaf41679cebe84","6617fad957f7c6a12ea16e26","6622cade065f433be3dbf8c3","fixation cross","null","","","","","","","","","","","",""
"","959","html-keyboard-response","54","109179","0.0-9.0-1.11","hSdHdJPZH0","65d6ce10fbdaf41679cebe84","6617fad957f7c6a12ea16e26","6622cade065f433be3dbf8c3","image grid","q","","","","","Ontogenetic_Distractor_Threat_target","1900","ongrid","q","9","Phylogenetic","true","practice"
"","null","html-keyboard-response","55","109331","0.0-9.0-2.11","hSdHdJPZH0","65d6ce10fbdaf41679cebe84","6617fad957f7c6a12ea16e26","6622cade065f433be3dbf8c3","
    <div id=""grid-container"">
        <!-- Grid items will be dynamically added here -->
    </div>    ","null","","","","","","","","","","","",""
"","null","html-keyboard-response","56","110534","0.0-9.0-3.11","hSdHdJPZH0","65d6ce10fbdaf41679cebe84","6617fad957f7c6a12ea16e26","6622cade065f433be3dbf8c3","feedback screen","null","","","","","","","","","","","",""
"","null","html-keyboard-response","57","111037","0.0-9.0-0.12","hSdHdJPZH0","65d6ce10fbdaf41679cebe84","6617fad957f7c6a12ea16e26","6622cade065f433be3dbf8c3","fixation cross","null","","","","","","","","","","","",""
"","1437","html-keyboard-response","58","112475","0.0-9.0-1.12","hSdHdJPZH0","65d6ce10fbdaf41679cebe84","6617fad957f7c6a12ea16e26","6622cade065f433be3dbf8c3","image grid","q","","","","","Phylogenetic_Distractor_Threat_target","1800","ongrid","q","1","Phylogenetic","true","practice"
"","null","html-keyboard-response","59","112626","0.0-9.0-2.12","hSdHdJPZH0","65d6ce10fbdaf41679cebe84","6617fad957f7c6a12ea16e26","6622cade065f433be3dbf8c3","
    <div id=""grid-container"">
        <!-- Grid items will be dynamically added here -->
    </div>    ","null","","","","","","","","","","","",""
"","null","html-keyboard-response","60","113829","0.0-9.0-3.12","hSdHdJPZH0","65d6ce10fbdaf41679cebe84","6617fad957f7c6a12ea16e26","6622cade065f433be3dbf8c3","feedback screen","null","","","","","","","","","","","",""
"","null","html-keyboard-response","61","114333","0.0-9.0-0.13","hSdHdJPZH0","65d6ce10fbdaf41679cebe84","6617fad957f7c6a12ea16e26","6622cade065f433be3dbf8c3","fixation cross","null","","","","","","","","","","","",""
"","null","html-keyboard-response","62","116034","0.0-9.0-1.13","hSdHdJPZH0","65d6ce10fbdaf41679cebe84","6617fad957f7c6a12ea16e26","6622cade065f433be3dbf8c3","
        <div id=""grid-container"">
        <!-- Grid items will be dynamically added here -->
    </div>    ","null","","","","","","","","","","","",""
"","1700","html-keyboard-response","63","121035","0.0-9.0-2.13","hSdHdJPZH0","65d6ce10fbdaf41679cebe84","6617fad957f7c6a12ea16e26","6622cade065f433be3dbf8c3","mask grid","null","","","","","Phylogenetic_Distractor_Nonthreat_target","1700","onmask","p","9","Phylogenetic","false","practice"
"","null","html-keyboard-response","64","122239","0.0-9.0-3.13","hSdHdJPZH0","65d6ce10fbdaf41679cebe84","6617fad957f7c6a12ea16e26","6622cade065f433be3dbf8c3","feedback screen","null","","","","","","","","","","","",""
"","null","html-keyboard-response","65","122743","0.0-9.0-0.14","hSdHdJPZH0","65d6ce10fbdaf41679cebe84","6617fad957f7c6a12ea16e26","6622cade065f433be3dbf8c3","fixation cross","null","","","","","","","","","","","",""
"","null","html-keyboard-response","66","124345","0.0-9.0-1.14","hSdHdJPZH0","65d6ce10fbdaf41679cebe84","6617fad957f7c6a12ea16e26","6622cade065f433be3dbf8c3","
        <div id=""grid-container"">
        <!-- Grid items will be dynamically added here -->
    </div>    ","null","","","","","","","","","","","",""
"","2562","html-keyboard-response","67","125307","0.0-9.0-2.14","hSdHdJPZH0","65d6ce10fbdaf41679cebe84","6617fad957f7c6a12ea16e26","6622cade065f433be3dbf8c3","mask grid","p","","","","","Phylogenetic_Distractor_Nonthreat_target","1600","onmask","p","7","Phylogenetic","true","practice"
"","null","html-keyboard-response","68","126511","0.0-9.0-3.14","hSdHdJPZH0","65d6ce10fbdaf41679cebe84","6617fad957f7c6a12ea16e26","6622cade065f433be3dbf8c3","feedback screen","null","","","","","","","","","","","",""
"","null","html-keyboard-response","69","127014","0.0-9.0-0.15","hSdHdJPZH0","65d6ce10fbdaf41679cebe84","6617fad957f7c6a12ea16e26","6622cade065f433be3dbf8c3","fixation cross","null","","","","","","","","","","","",""
"","null","html-keyboard-response","70","128516","0.0-9.0-1.15","hSdHdJPZH0","65d6ce10fbdaf41679cebe84","6617fad957f7c6a12ea16e26","6622cade065f433be3dbf8c3","
        <div id=""grid-container"">
        <!-- Grid items will be dynamically added here -->
    </div>    ","null","","","","","","","","","","","",""
"","1939","html-keyboard-response","71","128955","0.0-9.0-2.15","hSdHdJPZH0","65d6ce10fbdaf41679cebe84","6617fad957f7c6a12ea16e26","6622cade065f433be3dbf8c3","mask grid"," ","","","","","Ontogenetic_Distractor_notarget","1500","onmask"," ","4","Phylogenetic","true","practice"
"","null","html-keyboard-response","72","130156","0.0-9.0-3.15","hSdHdJPZH0","65d6ce10fbdaf41679cebe84","6617fad957f7c6a12ea16e26","6622cade065f433be3dbf8c3","feedback screen","null","","","","","","","","","","","",""
"","null","html-keyboard-response","73","130659","0.0-9.0-0.16","hSdHdJPZH0","65d6ce10fbdaf41679cebe84","6617fad957f7c6a12ea16e26","6622cade065f433be3dbf8c3","fixation cross","null","","","","","","","","","","","",""
"","1103","html-keyboard-response","74","131763","0.0-9.0-1.16","hSdHdJPZH0","65d6ce10fbdaf41679cebe84","6617fad957f7c6a12ea16e26","6622cade065f433be3dbf8c3","image grid","p","","","","","Ontogenetic_Distractor_Nonthreat_target","1400","ongrid","p","7","Phylogenetic","true","practice"
"","null","html-keyboard-response","75","131915","0.0-9.0-2.16","hSdHdJPZH0","65d6ce10fbdaf41679cebe84","6617fad957f7c6a12ea16e26","6622cade065f433be3dbf8c3","
    <div id=""grid-container"">
        <!-- Grid items will be dynamically added here -->
    </div>    ","null","","","","","","","","","","","",""
"","null","html-keyboard-response","76","133118","0.0-9.0-3.16","hSdHdJPZH0","65d6ce10fbdaf41679cebe84","6617fad957f7c6a12ea16e26","6622cade065f433be3dbf8c3","feedback screen","null","","","","","","","","","","","",""
"","null","html-keyboard-response","77","133621","0.0-9.0-0.17","hSdHdJPZH0","65d6ce10fbdaf41679cebe84","6617fad957f7c6a12ea16e26","6622cade065f433be3dbf8c3","fixation cross","null","","","","","","","","","","","",""
"","1292","html-keyboard-response","78","134914","0.0-9.0-1.17","hSdHdJPZH0","65d6ce10fbdaf41679cebe84","6617fad957f7c6a12ea16e26","6622cade065f433be3dbf8c3","image grid","q","","","","","Phylogenetic_Distractor_Threat_target","1300","ongrid","q","4","Phylogenetic","true","practice"
"","null","html-keyboard-response","79","135066","0.0-9.0-2.17","hSdHdJPZH0","65d6ce10fbdaf41679cebe84","6617fad957f7c6a12ea16e26","6622cade065f433be3dbf8c3","
    <div id=""grid-container"">
        <!-- Grid items will be dynamically added here -->
    </div>    ","null","","","","","","","","","","","",""
"","null","html-keyboard-response","80","136270","0.0-9.0-3.17","hSdHdJPZH0","65d6ce10fbdaf41679cebe84","6617fad957f7c6a12ea16e26","6622cade065f433be3dbf8c3","feedback screen","null","","","","","","","","","","","",""
"","null","html-keyboard-response","81","136774","0.0-9.0-0.18","hSdHdJPZH0","65d6ce10fbdaf41679cebe84","6617fad957f7c6a12ea16e26","6622cade065f433be3dbf8c3","fixation cross","null","","","","","","","","","","","",""
"","677","html-keyboard-response","82","137451","0.0-9.0-1.18","hSdHdJPZH0","65d6ce10fbdaf41679cebe84","6617fad957f7c6a12ea16e26","6622cade065f433be3dbf8c3","image grid","p","","","","","Ontogenetic_Distractor_Nonthreat_target","1200","ongrid","p","6","Phylogenetic","true","practice"
"","null","html-keyboard-response","83","137602","0.0-9.0-2.18","hSdHdJPZH0","65d6ce10fbdaf41679cebe84","6617fad957f7c6a12ea16e26","6622cade065f433be3dbf8c3","
    <div id=""grid-container"">
        <!-- Grid items will be dynamically added here -->
    </div>    ","null","","","","","","","","","","","",""
"","null","html-keyboard-response","84","138805","0.0-9.0-3.18","hSdHdJPZH0","65d6ce10fbdaf41679cebe84","6617fad957f7c6a12ea16e26","6622cade065f433be3dbf8c3","feedback screen","null","","","","","","","","","","","",""
"","null","html-keyboard-response","85","139309","0.0-9.0-0.19","hSdHdJPZH0","65d6ce10fbdaf41679cebe84","6617fad957f7c6a12ea16e26","6622cade065f433be3dbf8c3","fixation cross","null","","","","","","","","","","","",""
"","781","html-keyboard-response","86","140091","0.0-9.0-1.19","hSdHdJPZH0","65d6ce10fbdaf41679cebe84","6617fad957f7c6a12ea16e26","6622cade065f433be3dbf8c3","image grid","q","","","","","Ontogenetic_Distractor_Threat_target","1100","ongrid","q","2","Phylogenetic","true","practice"
"","null","html-keyboard-response","87","140242","0.0-9.0-2.19","hSdHdJPZH0","65d6ce10fbdaf41679cebe84","6617fad957f7c6a12ea16e26","6622cade065f433be3dbf8c3","
    <div id=""grid-container"">
        <!-- Grid items will be dynamically added here -->
    </div>    ","null","","","","","","","","","","","",""
"","null","html-keyboard-response","88","141444","0.0-9.0-3.19","hSdHdJPZH0","65d6ce10fbdaf41679cebe84","6617fad957f7c6a12ea16e26","6622cade065f433be3dbf8c3","feedback screen","null","","","","","","","","","","","",""
"","8208","html-keyboard-response","89","149691","0.0-10.0","hSdHdJPZH0","65d6ce10fbdaf41679cebe84","6617fad957f7c6a12ea16e26","6622cade065f433be3dbf8c3","pre-experimental_briefing"," ","","","","","","","","","","","",""
"","null","html-keyboard-response","90","152224","0.0-11.0-0.0","hSdHdJPZH0","65d6ce10fbdaf41679cebe84","6617fad957f7c6a12ea16e26","6622cade065f433be3dbf8c3","fixation cross","null","","","","","","","","","","","",""
"","1050","html-keyboard-response","91","153274","0.0-11.0-1.0","hSdHdJPZH0","65d6ce10fbdaf41679cebe84","6617fad957f7c6a12ea16e26","6622cade065f433be3dbf8c3","image grid","q","","","","","Phylogenetic_Distractor_Threat_target","2500","ongrid","q","2","Phylogenetic","true","experimental"
"","null","html-keyboard-response","92","153426","0.0-11.0-2.0","hSdHdJPZH0","65d6ce10fbdaf41679cebe84","6617fad957f7c6a12ea16e26","6622cade065f433be3dbf8c3","
    <div id=""grid-container"">
        <!-- Grid items will be dynamically added here -->
    </div>    ","null","","","","","","","","","","","",""
"","null","html-keyboard-response","93","154128","0.0-11.0-0.1","hSdHdJPZH0","65d6ce10fbdaf41679cebe84","6617fad957f7c6a12ea16e26","6622cade065f433be3dbf8c3","fixation cross","null","","","","","","","","","","","",""
"","2234","html-keyboard-response","94","156362","0.0-11.0-1.1","hSdHdJPZH0","65d6ce10fbdaf41679cebe84","6617fad957f7c6a12ea16e26","6622cade065f433be3dbf8c3","image grid"," ","","","","","Phylogenetic_Distractor_notarget","2500","ongrid"," ","9","Phylogenetic","true","experimental"
"","null","html-keyboard-response","95","156515","0.0-11.0-2.1","hSdHdJPZH0","65d6ce10fbdaf41679cebe84","6617fad957f7c6a12ea16e26","6622cade065f433be3dbf8c3","
    <div id=""grid-container"">
        <!-- Grid items will be dynamically added here -->
    </div>    ","null","","","","","","","","","","","",""
"","null","html-keyboard-response","96","157218","0.0-11.0-0.2","hSdHdJPZH0","65d6ce10fbdaf41679cebe84","6617fad957f7c6a12ea16e26","6622cade065f433be3dbf8c3","fixation cross","null","","","","","","","","","","","",""
"","1304","html-keyboard-response","97","158522","0.0-11.0-1.2","hSdHdJPZH0","65d6ce10fbdaf41679cebe84","6617fad957f7c6a12ea16e26","6622cade065f433be3dbf8c3","image grid","q","","","","","Phylogenetic_Distractor_Nonthreat_target","2500","ongrid","p","5","Phylogenetic","false","experimental"
"","null","html-keyboard-response","98","158673","0.0-11.0-2.2","hSdHdJPZH0","65d6ce10fbdaf41679cebe84","6617fad957f7c6a12ea16e26","6622cade065f433be3dbf8c3","
    <div id=""grid-container"">
        <!-- Grid items will be dynamically added here -->
    </div>    ","null","","","","","","","","","","","",""
"","null","html-keyboard-response","99","159376","0.0-11.0-0.3","hSdHdJPZH0","65d6ce10fbdaf41679cebe84","6617fad957f7c6a12ea16e26","6622cade065f433be3dbf8c3","fixation cross","null","","","","","","","","","","","",""
"","1378","html-keyboard-response","100","160755","0.0-11.0-1.3","hSdHdJPZH0","65d6ce10fbdaf41679cebe84","6617fad957f7c6a12ea16e26","6622cade065f433be3dbf8c3","image grid","q","","","","","Phylogenetic_Distractor_Nonthreat_target","2500","ongrid","p","2","Phylogenetic","false","experimental"
"","null","html-keyboard-response","101","160908","0.0-11.0-2.3","hSdHdJPZH0","65d6ce10fbdaf41679cebe84","6617fad957f7c6a12ea16e26","6622cade065f433be3dbf8c3","
    <div id=""grid-container"">
        <!-- Grid items will be dynamically added here -->
    </div>    ","null","","","","","","","","","","","",""
"","null","html-keyboard-response","102","161611","0.0-11.0-0.4","hSdHdJPZH0","65d6ce10fbdaf41679cebe84","6617fad957f7c6a12ea16e26","6622cade065f433be3dbf8c3","fixation cross","null","","","","","","","","","","","",""
"","1015","html-keyboard-response","103","162626","0.0-11.0-1.4","hSdHdJPZH0","65d6ce10fbdaf41679cebe84","6617fad957f7c6a12ea16e26","6622cade065f433be3dbf8c3","image grid","q","","","","","Phylogenetic_Distractor_Threat_target","2500","ongrid","q","2","Phylogenetic","true","experimental"
"","null","html-keyboard-response","104","162779","0.0-11.0-2.4","hSdHdJPZH0","65d6ce10fbdaf41679cebe84","6617fad957f7c6a12ea16e26","6622cade065f433be3dbf8c3","
    <div id=""grid-container"">
        <!-- Grid items will be dynamically added here -->
    </div>    ","null","","","","","","","","","","","",""
"","null","html-keyboard-response","105","163482","0.0-11.0-0.5","hSdHdJPZH0","65d6ce10fbdaf41679cebe84","6617fad957f7c6a12ea16e26","6622cade065f433be3dbf8c3","fixation cross","null","","","","","","","","","","","",""
"","1104","html-keyboard-response","106","164586","0.0-11.0-1.5","hSdHdJPZH0","65d6ce10fbdaf41679cebe84","6617fad957f7c6a12ea16e26","6622cade065f433be3dbf8c3","image grid","q","","","","","Phylogenetic_Distractor_Threat_target","2500","ongrid","q","4","Phylogenetic","true","experimental"
"","null","html-keyboard-response","107","164738","0.0-11.0-2.5","hSdHdJPZH0","65d6ce10fbdaf41679cebe84","6617fad957f7c6a12ea16e26","6622cade065f433be3dbf8c3","
    <div id=""grid-container"">
        <!-- Grid items will be dynamically added here -->
    </div>    ","null","","","","","","","","","","","",""
"","null","html-keyboard-response","108","165440","0.0-11.0-0.6","hSdHdJPZH0","65d6ce10fbdaf41679cebe84","6617fad957f7c6a12ea16e26","6622cade065f433be3dbf8c3","fixation cross","null","","","","","","","","","","","",""
"","2227","html-keyboard-response","109","167667","0.0-11.0-1.6","hSdHdJPZH0","65d6ce10fbdaf41679cebe84","6617fad957f7c6a12ea16e26","6622cade065f433be3dbf8c3","image grid","p","","","","","Phylogenetic_Distractor_Nonthreat_target","2500","ongrid","p","7","Phylogenetic","true","experimental"
"","null","html-keyboard-response","110","167819","0.0-11.0-2.6","hSdHdJPZH0","65d6ce10fbdaf41679cebe84","6617fad957f7c6a12ea16e26","6622cade065f433be3dbf8c3","
    <div id=""grid-container"">
        <!-- Grid items will be dynamically added here -->
    </div>    ","null","","","","","","","","","","","",""
"","null","html-keyboard-response","111","168522","0.0-11.0-0.7","hSdHdJPZH0","65d6ce10fbdaf41679cebe84","6617fad957f7c6a12ea16e26","6622cade065f433be3dbf8c3","fixation cross","null","","","","","","","","","","","",""
"","2360","html-keyboard-response","112","170883","0.0-11.0-1.7","hSdHdJPZH0","65d6ce10fbdaf41679cebe84","6617fad957f7c6a12ea16e26","6622cade065f433be3dbf8c3","image grid","p","","","","","Phylogenetic_Distractor_Nonthreat_target","2500","ongrid","p","9","Phylogenetic","true","experimental"
"","null","html-keyboard-response","113","171035","0.0-11.0-2.7","hSdHdJPZH0","65d6ce10fbdaf41679cebe84","6617fad957f7c6a12ea16e26","6622cade065f433be3dbf8c3","
    <div id=""grid-container"">
        <!-- Grid items will be dynamically added here -->
    </div>    ","null","","","","","","","","","","","",""
"","null","html-keyboard-response","114","171738","0.0-11.0-0.8","hSdHdJPZH0","65d6ce10fbdaf41679cebe84","6617fad957f7c6a12ea16e26","6622cade065f433be3dbf8c3","fixation cross","null","","","","","","","","","","","",""
"","1808","html-keyboard-response","115","173546","0.0-11.0-1.8","hSdHdJPZH0","65d6ce10fbdaf41679cebe84","6617fad957f7c6a12ea16e26","6622cade065f433be3dbf8c3","image grid","p","","","","","Phylogenetic_Distractor_Nonthreat_target","2500","ongrid","p","9","Phylogenetic","true","experimental"
"","null","html-keyboard-response","116","173698","0.0-11.0-2.8","hSdHdJPZH0","65d6ce10fbdaf41679cebe84","6617fad957f7c6a12ea16e26","6622cade065f433be3dbf8c3","
    <div id=""grid-container"">
        <!-- Grid items will be dynamically added here -->
    </div>    ","null","","","","","","","","","","","",""
"","null","html-keyboard-response","117","174400","0.0-11.0-0.9","hSdHdJPZH0","65d6ce10fbdaf41679cebe84","6617fad957f7c6a12ea16e26","6622cade065f433be3dbf8c3","fixation cross","null","","","","","","","","","","","",""
"","1450","html-keyboard-response","118","175850","0.0-11.0-1.9","hSdHdJPZH0","65d6ce10fbdaf41679cebe84","6617fad957f7c6a12ea16e26","6622cade065f433be3dbf8c3","image grid","q","","","","","Phylogenetic_Distractor_Threat_target","2500","ongrid","q","7","Phylogenetic","true","experimental"
"","null","html-keyboard-response","119","176002","0.0-11.0-2.9","hSdHdJPZH0","65d6ce10fbdaf41679cebe84","6617fad957f7c6a12ea16e26","6622cade065f433be3dbf8c3","
    <div id=""grid-container"">
        <!-- Grid items will be dynamically added here -->
    </div>    ","null","","","","","","","","","","","",""
"","null","html-keyboard-response","120","176706","0.0-11.0-0.10","hSdHdJPZH0","65d6ce10fbdaf41679cebe84","6617fad957f7c6a12ea16e26","6622cade065f433be3dbf8c3","fixation cross","null","","","","","","","","","","","",""
"","2024","html-keyboard-response","121","178730","0.0-11.0-1.10","hSdHdJPZH0","65d6ce10fbdaf41679cebe84","6617fad957f7c6a12ea16e26","6622cade065f433be3dbf8c3","image grid"," ","","","","","Phylogenetic_Distractor_notarget","2500","ongrid"," ","5","Phylogenetic","true","experimental"
"","null","html-keyboard-response","122","178882","0.0-11.0-2.10","hSdHdJPZH0","65d6ce10fbdaf41679cebe84","6617fad957f7c6a12ea16e26","6622cade065f433be3dbf8c3","
    <div id=""grid-container"">
        <!-- Grid items will be dynamically added here -->
    </div>    ","null","","","","","","","","","","","",""
"","null","html-keyboard-response","123","179584","0.0-11.0-0.11","hSdHdJPZH0","65d6ce10fbdaf41679cebe84","6617fad957f7c6a12ea16e26","6622cade065f433be3dbf8c3","fixation cross","null","","","","","","","","","","","",""
"","1210","html-keyboard-response","124","180794","0.0-11.0-1.11","hSdHdJPZH0","65d6ce10fbdaf41679cebe84","6617fad957f7c6a12ea16e26","6622cade065f433be3dbf8c3","image grid","q","","","","","Phylogenetic_Distractor_Threat_target","2500","ongrid","q","6","Phylogenetic","true","experimental"
"","null","html-keyboard-response","125","180946","0.0-11.0-2.11","hSdHdJPZH0","65d6ce10fbdaf41679cebe84","6617fad957f7c6a12ea16e26","6622cade065f433be3dbf8c3","
    <div id=""grid-container"">
        <!-- Grid items will be dynamically added here -->
    </div>    ","null","","","","","","","","","","","",""
"","null","html-keyboard-response","126","181649","0.0-11.0-0.12","hSdHdJPZH0","65d6ce10fbdaf41679cebe84","6617fad957f7c6a12ea16e26","6622cade065f433be3dbf8c3","fixation cross","null","","","","","","","","","","","",""
"","769","html-keyboard-response","127","182419","0.0-11.0-1.12","hSdHdJPZH0","65d6ce10fbdaf41679cebe84","6617fad957f7c6a12ea16e26","6622cade065f433be3dbf8c3","image grid","q","","","","","Phylogenetic_Distractor_Threat_target","2500","ongrid","q","1","Phylogenetic","true","experimental"
"","null","html-keyboard-response","128","182571","0.0-11.0-2.12","hSdHdJPZH0","65d6ce10fbdaf41679cebe84","6617fad957f7c6a12ea16e26","6622cade065f433be3dbf8c3","
    <div id=""grid-container"">
        <!-- Grid items will be dynamically added here -->
    </div>    ","null","","","","","","","","","","","",""
"","null","html-keyboard-response","129","183274","0.0-11.0-0.13","hSdHdJPZH0","65d6ce10fbdaf41679cebe84","6617fad957f7c6a12ea16e26","6622cade065f433be3dbf8c3","fixation cross","null","","","","","","","","","","","",""
"","1200","html-keyboard-response","130","184474","0.0-11.0-1.13","hSdHdJPZH0","65d6ce10fbdaf41679cebe84","6617fad957f7c6a12ea16e26","6622cade065f433be3dbf8c3","image grid","p","","","","","Phylogenetic_Distractor_Nonthreat_target","2500","ongrid","p","2","Phylogenetic","true","experimental"
"","null","html-keyboard-response","131","184626","0.0-11.0-2.13","hSdHdJPZH0","65d6ce10fbdaf41679cebe84","6617fad957f7c6a12ea16e26","6622cade065f433be3dbf8c3","
    <div id=""grid-container"">
        <!-- Grid items will be dynamically added here -->
    </div>    ","null","","","","","","","","","","","",""
"","null","html-keyboard-response","132","185328","0.0-11.0-0.14","hSdHdJPZH0","65d6ce10fbdaf41679cebe84","6617fad957f7c6a12ea16e26","6622cade065f433be3dbf8c3","fixation cross","null","","","","","","","","","","","",""
"","null","html-keyboard-response","133","187831","0.0-11.0-1.14","hSdHdJPZH0","65d6ce10fbdaf41679cebe84","6617fad957f7c6a12ea16e26","6622cade065f433be3dbf8c3","
        <div id=""grid-container"">
        <!-- Grid items will be dynamically added here -->
    </div>    ","null","","","","","","","","","","","",""
"","2559","html-keyboard-response","134","187890","0.0-11.0-2.14","hSdHdJPZH0","65d6ce10fbdaf41679cebe84","6617fad957f7c6a12ea16e26","6622cade065f433be3dbf8c3","mask grid","p","","","","","Phylogenetic_Distractor_Nonthreat_target","2500","onmask","p","6","Phylogenetic","true","experimental"
"","null","html-keyboard-response","135","188594","0.0-11.0-0.15","hSdHdJPZH0","65d6ce10fbdaf41679cebe84","6617fad957f7c6a12ea16e26","6622cade065f433be3dbf8c3","fixation cross","null","","","","","","","","","","","",""
"","null","html-keyboard-response","136","191096","0.0-11.0-1.15","hSdHdJPZH0","65d6ce10fbdaf41679cebe84","6617fad957f7c6a12ea16e26","6622cade065f433be3dbf8c3","
        <div id=""grid-container"">
        <!-- Grid items will be dynamically added here -->
    </div>    ","null","","","","","","","","","","","",""
"","2861","html-keyboard-response","137","191457","0.0-11.0-2.15","hSdHdJPZH0","65d6ce10fbdaf41679cebe84","6617fad957f7c6a12ea16e26","6622cade065f433be3dbf8c3","mask grid"," ","","","","","Phylogenetic_Distractor_notarget","2500","onmask"," ","2","Phylogenetic","true","experimental"
"","null","html-keyboard-response","138","192161","0.0-11.0-0.16","hSdHdJPZH0","65d6ce10fbdaf41679cebe84","6617fad957f7c6a12ea16e26","6622cade065f433be3dbf8c3","fixation cross","null","","","","","","","","","","","",""
"","2025","html-keyboard-response","139","194186","0.0-11.0-1.16","hSdHdJPZH0","65d6ce10fbdaf41679cebe84","6617fad957f7c6a12ea16e26","6622cade065f433be3dbf8c3","image grid","q","","","","","Phylogenetic_Distractor_Threat_target","2500","ongrid","q","8","Phylogenetic","true","experimental"
"","null","html-keyboard-response","140","194339","0.0-11.0-2.16","hSdHdJPZH0","65d6ce10fbdaf41679cebe84","6617fad957f7c6a12ea16e26","6622cade065f433be3dbf8c3","
    <div id=""grid-container"">
        <!-- Grid items will be dynamically added here -->
    </div>    ","null","","","","","","","","","","","",""
"","null","html-keyboard-response","141","195041","0.0-11.0-0.17","hSdHdJPZH0","65d6ce10fbdaf41679cebe84","6617fad957f7c6a12ea16e26","6622cade065f433be3dbf8c3","fixation cross","null","","","","","","","","","","","",""
"","1040","html-keyboard-response","142","196082","0.0-11.0-1.17","hSdHdJPZH0","65d6ce10fbdaf41679cebe84","6617fad957f7c6a12ea16e26","6622cade065f433be3dbf8c3","image grid","q","","","","","Phylogenetic_Distractor_Threat_target","2500","ongrid","q","4","Phylogenetic","true","experimental"
"","null","html-keyboard-response","143","196233","0.0-11.0-2.17","hSdHdJPZH0","65d6ce10fbdaf41679cebe84","6617fad957f7c6a12ea16e26","6622cade065f433be3dbf8c3","
    <div id=""grid-container"">
        <!-- Grid items will be dynamically added here -->
    </div>    ","null","","","","","","","","","","","",""
"","null","html-keyboard-response","144","196936","0.0-11.0-0.18","hSdHdJPZH0","65d6ce10fbdaf41679cebe84","6617fad957f7c6a12ea16e26","6622cade065f433be3dbf8c3","fixation cross","null","","","","","","","","","","","",""
"","1394","html-keyboard-response","145","198330","0.0-11.0-1.18","hSdHdJPZH0","65d6ce10fbdaf41679cebe84","6617fad957f7c6a12ea16e26","6622cade065f433be3dbf8c3","image grid","q","","","","","Phylogenetic_Distractor_Threat_target","2500","ongrid","q","9","Phylogenetic","true","experimental"
"","null","html-keyboard-response","146","198482","0.0-11.0-2.18","hSdHdJPZH0","65d6ce10fbdaf41679cebe84","6617fad957f7c6a12ea16e26","6622cade065f433be3dbf8c3","
    <div id=""grid-container"">
        <!-- Grid items will be dynamically added here -->
    </div>    ","null","","","","","","","","","","","",""
"","null","html-keyboard-response","147","199185","0.0-11.0-0.19","hSdHdJPZH0","65d6ce10fbdaf41679cebe84","6617fad957f7c6a12ea16e26","6622cade065f433be3dbf8c3","fixation cross","null","","","","","","","","","","","",""
"","1209","html-keyboard-response","148","200394","0.0-11.0-1.19","hSdHdJPZH0","65d6ce10fbdaf41679cebe84","6617fad957f7c6a12ea16e26","6622cade065f433be3dbf8c3","image grid","p","","","","","Phylogenetic_Distractor_Nonthreat_target","2500","ongrid","p","5","Phylogenetic","true","experimental"
"","null","html-keyboard-response","149","200546","0.0-11.0-2.19","hSdHdJPZH0","65d6ce10fbdaf41679cebe84","6617fad957f7c6a12ea16e26","6622cade065f433be3dbf8c3","
    <div id=""grid-container"">
        <!-- Grid items will be dynamically added here -->
    </div>    ","null","","","","","","","","","","","",""
"","null","html-keyboard-response","150","201249","0.0-11.0-0.20","hSdHdJPZH0","65d6ce10fbdaf41679cebe84","6617fad957f7c6a12ea16e26","6622cade065f433be3dbf8c3","fixation cross","null","","","","","","","","","","","",""
"","1304","html-keyboard-response","151","202554","0.0-11.0-1.20","hSdHdJPZH0","65d6ce10fbdaf41679cebe84","6617fad957f7c6a12ea16e26","6622cade065f433be3dbf8c3","image grid","q","","","","","Phylogenetic_Distractor_Nonthreat_target","2500","ongrid","p","4","Phylogenetic","false","experimental"
"","null","html-keyboard-response","152","202705","0.0-11.0-2.20","hSdHdJPZH0","65d6ce10fbdaf41679cebe84","6617fad957f7c6a12ea16e26","6622cade065f433be3dbf8c3","
    <div id=""grid-container"">
        <!-- Grid items will be dynamically added here -->
    </div>    ","null","","","","","","","","","","","",""
"","null","html-keyboard-response","153","203408","0.0-11.0-0.21","hSdHdJPZH0","65d6ce10fbdaf41679cebe84","6617fad957f7c6a12ea16e26","6622cade065f433be3dbf8c3","fixation cross","null","","","","","","","","","","","",""
"","713","html-keyboard-response","154","204121","0.0-11.0-1.21","hSdHdJPZH0","65d6ce10fbdaf41679cebe84","6617fad957f7c6a12ea16e26","6622cade065f433be3dbf8c3","image grid","q","","","","","Phylogenetic_Distractor_Threat_target","2500","ongrid","q","1","Phylogenetic","true","experimental"
"","null","html-keyboard-response","155","204273","0.0-11.0-2.21","hSdHdJPZH0","65d6ce10fbdaf41679cebe84","6617fad957f7c6a12ea16e26","6622cade065f433be3dbf8c3","
    <div id=""grid-container"">
        <!-- Grid items will be dynamically added here -->
    </div>    ","null","","","","","","","","","","","",""
"","null","html-keyboard-response","156","204976","0.0-11.0-0.22","hSdHdJPZH0","65d6ce10fbdaf41679cebe84","6617fad957f7c6a12ea16e26","6622cade065f433be3dbf8c3","fixation cross","null","","","","","","","","","","","",""
"","1250","html-keyboard-response","157","206226","0.0-11.0-1.22","hSdHdJPZH0","65d6ce10fbdaf41679cebe84","6617fad957f7c6a12ea16e26","6622cade065f433be3dbf8c3","image grid","q","","","","","Phylogenetic_Distractor_Threat_target","2500","ongrid","q","9","Phylogenetic","true","experimental"
"","null","html-keyboard-response","158","206378","0.0-11.0-2.22","hSdHdJPZH0","65d6ce10fbdaf41679cebe84","6617fad957f7c6a12ea16e26","6622cade065f433be3dbf8c3","
    <div id=""grid-container"">
        <!-- Grid items will be dynamically added here -->
    </div>    ","null","","","","","","","","","","","",""
"","null","html-keyboard-response","159","207081","0.0-11.0-0.23","hSdHdJPZH0","65d6ce10fbdaf41679cebe84","6617fad957f7c6a12ea16e26","6622cade065f433be3dbf8c3","fixation cross","null","","","","","","","","","","","",""
"","1569","html-keyboard-response","160","208650","0.0-11.0-1.23","hSdHdJPZH0","65d6ce10fbdaf41679cebe84","6617fad957f7c6a12ea16e26","6622cade065f433be3dbf8c3","image grid","p","","","","","Phylogenetic_Distractor_Nonthreat_target","2500","ongrid","p","6","Phylogenetic","true","experimental"
"","null","html-keyboard-response","161","208801","0.0-11.0-2.23","hSdHdJPZH0","65d6ce10fbdaf41679cebe84","6617fad957f7c6a12ea16e26","6622cade065f433be3dbf8c3","
    <div id=""grid-container"">
        <!-- Grid items will be dynamically added here -->
    </div>    ","null","","","","","","","","","","","",""
"","null","html-keyboard-response","162","209505","0.0-11.0-0.24","hSdHdJPZH0","65d6ce10fbdaf41679cebe84","6617fad957f7c6a12ea16e26","6622cade065f433be3dbf8c3","fixation cross","null","","","","","","","","","","","",""
"","816","html-keyboard-response","163","210322","0.0-11.0-1.24","hSdHdJPZH0","65d6ce10fbdaf41679cebe84","6617fad957f7c6a12ea16e26","6622cade065f433be3dbf8c3","image grid","p","","","","","Phylogenetic_Distractor_Nonthreat_target","2500","ongrid","p","5","Phylogenetic","true","experimental"
"","null","html-keyboard-response","164","210473","0.0-11.0-2.24","hSdHdJPZH0","65d6ce10fbdaf41679cebe84","6617fad957f7c6a12ea16e26","6622cade065f433be3dbf8c3","
    <div id=""grid-container"">
        <!-- Grid items will be dynamically added here -->
    </div>    ","null","","","","","","","","","","","",""
"","null","html-keyboard-response","165","211175","0.0-11.0-0.25","hSdHdJPZH0","65d6ce10fbdaf41679cebe84","6617fad957f7c6a12ea16e26","6622cade065f433be3dbf8c3","fixation cross","null","","","","","","","","","","","",""
"","1122","html-keyboard-response","166","212298","0.0-11.0-1.25","hSdHdJPZH0","65d6ce10fbdaf41679cebe84","6617fad957f7c6a12ea16e26","6622cade065f433be3dbf8c3","image grid","q","","","","","Phylogenetic_Distractor_Threat_target","2500","ongrid","q","1","Phylogenetic","true","experimental"
"","null","html-keyboard-response","167","212449","0.0-11.0-2.25","hSdHdJPZH0","65d6ce10fbdaf41679cebe84","6617fad957f7c6a12ea16e26","6622cade065f433be3dbf8c3","
    <div id=""grid-container"">
        <!-- Grid items will be dynamically added here -->
    </div>    ","null","","","","","","","","","","","",""
"","null","html-keyboard-response","168","213152","0.0-11.0-0.26","hSdHdJPZH0","65d6ce10fbdaf41679cebe84","6617fad957f7c6a12ea16e26","6622cade065f433be3dbf8c3","fixation cross","null","","","","","","","","","","","",""
"","930","html-keyboard-response","169","214082","0.0-11.0-1.26","hSdHdJPZH0","65d6ce10fbdaf41679cebe84","6617fad957f7c6a12ea16e26","6622cade065f433be3dbf8c3","image grid","q","","","","","Phylogenetic_Distractor_Nonthreat_target","2500","ongrid","p","2","Phylogenetic","false","experimental"
"","null","html-keyboard-response","170","214234","0.0-11.0-2.26","hSdHdJPZH0","65d6ce10fbdaf41679cebe84","6617fad957f7c6a12ea16e26","6622cade065f433be3dbf8c3","
    <div id=""grid-container"">
        <!-- Grid items will be dynamically added here -->
    </div>    ","null","","","","","","","","","","","",""
"","null","html-keyboard-response","171","214937","0.0-11.0-0.27","hSdHdJPZH0","65d6ce10fbdaf41679cebe84","6617fad957f7c6a12ea16e26","6622cade065f433be3dbf8c3","fixation cross","null","","","","","","","","","","","",""
"","1969","html-keyboard-response","172","216906","0.0-11.0-1.27","hSdHdJPZH0","65d6ce10fbdaf41679cebe84","6617fad957f7c6a12ea16e26","6622cade065f433be3dbf8c3","image grid"," ","","","","","Phylogenetic_Distractor_notarget","2500","ongrid"," ","2","Phylogenetic","true","experimental"
"","null","html-keyboard-response","173","217057","0.0-11.0-2.27","hSdHdJPZH0","65d6ce10fbdaf41679cebe84","6617fad957f7c6a12ea16e26","6622cade065f433be3dbf8c3","
    <div id=""grid-container"">
        <!-- Grid items will be dynamically added here -->
    </div>    ","null","","","","","","","","","","","",""
"","null","html-keyboard-response","174","217760","0.0-11.0-0.28","hSdHdJPZH0","65d6ce10fbdaf41679cebe84","6617fad957f7c6a12ea16e26","6622cade065f433be3dbf8c3","fixation cross","null","","","","","","","","","","","",""
"","817","html-keyboard-response","175","218578","0.0-11.0-1.28","hSdHdJPZH0","65d6ce10fbdaf41679cebe84","6617fad957f7c6a12ea16e26","6622cade065f433be3dbf8c3","image grid","q","","","","","Phylogenetic_Distractor_Threat_target","2500","ongrid","q","1","Phylogenetic","true","experimental"
"","null","html-keyboard-response","176","218730","0.0-11.0-2.28","hSdHdJPZH0","65d6ce10fbdaf41679cebe84","6617fad957f7c6a12ea16e26","6622cade065f433be3dbf8c3","
    <div id=""grid-container"">
        <!-- Grid items will be dynamically added here -->
    </div>    ","null","","","","","","","","","","","",""
"","null","html-keyboard-response","177","219432","0.0-11.0-0.29","hSdHdJPZH0","65d6ce10fbdaf41679cebe84","6617fad957f7c6a12ea16e26","6622cade065f433be3dbf8c3","fixation cross","null","","","","","","","","","","","",""
"","1137","html-keyboard-response","178","220570","0.0-11.0-1.29","hSdHdJPZH0","65d6ce10fbdaf41679cebe84","6617fad957f7c6a12ea16e26","6622cade065f433be3dbf8c3","image grid","q","","","","","Phylogenetic_Distractor_Threat_target","2500","ongrid","q","8","Phylogenetic","true","experimental"
"","null","html-keyboard-response","179","220722","0.0-11.0-2.29","hSdHdJPZH0","65d6ce10fbdaf41679cebe84","6617fad957f7c6a12ea16e26","6622cade065f433be3dbf8c3","
    <div id=""grid-container"">
        <!-- Grid items will be dynamically added here -->
    </div>    ","null","","","","","","","","","","","",""
"","null","html-keyboard-response","180","221425","0.0-11.0-0.30","hSdHdJPZH0","65d6ce10fbdaf41679cebe84","6617fad957f7c6a12ea16e26","6622cade065f433be3dbf8c3","fixation cross","null","","","","","","","","","","","",""
"","1304","html-keyboard-response","181","222729","0.0-11.0-1.30","hSdHdJPZH0","65d6ce10fbdaf41679cebe84","6617fad957f7c6a12ea16e26","6622cade065f433be3dbf8c3","image grid","p","","","","","Phylogenetic_Distractor_Nonthreat_target","2500","ongrid","p","3","Phylogenetic","true","experimental"
"","null","html-keyboard-response","182","222881","0.0-11.0-2.30","hSdHdJPZH0","65d6ce10fbdaf41679cebe84","6617fad957f7c6a12ea16e26","6622cade065f433be3dbf8c3","
    <div id=""grid-container"">
        <!-- Grid items will be dynamically added here -->
    </div>    ","null","","","","","","","","","","","",""
"","null","html-keyboard-response","183","223583","0.0-11.0-0.31","hSdHdJPZH0","65d6ce10fbdaf41679cebe84","6617fad957f7c6a12ea16e26","6622cade065f433be3dbf8c3","fixation cross","null","","","","","","","","","","","",""
"","1938","html-keyboard-response","184","225521","0.0-11.0-1.31","hSdHdJPZH0","65d6ce10fbdaf41679cebe84","6617fad957f7c6a12ea16e26","6622cade065f433be3dbf8c3","image grid","p","","","","","Phylogenetic_Distractor_Nonthreat_target","2500","ongrid","p","6","Phylogenetic","true","experimental"
"","null","html-keyboard-response","185","225673","0.0-11.0-2.31","hSdHdJPZH0","65d6ce10fbdaf41679cebe84","6617fad957f7c6a12ea16e26","6622cade065f433be3dbf8c3","
    <div id=""grid-container"">
        <!-- Grid items will be dynamically added here -->
    </div>    ","null","","","","","","","","","","","",""
"","null","html-keyboard-response","186","226376","0.0-11.0-0.32","hSdHdJPZH0","65d6ce10fbdaf41679cebe84","6617fad957f7c6a12ea16e26","6622cade065f433be3dbf8c3","fixation cross","null","","","","","","","","","","","",""
"","946","html-keyboard-response","187","227322","0.0-11.0-1.32","hSdHdJPZH0","65d6ce10fbdaf41679cebe84","6617fad957f7c6a12ea16e26","6622cade065f433be3dbf8c3","image grid","q","","","","","Phylogenetic_Distractor_Threat_target","2500","ongrid","q","6","Phylogenetic","true","experimental"
"","null","html-keyboard-response","188","227473","0.0-11.0-2.32","hSdHdJPZH0","65d6ce10fbdaf41679cebe84","6617fad957f7c6a12ea16e26","6622cade065f433be3dbf8c3","
    <div id=""grid-container"">
        <!-- Grid items will be dynamically added here -->
    </div>    ","null","","","","","","","","","","","",""
"","null","html-keyboard-response","189","228175","0.0-11.0-0.33","hSdHdJPZH0","65d6ce10fbdaf41679cebe84","6617fad957f7c6a12ea16e26","6622cade065f433be3dbf8c3","fixation cross","null","","","","","","","","","","","",""
"","2091","html-keyboard-response","190","230266","0.0-11.0-1.33","hSdHdJPZH0","65d6ce10fbdaf41679cebe84","6617fad957f7c6a12ea16e26","6622cade065f433be3dbf8c3","image grid","p","","","","","Phylogenetic_Distractor_Nonthreat_target","2500","ongrid","p","9","Phylogenetic","true","experimental"
"","null","html-keyboard-response","191","230418","0.0-11.0-2.33","hSdHdJPZH0","65d6ce10fbdaf41679cebe84","6617fad957f7c6a12ea16e26","6622cade065f433be3dbf8c3","
    <div id=""grid-container"">
        <!-- Grid items will be dynamically added here -->
    </div>    ","null","","","","","","","","","","","",""
"","null","html-keyboard-response","192","231121","0.0-11.0-0.34","hSdHdJPZH0","65d6ce10fbdaf41679cebe84","6617fad957f7c6a12ea16e26","6622cade065f433be3dbf8c3","fixation cross","null","","","","","","","","","","","",""
"","1624","html-keyboard-response","193","232746","0.0-11.0-1.34","hSdHdJPZH0","65d6ce10fbdaf41679cebe84","6617fad957f7c6a12ea16e26","6622cade065f433be3dbf8c3","image grid","p","","","","","Phylogenetic_Distractor_Nonthreat_target","2500","ongrid","p","9","Phylogenetic","true","experimental"
"","null","html-keyboard-response","194","232897","0.0-11.0-2.34","hSdHdJPZH0","65d6ce10fbdaf41679cebe84","6617fad957f7c6a12ea16e26","6622cade065f433be3dbf8c3","
    <div id=""grid-container"">
        <!-- Grid items will be dynamically added here -->
    </div>    ","null","","","","","","","","","","","",""
"","null","html-keyboard-response","195","233600","0.0-11.0-0.35","hSdHdJPZH0","65d6ce10fbdaf41679cebe84","6617fad957f7c6a12ea16e26","6622cade065f433be3dbf8c3","fixation cross","null","","","","","","","","","","","",""
"","1513","html-keyboard-response","196","235113","0.0-11.0-1.35","hSdHdJPZH0","65d6ce10fbdaf41679cebe84","6617fad957f7c6a12ea16e26","6622cade065f433be3dbf8c3","image grid","p","","","","","Phylogenetic_Distractor_Nonthreat_target","2500","ongrid","p","4","Phylogenetic","true","experimental"
"","null","html-keyboard-response","197","235265","0.0-11.0-2.35","hSdHdJPZH0","65d6ce10fbdaf41679cebe84","6617fad957f7c6a12ea16e26","6622cade065f433be3dbf8c3","
    <div id=""grid-container"">
        <!-- Grid items will be dynamically added here -->
    </div>    ","null","","","","","","","","","","","",""
"","null","html-keyboard-response","198","235968","0.0-11.0-0.36","hSdHdJPZH0","65d6ce10fbdaf41679cebe84","6617fad957f7c6a12ea16e26","6622cade065f433be3dbf8c3","fixation cross","null","","","","","","","","","","","",""
"","658","html-keyboard-response","199","236626","0.0-11.0-1.36","hSdHdJPZH0","65d6ce10fbdaf41679cebe84","6617fad957f7c6a12ea16e26","6622cade065f433be3dbf8c3","image grid","q","","","","","Phylogenetic_Distractor_Threat_target","2500","ongrid","q","5","Phylogenetic","true","experimental"
"","null","html-keyboard-response","200","236778","0.0-11.0-2.36","hSdHdJPZH0","65d6ce10fbdaf41679cebe84","6617fad957f7c6a12ea16e26","6622cade065f433be3dbf8c3","
    <div id=""grid-container"">
        <!-- Grid items will be dynamically added here -->
    </div>    ","null","","","","","","","","","","","",""
"","null","html-keyboard-response","201","237481","0.0-11.0-0.37","hSdHdJPZH0","65d6ce10fbdaf41679cebe84","6617fad957f7c6a12ea16e26","6622cade065f433be3dbf8c3","fixation cross","null","","","","","","","","","","","",""
"","688","html-keyboard-response","202","238170","0.0-11.0-1.37","hSdHdJPZH0","65d6ce10fbdaf41679cebe84","6617fad957f7c6a12ea16e26","6622cade065f433be3dbf8c3","image grid","q","","","","","Phylogenetic_Distractor_Threat_target","2500","ongrid","q","4","Phylogenetic","true","experimental"
"","null","html-keyboard-response","203","238322","0.0-11.0-2.37","hSdHdJPZH0","65d6ce10fbdaf41679cebe84","6617fad957f7c6a12ea16e26","6622cade065f433be3dbf8c3","
    <div id=""grid-container"">
        <!-- Grid items will be dynamically added here -->
    </div>    ","null","","","","","","","","","","","",""
"","null","html-keyboard-response","204","239025","0.0-11.0-0.38","hSdHdJPZH0","65d6ce10fbdaf41679cebe84","6617fad957f7c6a12ea16e26","6622cade065f433be3dbf8c3","fixation cross","null","","","","","","","","","","","",""
"","1392","html-keyboard-response","205","240418","0.0-11.0-1.38","hSdHdJPZH0","65d6ce10fbdaf41679cebe84","6617fad957f7c6a12ea16e26","6622cade065f433be3dbf8c3","image grid","p","","","","","Phylogenetic_Distractor_Nonthreat_target","2500","ongrid","p","3","Phylogenetic","true","experimental"
"","null","html-keyboard-response","206","240570","0.0-11.0-2.38","hSdHdJPZH0","65d6ce10fbdaf41679cebe84","6617fad957f7c6a12ea16e26","6622cade065f433be3dbf8c3","
    <div id=""grid-container"">
        <!-- Grid items will be dynamically added here -->
    </div>    ","null","","","","","","","","","","","",""
"","null","html-keyboard-response","207","241273","0.0-11.0-0.39","hSdHdJPZH0","65d6ce10fbdaf41679cebe84","6617fad957f7c6a12ea16e26","6622cade065f433be3dbf8c3","fixation cross","null","","","","","","","","","","","",""
"","967","html-keyboard-response","208","242241","0.0-11.0-1.39","hSdHdJPZH0","65d6ce10fbdaf41679cebe84","6617fad957f7c6a12ea16e26","6622cade065f433be3dbf8c3","image grid","q","","","","","Phylogenetic_Distractor_Threat_target","2500","ongrid","q","5","Phylogenetic","true","experimental"
"","null","html-keyboard-response","209","242393","0.0-11.0-2.39","hSdHdJPZH0","65d6ce10fbdaf41679cebe84","6617fad957f7c6a12ea16e26","6622cade065f433be3dbf8c3","
    <div id=""grid-container"">
        <!-- Grid items will be dynamically added here -->
    </div>    ","null","","","","","","","","","","","",""
"","2234","html-keyboard-response","210","244858","0.0-12.0","hSdHdJPZH0","65d6ce10fbdaf41679cebe84","6617fad957f7c6a12ea16e26","6622cade065f433be3dbf8c3","break screen"," ","","","","","","","","","","","",""
"","null","html-keyboard-response","211","247360","0.0-13.0-0.0","hSdHdJPZH0","65d6ce10fbdaf41679cebe84","6617fad957f7c6a12ea16e26","6622cade065f433be3dbf8c3","fixation cross","null","","","","","","","","","","","",""
"","2033","html-keyboard-response","212","249394","0.0-13.0-1.0","hSdHdJPZH0","65d6ce10fbdaf41679cebe84","6617fad957f7c6a12ea16e26","6622cade065f433be3dbf8c3","image grid","p","","","","","Ontogenetic_Distractor_Nonthreat_target","2500","ongrid","p","9","Ontogenetic","true","experimental"
"","null","html-keyboard-response","213","249546","0.0-13.0-2.0","hSdHdJPZH0","65d6ce10fbdaf41679cebe84","6617fad957f7c6a12ea16e26","6622cade065f433be3dbf8c3","
    <div id=""grid-container"">
        <!-- Grid items will be dynamically added here -->
    </div>    ","null","","","","","","","","","","","",""
"","null","html-keyboard-response","214","250248","0.0-13.0-0.1","hSdHdJPZH0","65d6ce10fbdaf41679cebe84","6617fad957f7c6a12ea16e26","6622cade065f433be3dbf8c3","fixation cross","null","","","","","","","","","","","",""
"","1737","html-keyboard-response","215","251985","0.0-13.0-1.1","hSdHdJPZH0","65d6ce10fbdaf41679cebe84","6617fad957f7c6a12ea16e26","6622cade065f433be3dbf8c3","image grid","p","","","","","Ontogenetic_Distractor_Nonthreat_target","2500","ongrid","p","5","Ontogenetic","true","experimental"
"","null","html-keyboard-response","216","252136","0.0-13.0-2.1","hSdHdJPZH0","65d6ce10fbdaf41679cebe84","6617fad957f7c6a12ea16e26","6622cade065f433be3dbf8c3","
    <div id=""grid-container"">
        <!-- Grid items will be dynamically added here -->
    </div>    ","null","","","","","","","","","","","",""
"","null","html-keyboard-response","217","252839","0.0-13.0-0.2","hSdHdJPZH0","65d6ce10fbdaf41679cebe84","6617fad957f7c6a12ea16e26","6622cade065f433be3dbf8c3","fixation cross","null","","","","","","","","","","","",""
"","1314","html-keyboard-response","218","254153","0.0-13.0-1.2","hSdHdJPZH0","65d6ce10fbdaf41679cebe84","6617fad957f7c6a12ea16e26","6622cade065f433be3dbf8c3","image grid","p","","","","","Ontogenetic_Distractor_Nonthreat_target","2500","ongrid","p","7","Ontogenetic","true","experimental"
"","null","html-keyboard-response","219","254305","0.0-13.0-2.2","hSdHdJPZH0","65d6ce10fbdaf41679cebe84","6617fad957f7c6a12ea16e26","6622cade065f433be3dbf8c3","
    <div id=""grid-container"">
        <!-- Grid items will be dynamically added here -->
    </div>    ","null","","","","","","","","","","","",""
"","null","html-keyboard-response","220","255008","0.0-13.0-0.3","hSdHdJPZH0","65d6ce10fbdaf41679cebe84","6617fad957f7c6a12ea16e26","6622cade065f433be3dbf8c3","fixation cross","null","","","","","","","","","","","",""
"","1393","html-keyboard-response","221","256401","0.0-13.0-1.3","hSdHdJPZH0","65d6ce10fbdaf41679cebe84","6617fad957f7c6a12ea16e26","6622cade065f433be3dbf8c3","image grid","q","","","","","Ontogenetic_Distractor_Threat_target","2500","ongrid","q","7","Ontogenetic","true","experimental"
"","null","html-keyboard-response","222","256553","0.0-13.0-2.3","hSdHdJPZH0","65d6ce10fbdaf41679cebe84","6617fad957f7c6a12ea16e26","6622cade065f433be3dbf8c3","
    <div id=""grid-container"">
        <!-- Grid items will be dynamically added here -->
    </div>    ","null","","","","","","","","","","","",""
"","null","html-keyboard-response","223","257254","0.0-13.0-0.4","hSdHdJPZH0","65d6ce10fbdaf41679cebe84","6617fad957f7c6a12ea16e26","6622cade065f433be3dbf8c3","fixation cross","null","","","","","","","","","","","",""
"","1323","html-keyboard-response","224","258577","0.0-13.0-1.4","hSdHdJPZH0","65d6ce10fbdaf41679cebe84","6617fad957f7c6a12ea16e26","6622cade065f433be3dbf8c3","image grid","p","","","","","Ontogenetic_Distractor_Nonthreat_target","2500","ongrid","p","2","Ontogenetic","true","experimental"
"","null","html-keyboard-response","225","258730","0.0-13.0-2.4","hSdHdJPZH0","65d6ce10fbdaf41679cebe84","6617fad957f7c6a12ea16e26","6622cade065f433be3dbf8c3","
    <div id=""grid-container"">
        <!-- Grid items will be dynamically added here -->
    </div>    ","null","","","","","","","","","","","",""
"","null","html-keyboard-response","226","259432","0.0-13.0-0.5","hSdHdJPZH0","65d6ce10fbdaf41679cebe84","6617fad957f7c6a12ea16e26","6622cade065f433be3dbf8c3","fixation cross","null","","","","","","","","","","","",""
"","1258","html-keyboard-response","227","260690","0.0-13.0-1.5","hSdHdJPZH0","65d6ce10fbdaf41679cebe84","6617fad957f7c6a12ea16e26","6622cade065f433be3dbf8c3","image grid","q","","","","","Ontogenetic_Distractor_Threat_target","2500","ongrid","q","7","Ontogenetic","true","experimental"
"","null","html-keyboard-response","228","260842","0.0-13.0-2.5","hSdHdJPZH0","65d6ce10fbdaf41679cebe84","6617fad957f7c6a12ea16e26","6622cade065f433be3dbf8c3","
    <div id=""grid-container"">
        <!-- Grid items will be dynamically added here -->
    </div>    ","null","","","","","","","","","","","",""
"","null","html-keyboard-response","229","261545","0.0-13.0-0.6","hSdHdJPZH0","65d6ce10fbdaf41679cebe84","6617fad957f7c6a12ea16e26","6622cade065f433be3dbf8c3","fixation cross","null","","","","","","","","","","","",""
"","1064","html-keyboard-response","230","262609","0.0-13.0-1.6","hSdHdJPZH0","65d6ce10fbdaf41679cebe84","6617fad957f7c6a12ea16e26","6622cade065f433be3dbf8c3","image grid","p","","","","","Ontogenetic_Distractor_Nonthreat_target","2500","ongrid","p","6","Ontogenetic","true","experimental"
"","null","html-keyboard-response","231","262761","0.0-13.0-2.6","hSdHdJPZH0","65d6ce10fbdaf41679cebe84","6617fad957f7c6a12ea16e26","6622cade065f433be3dbf8c3","
    <div id=""grid-container"">
        <!-- Grid items will be dynamically added here -->
    </div>    ","null","","","","","","","","","","","",""
"","null","html-keyboard-response","232","263464","0.0-13.0-0.7","hSdHdJPZH0","65d6ce10fbdaf41679cebe84","6617fad957f7c6a12ea16e26","6622cade065f433be3dbf8c3","fixation cross","null","","","","","","","","","","","",""
"","2209","html-keyboard-response","233","265673","0.0-13.0-1.7","hSdHdJPZH0","65d6ce10fbdaf41679cebe84","6617fad957f7c6a12ea16e26","6622cade065f433be3dbf8c3","image grid"," ","","","","","Ontogenetic_Distractor_notarget","2500","ongrid"," ","4","Ontogenetic","true","experimental"
"","null","html-keyboard-response","234","265825","0.0-13.0-2.7","hSdHdJPZH0","65d6ce10fbdaf41679cebe84","6617fad957f7c6a12ea16e26","6622cade065f433be3dbf8c3","
    <div id=""grid-container"">
        <!-- Grid items will be dynamically added here -->
    </div>    ","null","","","","","","","","","","","",""
"","null","html-keyboard-response","235","266527","0.0-13.0-0.8","hSdHdJPZH0","65d6ce10fbdaf41679cebe84","6617fad957f7c6a12ea16e26","6622cade065f433be3dbf8c3","fixation cross","null","","","","","","","","","","","",""
"","906","html-keyboard-response","236","267433","0.0-13.0-1.8","hSdHdJPZH0","65d6ce10fbdaf41679cebe84","6617fad957f7c6a12ea16e26","6622cade065f433be3dbf8c3","image grid","p","","","","","Ontogenetic_Distractor_Nonthreat_target","2500","ongrid","p","6","Ontogenetic","true","experimental"
"","null","html-keyboard-response","237","267585","0.0-13.0-2.8","hSdHdJPZH0","65d6ce10fbdaf41679cebe84","6617fad957f7c6a12ea16e26","6622cade065f433be3dbf8c3","
    <div id=""grid-container"">
        <!-- Grid items will be dynamically added here -->
    </div>    ","null","","","","","","","","","","","",""
"","null","html-keyboard-response","238","268290","0.0-13.0-0.9","hSdHdJPZH0","65d6ce10fbdaf41679cebe84","6617fad957f7c6a12ea16e26","6622cade065f433be3dbf8c3","fixation cross","null","","","","","","","","","","","",""
"","1535","html-keyboard-response","239","269825","0.0-13.0-1.9","hSdHdJPZH0","65d6ce10fbdaf41679cebe84","6617fad957f7c6a12ea16e26","6622cade065f433be3dbf8c3","image grid","p","","","","","Ontogenetic_Distractor_notarget","2500","ongrid"," ","6","Ontogenetic","false","experimental"
"","null","html-keyboard-response","240","269977","0.0-13.0-2.9","hSdHdJPZH0","65d6ce10fbdaf41679cebe84","6617fad957f7c6a12ea16e26","6622cade065f433be3dbf8c3","
    <div id=""grid-container"">
        <!-- Grid items will be dynamically added here -->
    </div>    ","null","","","","","","","","","","","",""
"","null","html-keyboard-response","241","270682","0.0-13.0-0.10","hSdHdJPZH0","65d6ce10fbdaf41679cebe84","6617fad957f7c6a12ea16e26","6622cade065f433be3dbf8c3","fixation cross","null","","","","","","","","","","","",""
"","1039","html-keyboard-response","242","271721","0.0-13.0-1.10","hSdHdJPZH0","65d6ce10fbdaf41679cebe84","6617fad957f7c6a12ea16e26","6622cade065f433be3dbf8c3","image grid","q","","","","","Ontogenetic_Distractor_Threat_target","2500","ongrid","q","3","Ontogenetic","true","experimental"
"","null","html-keyboard-response","243","271873","0.0-13.0-2.10","hSdHdJPZH0","65d6ce10fbdaf41679cebe84","6617fad957f7c6a12ea16e26","6622cade065f433be3dbf8c3","
    <div id=""grid-container"">
        <!-- Grid items will be dynamically added here -->
    </div>    ","null","","","","","","","","","","","",""
"","null","html-keyboard-response","244","272577","0.0-13.0-0.11","hSdHdJPZH0","65d6ce10fbdaf41679cebe84","6617fad957f7c6a12ea16e26","6622cade065f433be3dbf8c3","fixation cross","null","","","","","","","","","","","",""
"","1384","html-keyboard-response","245","273961","0.0-13.0-1.11","hSdHdJPZH0","65d6ce10fbdaf41679cebe84","6617fad957f7c6a12ea16e26","6622cade065f433be3dbf8c3","image grid","q","","","","","Ontogenetic_Distractor_Threat_target","2500","ongrid","q","9","Ontogenetic","true","experimental"
"","null","html-keyboard-response","246","274113","0.0-13.0-2.11","hSdHdJPZH0","65d6ce10fbdaf41679cebe84","6617fad957f7c6a12ea16e26","6622cade065f433be3dbf8c3","
    <div id=""grid-container"">
        <!-- Grid items will be dynamically added here -->
    </div>    ","null","","","","","","","","","","","",""
"","null","html-keyboard-response","247","274815","0.0-13.0-0.12","hSdHdJPZH0","65d6ce10fbdaf41679cebe84","6617fad957f7c6a12ea16e26","6622cade065f433be3dbf8c3","fixation cross","null","","","","","","","","","","","",""
"","2042","html-keyboard-response","248","276857","0.0-13.0-1.12","hSdHdJPZH0","65d6ce10fbdaf41679cebe84","6617fad957f7c6a12ea16e26","6622cade065f433be3dbf8c3","image grid","p","","","","","Ontogenetic_Distractor_Nonthreat_target","2500","ongrid","p","1","Ontogenetic","true","experimental"
"","null","html-keyboard-response","249","277009","0.0-13.0-2.12","hSdHdJPZH0","65d6ce10fbdaf41679cebe84","6617fad957f7c6a12ea16e26","6622cade065f433be3dbf8c3","
    <div id=""grid-container"">
        <!-- Grid items will be dynamically added here -->
    </div>    ","null","","","","","","","","","","","",""
"","null","html-keyboard-response","250","277712","0.0-13.0-0.13","hSdHdJPZH0","65d6ce10fbdaf41679cebe84","6617fad957f7c6a12ea16e26","6622cade065f433be3dbf8c3","fixation cross","null","","","","","","","","","","","",""
"","null","html-keyboard-response","251","280214","0.0-13.0-1.13","hSdHdJPZH0","65d6ce10fbdaf41679cebe84","6617fad957f7c6a12ea16e26","6622cade065f433be3dbf8c3","
        <div id=""grid-container"">
        <!-- Grid items will be dynamically added here -->
    </div>    ","null","","","","","","","","","","","",""
"","2575","html-keyboard-response","252","280289","0.0-13.0-2.13","hSdHdJPZH0","65d6ce10fbdaf41679cebe84","6617fad957f7c6a12ea16e26","6622cade065f433be3dbf8c3","mask grid","p","","","","","Ontogenetic_Distractor_Nonthreat_target","2500","onmask","p","8","Ontogenetic","true","experimental"
"","null","html-keyboard-response","253","280994","0.0-13.0-0.14","hSdHdJPZH0","65d6ce10fbdaf41679cebe84","6617fad957f7c6a12ea16e26","6622cade065f433be3dbf8c3","fixation cross","null","","","","","","","","","","","",""
"","983","html-keyboard-response","254","281978","0.0-13.0-1.14","hSdHdJPZH0","65d6ce10fbdaf41679cebe84","6617fad957f7c6a12ea16e26","6622cade065f433be3dbf8c3","image grid","q","","","","","Ontogenetic_Distractor_Threat_target","2500","ongrid","q","8","Ontogenetic","true","experimental"
"","null","html-keyboard-response","255","282130","0.0-13.0-2.14","hSdHdJPZH0","65d6ce10fbdaf41679cebe84","6617fad957f7c6a12ea16e26","6622cade065f433be3dbf8c3","
    <div id=""grid-container"">
        <!-- Grid items will be dynamically added here -->
    </div>    ","null","","","","","","","","","","","",""
"","null","html-keyboard-response","256","282832","0.0-13.0-0.15","hSdHdJPZH0","65d6ce10fbdaf41679cebe84","6617fad957f7c6a12ea16e26","6622cade065f433be3dbf8c3","fixation cross","null","","","","","","","","","","","",""
"","1056","html-keyboard-response","257","283889","0.0-13.0-1.15","hSdHdJPZH0","65d6ce10fbdaf41679cebe84","6617fad957f7c6a12ea16e26","6622cade065f433be3dbf8c3","image grid","p","","","","","Ontogenetic_Distractor_Nonthreat_target","2500","ongrid","p","3","Ontogenetic","true","experimental"
"","null","html-keyboard-response","258","284041","0.0-13.0-2.15","hSdHdJPZH0","65d6ce10fbdaf41679cebe84","6617fad957f7c6a12ea16e26","6622cade065f433be3dbf8c3","
    <div id=""grid-container"">
        <!-- Grid items will be dynamically added here -->
    </div>    ","null","","","","","","","","","","","",""
"","null","html-keyboard-response","259","284744","0.0-13.0-0.16","hSdHdJPZH0","65d6ce10fbdaf41679cebe84","6617fad957f7c6a12ea16e26","6622cade065f433be3dbf8c3","fixation cross","null","","","","","","","","","","","",""
"","1985","html-keyboard-response","260","286729","0.0-13.0-1.16","hSdHdJPZH0","65d6ce10fbdaf41679cebe84","6617fad957f7c6a12ea16e26","6622cade065f433be3dbf8c3","image grid"," ","","","","","Ontogenetic_Distractor_notarget","2500","ongrid"," ","1","Ontogenetic","true","experimental"
"","null","html-keyboard-response","261","286881","0.0-13.0-2.16","hSdHdJPZH0","65d6ce10fbdaf41679cebe84","6617fad957f7c6a12ea16e26","6622cade065f433be3dbf8c3","
    <div id=""grid-container"">
        <!-- Grid items will be dynamically added here -->
    </div>    ","null","","","","","","","","","","","",""
"","null","html-keyboard-response","262","287583","0.0-13.0-0.17","hSdHdJPZH0","65d6ce10fbdaf41679cebe84","6617fad957f7c6a12ea16e26","6622cade065f433be3dbf8c3","fixation cross","null","","","","","","","","","","","",""
"","2193","html-keyboard-response","263","289777","0.0-13.0-1.17","hSdHdJPZH0","65d6ce10fbdaf41679cebe84","6617fad957f7c6a12ea16e26","6622cade065f433be3dbf8c3","image grid","p","","","","","Ontogenetic_Distractor_Nonthreat_target","2500","ongrid","p","8","Ontogenetic","true","experimental"
"","null","html-keyboard-response","264","289929","0.0-13.0-2.17","hSdHdJPZH0","65d6ce10fbdaf41679cebe84","6617fad957f7c6a12ea16e26","6622cade065f433be3dbf8c3","
    <div id=""grid-container"">
        <!-- Grid items will be dynamically added here -->
    </div>    ","null","","","","","","","","","","","",""
"","null","html-keyboard-response","265","290631","0.0-13.0-0.18","hSdHdJPZH0","65d6ce10fbdaf41679cebe84","6617fad957f7c6a12ea16e26","6622cade065f433be3dbf8c3","fixation cross","null","","","","","","","","","","","",""
"","1146","html-keyboard-response","266","291777","0.0-13.0-1.18","hSdHdJPZH0","65d6ce10fbdaf41679cebe84","6617fad957f7c6a12ea16e26","6622cade065f433be3dbf8c3","image grid","p","","","","","Ontogenetic_Distractor_Nonthreat_target","2500","ongrid","p","9","Ontogenetic","true","experimental"
"","null","html-keyboard-response","267","291929","0.0-13.0-2.18","hSdHdJPZH0","65d6ce10fbdaf41679cebe84","6617fad957f7c6a12ea16e26","6622cade065f433be3dbf8c3","
    <div id=""grid-container"">
        <!-- Grid items will be dynamically added here -->
    </div>    ","null","","","","","","","","","","","",""
"","null","html-keyboard-response","268","292632","0.0-13.0-0.19","hSdHdJPZH0","65d6ce10fbdaf41679cebe84","6617fad957f7c6a12ea16e26","6622cade065f433be3dbf8c3","fixation cross","null","","","","","","","","","","","",""
"","1057","html-keyboard-response","269","293690","0.0-13.0-1.19","hSdHdJPZH0","65d6ce10fbdaf41679cebe84","6617fad957f7c6a12ea16e26","6622cade065f433be3dbf8c3","image grid","q","","","","","Ontogenetic_Distractor_Threat_target","2500","ongrid","q","9","Ontogenetic","true","experimental"
"","null","html-keyboard-response","270","293841","0.0-13.0-2.19","hSdHdJPZH0","65d6ce10fbdaf41679cebe84","6617fad957f7c6a12ea16e26","6622cade065f433be3dbf8c3","
    <div id=""grid-container"">
        <!-- Grid items will be dynamically added here -->
    </div>    ","null","","","","","","","","","","","",""
"","null","html-keyboard-response","271","294544","0.0-13.0-0.20","hSdHdJPZH0","65d6ce10fbdaf41679cebe84","6617fad957f7c6a12ea16e26","6622cade065f433be3dbf8c3","fixation cross","null","","","","","","","","","","","",""
"","857","html-keyboard-response","272","295402","0.0-13.0-1.20","hSdHdJPZH0","65d6ce10fbdaf41679cebe84","6617fad957f7c6a12ea16e26","6622cade065f433be3dbf8c3","image grid","q","","","","","Ontogenetic_Distractor_Threat_target","2500","ongrid","q","9","Ontogenetic","true","experimental"
"","null","html-keyboard-response","273","295553","0.0-13.0-2.20","hSdHdJPZH0","65d6ce10fbdaf41679cebe84","6617fad957f7c6a12ea16e26","6622cade065f433be3dbf8c3","
    <div id=""grid-container"">
        <!-- Grid items will be dynamically added here -->
    </div>    ","null","","","","","","","","","","","",""
"","null","html-keyboard-response","274","296256","0.0-13.0-0.21","hSdHdJPZH0","65d6ce10fbdaf41679cebe84","6617fad957f7c6a12ea16e26","6622cade065f433be3dbf8c3","fixation cross","null","","","","","","","","","","","",""
"","752","html-keyboard-response","275","297009","0.0-13.0-1.21","hSdHdJPZH0","65d6ce10fbdaf41679cebe84","6617fad957f7c6a12ea16e26","6622cade065f433be3dbf8c3","image grid","q","","","","","Ontogenetic_Distractor_Threat_target","2500","ongrid","q","6","Ontogenetic","true","experimental"
"","null","html-keyboard-response","276","297161","0.0-13.0-2.21","hSdHdJPZH0","65d6ce10fbdaf41679cebe84","6617fad957f7c6a12ea16e26","6622cade065f433be3dbf8c3","
    <div id=""grid-container"">
        <!-- Grid items will be dynamically added here -->
    </div>    ","null","","","","","","","","","","","",""
"","null","html-keyboard-response","277","297863","0.0-13.0-0.22","hSdHdJPZH0","65d6ce10fbdaf41679cebe84","6617fad957f7c6a12ea16e26","6622cade065f433be3dbf8c3","fixation cross","null","","","","","","","","","","","",""
"","929","html-keyboard-response","278","298793","0.0-13.0-1.22","hSdHdJPZH0","65d6ce10fbdaf41679cebe84","6617fad957f7c6a12ea16e26","6622cade065f433be3dbf8c3","image grid","p","","","","","Ontogenetic_Distractor_Nonthreat_target","2500","ongrid","p","6","Ontogenetic","true","experimental"
"","null","html-keyboard-response","279","298944","0.0-13.0-2.22","hSdHdJPZH0","65d6ce10fbdaf41679cebe84","6617fad957f7c6a12ea16e26","6622cade065f433be3dbf8c3","
    <div id=""grid-container"">
        <!-- Grid items will be dynamically added here -->
    </div>    ","null","","","","","","","","","","","",""
"","null","html-keyboard-response","280","299647","0.0-13.0-0.23","hSdHdJPZH0","65d6ce10fbdaf41679cebe84","6617fad957f7c6a12ea16e26","6622cade065f433be3dbf8c3","fixation cross","null","","","","","","","","","","","",""
"","1058","html-keyboard-response","281","300705","0.0-13.0-1.23","hSdHdJPZH0","65d6ce10fbdaf41679cebe84","6617fad957f7c6a12ea16e26","6622cade065f433be3dbf8c3","image grid","q","","","","","Ontogenetic_Distractor_Threat_target","2500","ongrid","q","6","Ontogenetic","true","experimental"
"","null","html-keyboard-response","282","300857","0.0-13.0-2.23","hSdHdJPZH0","65d6ce10fbdaf41679cebe84","6617fad957f7c6a12ea16e26","6622cade065f433be3dbf8c3","
    <div id=""grid-container"">
        <!-- Grid items will be dynamically added here -->
    </div>    ","null","","","","","","","","","","","",""
"","null","html-keyboard-response","283","301560","0.0-13.0-0.24","hSdHdJPZH0","65d6ce10fbdaf41679cebe84","6617fad957f7c6a12ea16e26","6622cade065f433be3dbf8c3","fixation cross","null","","","","","","","","","","","",""
"","841","html-keyboard-response","284","302401","0.0-13.0-1.24","hSdHdJPZH0","65d6ce10fbdaf41679cebe84","6617fad957f7c6a12ea16e26","6622cade065f433be3dbf8c3","image grid","q","","","","","Ontogenetic_Distractor_Threat_target","2500","ongrid","q","1","Ontogenetic","true","experimental"
"","null","html-keyboard-response","285","302552","0.0-13.0-2.24","hSdHdJPZH0","65d6ce10fbdaf41679cebe84","6617fad957f7c6a12ea16e26","6622cade065f433be3dbf8c3","
    <div id=""grid-container"">
        <!-- Grid items will be dynamically added here -->
    </div>    ","null","","","","","","","","","","","",""
"","null","html-keyboard-response","286","303255","0.0-13.0-0.25","hSdHdJPZH0","65d6ce10fbdaf41679cebe84","6617fad957f7c6a12ea16e26","6622cade065f433be3dbf8c3","fixation cross","null","","","","","","","","","","","",""
"","923","html-keyboard-response","287","304178","0.0-13.0-1.25","hSdHdJPZH0","65d6ce10fbdaf41679cebe84","6617fad957f7c6a12ea16e26","6622cade065f433be3dbf8c3","image grid","p","","","","","Ontogenetic_Distractor_Nonthreat_target","2500","ongrid","p","8","Ontogenetic","true","experimental"
"","null","html-keyboard-response","288","304329","0.0-13.0-2.25","hSdHdJPZH0","65d6ce10fbdaf41679cebe84","6617fad957f7c6a12ea16e26","6622cade065f433be3dbf8c3","
    <div id=""grid-container"">
        <!-- Grid items will be dynamically added here -->
    </div>    ","null","","","","","","","","","","","",""
"","null","html-keyboard-response","289","305031","0.0-13.0-0.26","hSdHdJPZH0","65d6ce10fbdaf41679cebe84","6617fad957f7c6a12ea16e26","6622cade065f433be3dbf8c3","fixation cross","null","","","","","","","","","","","",""
"","729","html-keyboard-response","290","305761","0.0-13.0-1.26","hSdHdJPZH0","65d6ce10fbdaf41679cebe84","6617fad957f7c6a12ea16e26","6622cade065f433be3dbf8c3","image grid","q","","","","","Ontogenetic_Distractor_Threat_target","2500","ongrid","q","5","Ontogenetic","true","experimental"
"","null","html-keyboard-response","291","305914","0.0-13.0-2.26","hSdHdJPZH0","65d6ce10fbdaf41679cebe84","6617fad957f7c6a12ea16e26","6622cade065f433be3dbf8c3","
    <div id=""grid-container"">
        <!-- Grid items will be dynamically added here -->
    </div>    ","null","","","","","","","","","","","",""
"","null","html-keyboard-response","292","306616","0.0-13.0-0.27","hSdHdJPZH0","65d6ce10fbdaf41679cebe84","6617fad957f7c6a12ea16e26","6622cade065f433be3dbf8c3","fixation cross","null","","","","","","","","","","","",""
"","1561","html-keyboard-response","293","308177","0.0-13.0-1.27","hSdHdJPZH0","65d6ce10fbdaf41679cebe84","6617fad957f7c6a12ea16e26","6622cade065f433be3dbf8c3","image grid","p","","","","","Ontogenetic_Distractor_Nonthreat_target","2500","ongrid","p","8","Ontogenetic","true","experimental"
"","null","html-keyboard-response","294","308329","0.0-13.0-2.27","hSdHdJPZH0","65d6ce10fbdaf41679cebe84","6617fad957f7c6a12ea16e26","6622cade065f433be3dbf8c3","
    <div id=""grid-container"">
        <!-- Grid items will be dynamically added here -->
    </div>    ","null","","","","","","","","","","","",""
"","null","html-keyboard-response","295","309031","0.0-13.0-0.28","hSdHdJPZH0","65d6ce10fbdaf41679cebe84","6617fad957f7c6a12ea16e26","6622cade065f433be3dbf8c3","fixation cross","null","","","","","","","","","","","",""
"","778","html-keyboard-response","296","309809","0.0-13.0-1.28","hSdHdJPZH0","65d6ce10fbdaf41679cebe84","6617fad957f7c6a12ea16e26","6622cade065f433be3dbf8c3","image grid","q","","","","","Ontogenetic_Distractor_Threat_target","2500","ongrid","q","7","Ontogenetic","true","experimental"
"","null","html-keyboard-response","297","309961","0.0-13.0-2.28","hSdHdJPZH0","65d6ce10fbdaf41679cebe84","6617fad957f7c6a12ea16e26","6622cade065f433be3dbf8c3","
    <div id=""grid-container"">
        <!-- Grid items will be dynamically added here -->
    </div>    ","null","","","","","","","","","","","",""
"","null","html-keyboard-response","298","310664","0.0-13.0-0.29","hSdHdJPZH0","65d6ce10fbdaf41679cebe84","6617fad957f7c6a12ea16e26","6622cade065f433be3dbf8c3","fixation cross","null","","","","","","","","","","","",""
"","840","html-keyboard-response","299","311505","0.0-13.0-1.29","hSdHdJPZH0","65d6ce10fbdaf41679cebe84","6617fad957f7c6a12ea16e26","6622cade065f433be3dbf8c3","image grid","q","","","","","Ontogenetic_Distractor_Threat_target","2500","ongrid","q","9","Ontogenetic","true","experimental"
"","null","html-keyboard-response","300","311657","0.0-13.0-2.29","hSdHdJPZH0","65d6ce10fbdaf41679cebe84","6617fad957f7c6a12ea16e26","6622cade065f433be3dbf8c3","
    <div id=""grid-container"">
        <!-- Grid items will be dynamically added here -->
    </div>    ","null","","","","","","","","","","","",""
"","null","html-keyboard-response","301","312361","0.0-13.0-0.30","hSdHdJPZH0","65d6ce10fbdaf41679cebe84","6617fad957f7c6a12ea16e26","6622cade065f433be3dbf8c3","fixation cross","null","","","","","","","","","","","",""
"","968","html-keyboard-response","302","313329","0.0-13.0-1.30","hSdHdJPZH0","65d6ce10fbdaf41679cebe84","6617fad957f7c6a12ea16e26","6622cade065f433be3dbf8c3","image grid","p","","","","","Ontogenetic_Distractor_Nonthreat_target","2500","ongrid","p","1","Ontogenetic","true","experimental"
"","null","html-keyboard-response","303","313481","0.0-13.0-2.30","hSdHdJPZH0","65d6ce10fbdaf41679cebe84","6617fad957f7c6a12ea16e26","6622cade065f433be3dbf8c3","
    <div id=""grid-container"">
        <!-- Grid items will be dynamically added here -->
    </div>    ","null","","","","","","","","","","","",""
"","null","html-keyboard-response","304","314183","0.0-13.0-0.31","hSdHdJPZH0","65d6ce10fbdaf41679cebe84","6617fad957f7c6a12ea16e26","6622cade065f433be3dbf8c3","fixation cross","null","","","","","","","","","","","",""
"","1978","html-keyboard-response","305","316162","0.0-13.0-1.31","hSdHdJPZH0","65d6ce10fbdaf41679cebe84","6617fad957f7c6a12ea16e26","6622cade065f433be3dbf8c3","image grid"," ","","","","","Ontogenetic_Distractor_notarget","2500","ongrid"," ","3","Ontogenetic","true","experimental"
"","null","html-keyboard-response","306","316313","0.0-13.0-2.31","hSdHdJPZH0","65d6ce10fbdaf41679cebe84","6617fad957f7c6a12ea16e26","6622cade065f433be3dbf8c3","
    <div id=""grid-container"">
        <!-- Grid items will be dynamically added here -->
    </div>    ","null","","","","","","","","","","","",""
"","null","html-keyboard-response","307","317016","0.0-13.0-0.32","hSdHdJPZH0","65d6ce10fbdaf41679cebe84","6617fad957f7c6a12ea16e26","6622cade065f433be3dbf8c3","fixation cross","null","","","","","","","","","","","",""
"","1104","html-keyboard-response","308","318121","0.0-13.0-1.32","hSdHdJPZH0","65d6ce10fbdaf41679cebe84","6617fad957f7c6a12ea16e26","6622cade065f433be3dbf8c3","image grid","q","","","","","Ontogenetic_Distractor_Threat_target","2500","ongrid","q","7","Ontogenetic","true","experimental"
"","null","html-keyboard-response","309","318272","0.0-13.0-2.32","hSdHdJPZH0","65d6ce10fbdaf41679cebe84","6617fad957f7c6a12ea16e26","6622cade065f433be3dbf8c3","
    <div id=""grid-container"">
        <!-- Grid items will be dynamically added here -->
    </div>    ","null","","","","","","","","","","","",""
"","null","html-keyboard-response","310","318976","0.0-13.0-0.33","hSdHdJPZH0","65d6ce10fbdaf41679cebe84","6617fad957f7c6a12ea16e26","6622cade065f433be3dbf8c3","fixation cross","null","","","","","","","","","","","",""
"","969","html-keyboard-response","311","319945","0.0-13.0-1.33","hSdHdJPZH0","65d6ce10fbdaf41679cebe84","6617fad957f7c6a12ea16e26","6622cade065f433be3dbf8c3","image grid","q","","","","","Ontogenetic_Distractor_Threat_target","2500","ongrid","q","3","Ontogenetic","true","experimental"
"","null","html-keyboard-response","312","320097","0.0-13.0-2.33","hSdHdJPZH0","65d6ce10fbdaf41679cebe84","6617fad957f7c6a12ea16e26","6622cade065f433be3dbf8c3","
    <div id=""grid-container"">
        <!-- Grid items will be dynamically added here -->
    </div>    ","null","","","","","","","","","","","",""
"","null","html-keyboard-response","313","320798","0.0-13.0-0.34","hSdHdJPZH0","65d6ce10fbdaf41679cebe84","6617fad957f7c6a12ea16e26","6622cade065f433be3dbf8c3","fixation cross","null","","","","","","","","","","","",""
"","707","html-keyboard-response","314","321505","0.0-13.0-1.34","hSdHdJPZH0","65d6ce10fbdaf41679cebe84","6617fad957f7c6a12ea16e26","6622cade065f433be3dbf8c3","image grid","p","","","","","Ontogenetic_Distractor_Nonthreat_target","2500","ongrid","p","3","Ontogenetic","true","experimental"
"","null","html-keyboard-response","315","321656","0.0-13.0-2.34","hSdHdJPZH0","65d6ce10fbdaf41679cebe84","6617fad957f7c6a12ea16e26","6622cade065f433be3dbf8c3","
    <div id=""grid-container"">
        <!-- Grid items will be dynamically added here -->
    </div>    ","null","","","","","","","","","","","",""
"","null","html-keyboard-response","316","322359","0.0-13.0-0.35","hSdHdJPZH0","65d6ce10fbdaf41679cebe84","6617fad957f7c6a12ea16e26","6622cade065f433be3dbf8c3","fixation cross","null","","","","","","","","","","","",""
"","2258","html-keyboard-response","317","324617","0.0-13.0-1.35","hSdHdJPZH0","65d6ce10fbdaf41679cebe84","6617fad957f7c6a12ea16e26","6622cade065f433be3dbf8c3","image grid","p","","","","","Ontogenetic_Distractor_Nonthreat_target","2500","ongrid","p","8","Ontogenetic","true","experimental"
"","null","html-keyboard-response","318","324769","0.0-13.0-2.35","hSdHdJPZH0","65d6ce10fbdaf41679cebe84","6617fad957f7c6a12ea16e26","6622cade065f433be3dbf8c3","
    <div id=""grid-container"">
        <!-- Grid items will be dynamically added here -->
    </div>    ","null","","","","","","","","","","","",""
"","null","html-keyboard-response","319","325472","0.0-13.0-0.36","hSdHdJPZH0","65d6ce10fbdaf41679cebe84","6617fad957f7c6a12ea16e26","6622cade065f433be3dbf8c3","fixation cross","null","","","","","","","","","","","",""
"","1257","html-keyboard-response","320","326730","0.0-13.0-1.36","hSdHdJPZH0","65d6ce10fbdaf41679cebe84","6617fad957f7c6a12ea16e26","6622cade065f433be3dbf8c3","image grid","q","","","","","Ontogenetic_Distractor_Threat_target","2500","ongrid","q","5","Ontogenetic","true","experimental"
"","null","html-keyboard-response","321","326882","0.0-13.0-2.36","hSdHdJPZH0","65d6ce10fbdaf41679cebe84","6617fad957f7c6a12ea16e26","6622cade065f433be3dbf8c3","
    <div id=""grid-container"">
        <!-- Grid items will be dynamically added here -->
    </div>    ","null","","","","","","","","","","","",""
"","null","html-keyboard-response","322","327585","0.0-13.0-0.37","hSdHdJPZH0","65d6ce10fbdaf41679cebe84","6617fad957f7c6a12ea16e26","6622cade065f433be3dbf8c3","fixation cross","null","","","","","","","","","","","",""
"","727","html-keyboard-response","323","328313","0.0-13.0-1.37","hSdHdJPZH0","65d6ce10fbdaf41679cebe84","6617fad957f7c6a12ea16e26","6622cade065f433be3dbf8c3","image grid","q","","","","","Ontogenetic_Distractor_Threat_target","2500","ongrid","q","8","Ontogenetic","true","experimental"
"","null","html-keyboard-response","324","328464","0.0-13.0-2.37","hSdHdJPZH0","65d6ce10fbdaf41679cebe84","6617fad957f7c6a12ea16e26","6622cade065f433be3dbf8c3","
    <div id=""grid-container"">
        <!-- Grid items will be dynamically added here -->
    </div>    ","null","","","","","","","","","","","",""
"","null","html-keyboard-response","325","329165","0.0-13.0-0.38","hSdHdJPZH0","65d6ce10fbdaf41679cebe84","6617fad957f7c6a12ea16e26","6622cade065f433be3dbf8c3","fixation cross","null","","","","","","","","","","","",""
"","1611","html-keyboard-response","326","330777","0.0-13.0-1.38","hSdHdJPZH0","65d6ce10fbdaf41679cebe84","6617fad957f7c6a12ea16e26","6622cade065f433be3dbf8c3","image grid","p","","","","","Ontogenetic_Distractor_Nonthreat_target","2500","ongrid","p","9","Ontogenetic","true","experimental"
"","null","html-keyboard-response","327","330929","0.0-13.0-2.38","hSdHdJPZH0","65d6ce10fbdaf41679cebe84","6617fad957f7c6a12ea16e26","6622cade065f433be3dbf8c3","
    <div id=""grid-container"">
        <!-- Grid items will be dynamically added here -->
    </div>    ","null","","","","","","","","","","","",""
"","null","html-keyboard-response","328","331631","0.0-13.0-0.39","hSdHdJPZH0","65d6ce10fbdaf41679cebe84","6617fad957f7c6a12ea16e26","6622cade065f433be3dbf8c3","fixation cross","null","","","","","","","","","","","",""
"","697","html-keyboard-response","329","332328","0.0-13.0-1.39","hSdHdJPZH0","65d6ce10fbdaf41679cebe84","6617fad957f7c6a12ea16e26","6622cade065f433be3dbf8c3","image grid","q","","","","","Ontogenetic_Distractor_Threat_target","2500","ongrid","q","5","Ontogenetic","true","experimental"
"","null","html-keyboard-response","330","332481","0.0-13.0-2.39","hSdHdJPZH0","65d6ce10fbdaf41679cebe84","6617fad957f7c6a12ea16e26","6622cade065f433be3dbf8c3","
    <div id=""grid-container"">
        <!-- Grid items will be dynamically added here -->
    </div>    ","null","","","","","","","","","","","",""
"","14415","html-keyboard-response","331","347097","0.0-14.0","hSdHdJPZH0","65d6ce10fbdaf41679cebe84","6617fad957f7c6a12ea16e26","6622cade065f433be3dbf8c3","break screen"," ","","","","","","","","","","","",""
"","null","html-keyboard-response","332","349599","0.0-15.0-0.0","hSdHdJPZH0","65d6ce10fbdaf41679cebe84","6617fad957f7c6a12ea16e26","6622cade065f433be3dbf8c3","fixation cross","null","","","","","","","","","","","",""
"","null","html-keyboard-response","333","350400","0.0-15.0-1.0","hSdHdJPZH0","65d6ce10fbdaf41679cebe84","6617fad957f7c6a12ea16e26","6622cade065f433be3dbf8c3","
        <div id=""grid-container"">
        <!-- Grid items will be dynamically added here -->
    </div>    ","null","","","","","","","","","","","",""
"","4601","html-keyboard-response","334","354201","0.0-15.0-2.0","hSdHdJPZH0","65d6ce10fbdaf41679cebe84","6617fad957f7c6a12ea16e26","6622cade065f433be3dbf8c3","mask grid","p","","","","","Ontogenetic_Distractor_Nonthreat_target","800","onmask","p","6","Ontogenetic","true","experimental"
"","null","html-keyboard-response","335","354905","0.0-15.0-0.1","hSdHdJPZH0","65d6ce10fbdaf41679cebe84","6617fad957f7c6a12ea16e26","6622cade065f433be3dbf8c3","fixation cross","null","","","","","","","","","","","",""
"","null","html-keyboard-response","336","355707","0.0-15.0-1.1","hSdHdJPZH0","65d6ce10fbdaf41679cebe84","6617fad957f7c6a12ea16e26","6622cade065f433be3dbf8c3","
        <div id=""grid-container"">
        <!-- Grid items will be dynamically added here -->
    </div>    ","null","","","","","","","","","","","",""
"","1485","html-keyboard-response","337","356392","0.0-15.0-2.1","hSdHdJPZH0","65d6ce10fbdaf41679cebe84","6617fad957f7c6a12ea16e26","6622cade065f433be3dbf8c3","mask grid","p","","","","","Ontogenetic_Distractor_Nonthreat_target","800","onmask","p","5","Ontogenetic","true","experimental"
"","null","html-keyboard-response","338","357096","0.0-15.0-0.2","hSdHdJPZH0","65d6ce10fbdaf41679cebe84","6617fad957f7c6a12ea16e26","6622cade065f433be3dbf8c3","fixation cross","null","","","","","","","","","","","",""
"","null","html-keyboard-response","339","357897","0.0-15.0-1.2","hSdHdJPZH0","65d6ce10fbdaf41679cebe84","6617fad957f7c6a12ea16e26","6622cade065f433be3dbf8c3","
        <div id=""grid-container"">
        <!-- Grid items will be dynamically added here -->
    </div>    ","null","","","","","","","","","","","",""
"","1543","html-keyboard-response","340","358641","0.0-15.0-2.2","hSdHdJPZH0","65d6ce10fbdaf41679cebe84","6617fad957f7c6a12ea16e26","6622cade065f433be3dbf8c3","mask grid","p","","","","","Ontogenetic_Distractor_Nonthreat_target","800","onmask","p","8","Ontogenetic","true","experimental"
"","null","html-keyboard-response","341","359344","0.0-15.0-0.3","hSdHdJPZH0","65d6ce10fbdaf41679cebe84","6617fad957f7c6a12ea16e26","6622cade065f433be3dbf8c3","fixation cross","null","","","","","","","","","","","",""
"","null","html-keyboard-response","342","360145","0.0-15.0-1.3","hSdHdJPZH0","65d6ce10fbdaf41679cebe84","6617fad957f7c6a12ea16e26","6622cade065f433be3dbf8c3","
        <div id=""grid-container"">
        <!-- Grid items will be dynamically added here -->
    </div>    ","null","","","","","","","","","","","",""
"","1407","html-keyboard-response","343","360752","0.0-15.0-2.3","hSdHdJPZH0","65d6ce10fbdaf41679cebe84","6617fad957f7c6a12ea16e26","6622cade065f433be3dbf8c3","mask grid"," ","","","","","Ontogenetic_Distractor_notarget","800","onmask"," ","5","Ontogenetic","true","experimental"
"","null","html-keyboard-response","344","361456","0.0-15.0-0.4","hSdHdJPZH0","65d6ce10fbdaf41679cebe84","6617fad957f7c6a12ea16e26","6622cade065f433be3dbf8c3","fixation cross","null","","","","","","","","","","","",""
"","null","html-keyboard-response","345","362258","0.0-15.0-1.4","hSdHdJPZH0","65d6ce10fbdaf41679cebe84","6617fad957f7c6a12ea16e26","6622cade065f433be3dbf8c3","
        <div id=""grid-container"">
        <!-- Grid items will be dynamically added here -->
    </div>    ","null","","","","","","","","","","","",""
"","1742","html-keyboard-response","346","363201","0.0-15.0-2.4","hSdHdJPZH0","65d6ce10fbdaf41679cebe84","6617fad957f7c6a12ea16e26","6622cade065f433be3dbf8c3","mask grid","p","","","","","Ontogenetic_Distractor_Nonthreat_target","800","onmask","p","7","Ontogenetic","true","experimental"
"","null","html-keyboard-response","347","363903","0.0-15.0-0.5","hSdHdJPZH0","65d6ce10fbdaf41679cebe84","6617fad957f7c6a12ea16e26","6622cade065f433be3dbf8c3","fixation cross","null","","","","","","","","","","","",""
"","null","html-keyboard-response","348","364706","0.0-15.0-1.5","hSdHdJPZH0","65d6ce10fbdaf41679cebe84","6617fad957f7c6a12ea16e26","6622cade065f433be3dbf8c3","
        <div id=""grid-container"">
        <!-- Grid items will be dynamically added here -->
    </div>    ","null","","","","","","","","","","","",""
"","2590","html-keyboard-response","349","366496","0.0-15.0-2.5","hSdHdJPZH0","65d6ce10fbdaf41679cebe84","6617fad957f7c6a12ea16e26","6622cade065f433be3dbf8c3","mask grid"," ","","","","","Ontogenetic_Distractor_Nonthreat_target","800","onmask","p","2","Ontogenetic","false","experimental"
"","null","html-keyboard-response","350","367199","0.0-15.0-0.6","hSdHdJPZH0","65d6ce10fbdaf41679cebe84","6617fad957f7c6a12ea16e26","6622cade065f433be3dbf8c3","fixation cross","null","","","","","","","","","","","",""
"","null","html-keyboard-response","351","368000","0.0-15.0-1.6","hSdHdJPZH0","65d6ce10fbdaf41679cebe84","6617fad957f7c6a12ea16e26","6622cade065f433be3dbf8c3","
        <div id=""grid-container"">
        <!-- Grid items will be dynamically added here -->
    </div>    ","null","","","","","","","","","","","",""
"","1304","html-keyboard-response","352","368505","0.0-15.0-2.6","hSdHdJPZH0","65d6ce10fbdaf41679cebe84","6617fad957f7c6a12ea16e26","6622cade065f433be3dbf8c3","mask grid","q","","","","","Ontogenetic_Distractor_Threat_target","800","onmask","q","9","Ontogenetic","true","experimental"
"","null","html-keyboard-response","353","369207","0.0-15.0-0.7","hSdHdJPZH0","65d6ce10fbdaf41679cebe84","6617fad957f7c6a12ea16e26","6622cade065f433be3dbf8c3","fixation cross","null","","","","","","","","","","","",""
"","658","html-keyboard-response","354","369865","0.0-15.0-1.7","hSdHdJPZH0","65d6ce10fbdaf41679cebe84","6617fad957f7c6a12ea16e26","6622cade065f433be3dbf8c3","image grid","q","","","","","Ontogenetic_Distractor_Threat_target","800","ongrid","q","6","Ontogenetic","true","experimental"
"","null","html-keyboard-response","355","370017","0.0-15.0-2.7","hSdHdJPZH0","65d6ce10fbdaf41679cebe84","6617fad957f7c6a12ea16e26","6622cade065f433be3dbf8c3","
    <div id=""grid-container"">
        <!-- Grid items will be dynamically added here -->
    </div>    ","null","","","","","","","","","","","",""
"","null","html-keyboard-response","356","370720","0.0-15.0-0.8","hSdHdJPZH0","65d6ce10fbdaf41679cebe84","6617fad957f7c6a12ea16e26","6622cade065f433be3dbf8c3","fixation cross","null","","","","","","","","","","","",""
"","null","html-keyboard-response","357","371523","0.0-15.0-1.8","hSdHdJPZH0","65d6ce10fbdaf41679cebe84","6617fad957f7c6a12ea16e26","6622cade065f433be3dbf8c3","
        <div id=""grid-container"">
        <!-- Grid items will be dynamically added here -->
    </div>    ","null","","","","","","","","","","","",""
"","1117","html-keyboard-response","358","371840","0.0-15.0-2.8","hSdHdJPZH0","65d6ce10fbdaf41679cebe84","6617fad957f7c6a12ea16e26","6622cade065f433be3dbf8c3","mask grid","p","","","","","Ontogenetic_Distractor_Nonthreat_target","800","onmask","p","6","Ontogenetic","true","experimental"
"","null","html-keyboard-response","359","372543","0.0-15.0-0.9","hSdHdJPZH0","65d6ce10fbdaf41679cebe84","6617fad957f7c6a12ea16e26","6622cade065f433be3dbf8c3","fixation cross","null","","","","","","","","","","","",""
"","null","html-keyboard-response","360","373345","0.0-15.0-1.9","hSdHdJPZH0","65d6ce10fbdaf41679cebe84","6617fad957f7c6a12ea16e26","6622cade065f433be3dbf8c3","
        <div id=""grid-container"">
        <!-- Grid items will be dynamically added here -->
    </div>    ","null","","","","","","","","","","","",""
"","1207","html-keyboard-response","361","373752","0.0-15.0-2.9","hSdHdJPZH0","65d6ce10fbdaf41679cebe84","6617fad957f7c6a12ea16e26","6622cade065f433be3dbf8c3","mask grid","p","","","","","Ontogenetic_Distractor_Nonthreat_target","800","onmask","p","4","Ontogenetic","true","experimental"
"","null","html-keyboard-response","362","374456","0.0-15.0-0.10","hSdHdJPZH0","65d6ce10fbdaf41679cebe84","6617fad957f7c6a12ea16e26","6622cade065f433be3dbf8c3","fixation cross","null","","","","","","","","","","","",""
"","728","html-keyboard-response","363","375184","0.0-15.0-1.10","hSdHdJPZH0","65d6ce10fbdaf41679cebe84","6617fad957f7c6a12ea16e26","6622cade065f433be3dbf8c3","image grid","q","","","","","Ontogenetic_Distractor_Threat_target","800","ongrid","q","5","Ontogenetic","true","experimental"
"","null","html-keyboard-response","364","375336","0.0-15.0-2.10","hSdHdJPZH0","65d6ce10fbdaf41679cebe84","6617fad957f7c6a12ea16e26","6622cade065f433be3dbf8c3","
    <div id=""grid-container"">
        <!-- Grid items will be dynamically added here -->
    </div>    ","null","","","","","","","","","","","",""
"","null","html-keyboard-response","365","376040","0.0-15.0-0.11","hSdHdJPZH0","65d6ce10fbdaf41679cebe84","6617fad957f7c6a12ea16e26","6622cade065f433be3dbf8c3","fixation cross","null","","","","","","","","","","","",""
"","null","html-keyboard-response","366","376842","0.0-15.0-1.11","hSdHdJPZH0","65d6ce10fbdaf41679cebe84","6617fad957f7c6a12ea16e26","6622cade065f433be3dbf8c3","
        <div id=""grid-container"">
        <!-- Grid items will be dynamically added here -->
    </div>    ","null","","","","","","","","","","","",""
"","2014","html-keyboard-response","367","378056","0.0-15.0-2.11","hSdHdJPZH0","65d6ce10fbdaf41679cebe84","6617fad957f7c6a12ea16e26","6622cade065f433be3dbf8c3","mask grid"," ","","","","","Ontogenetic_Distractor_notarget","800","onmask"," ","3","Ontogenetic","true","experimental"
"","null","html-keyboard-response","368","378760","0.0-15.0-0.12","hSdHdJPZH0","65d6ce10fbdaf41679cebe84","6617fad957f7c6a12ea16e26","6622cade065f433be3dbf8c3","fixation cross","null","","","","","","","","","","","",""
"","null","html-keyboard-response","369","379561","0.0-15.0-1.12","hSdHdJPZH0","65d6ce10fbdaf41679cebe84","6617fad957f7c6a12ea16e26","6622cade065f433be3dbf8c3","
        <div id=""grid-container"">
        <!-- Grid items will be dynamically added here -->
    </div>    ","null","","","","","","","","","","","",""
