"success","rt","trial_type","trial_index","time_elapsed","internal_node_id","unique_identifier","subject_id","study_id","session_id","stimulus","response","timeout","failed_images","failed_audio","failed_video","task","time_manipulation","respondedwhen","correctresponse","targetimagelocation","blocktype","correct","roundtype"
"true","3541","fullscreen","0","4649","0.0-0.0","HLE1Ar9WiR","63d7c8b24017a56bcc3affe2","6617fad957f7c6a12ea16e26","6622cb6cd644ca17359f54f3","","","","","","","","","","","","","",""
"","7388","html-keyboard-response","1","12140","0.0-1.0","HLE1Ar9WiR","63d7c8b24017a56bcc3affe2","6617fad957f7c6a12ea16e26","6622cb6cd644ca17359f54f3","instruction screen 0"," ","","","","","","","","","","","",""
"true","","preload","2","26141","0.0-2.0","HLE1Ar9WiR","63d7c8b24017a56bcc3affe2","6617fad957f7c6a12ea16e26","6622cb6cd644ca17359f54f3","","","false","[]","[]","[]","","","","","","","",""
"","8311","html-keyboard-response","3","34458","0.0-3.0","HLE1Ar9WiR","63d7c8b24017a56bcc3affe2","6617fad957f7c6a12ea16e26","6622cb6cd644ca17359f54f3","instruction screen 1"," ","","","","","","","","","","","",""
"","6736","html-keyboard-response","4","41201","0.0-4.0","HLE1Ar9WiR","63d7c8b24017a56bcc3affe2","6617fad957f7c6a12ea16e26","6622cb6cd644ca17359f54f3","instruction screen 2","q","","","","","","","","","","","",""
"","4252","html-keyboard-response","5","45459","0.0-5.0","HLE1Ar9WiR","63d7c8b24017a56bcc3affe2","6617fad957f7c6a12ea16e26","6622cb6cd644ca17359f54f3","instruction screen 3","p","","","","","","","","","","","",""
"","9036","html-keyboard-response","6","54501","0.0-6.0","HLE1Ar9WiR","63d7c8b24017a56bcc3affe2","6617fad957f7c6a12ea16e26","6622cb6cd644ca17359f54f3","instruction screen 4"," ","","","","","","","","","","","",""
"","14797","html-keyboard-response","7","69305","0.0-7.0","HLE1Ar9WiR","63d7c8b24017a56bcc3affe2","6617fad957f7c6a12ea16e26","6622cb6cd644ca17359f54f3","instruction screen 5"," ","","","","","","","","","","","",""
"","null","html-keyboard-response","8","69878","0.0-8.0","HLE1Ar9WiR","63d7c8b24017a56bcc3affe2","6617fad957f7c6a12ea16e26","6622cb6cd644ca17359f54f3","fixation cross","null","","","","","","","","","","","",""
"","null","html-keyboard-response","9","70390","0.0-9.0-0.0","HLE1Ar9WiR","63d7c8b24017a56bcc3affe2","6617fad957f7c6a12ea16e26","6622cb6cd644ca17359f54f3","fixation cross","null","","","","","","","","","","","",""
"","2312","html-keyboard-response","10","72720","0.0-9.0-1.0","HLE1Ar9WiR","63d7c8b24017a56bcc3affe2","6617fad957f7c6a12ea16e26","6622cb6cd644ca17359f54f3","image grid","p","","","","","Phylogenetic_Distractor_Nonthreat_target","3000","ongrid","p","6","Ontogenetic","true","practice"
"","null","html-keyboard-response","11","72879","0.0-9.0-2.0","HLE1Ar9WiR","63d7c8b24017a56bcc3affe2","6617fad957f7c6a12ea16e26","6622cb6cd644ca17359f54f3","
    <div id=""grid-container"">
        <!-- Grid items will be dynamically added here -->
    </div>    ","null","","","","","","","","","","","",""
"","null","html-keyboard-response","12","74110","0.0-9.0-3.0","HLE1Ar9WiR","63d7c8b24017a56bcc3affe2","6617fad957f7c6a12ea16e26","6622cb6cd644ca17359f54f3","feedback screen","null","","","","","","","","","","","",""
"","null","html-keyboard-response","13","74748","0.0-9.0-0.1","HLE1Ar9WiR","63d7c8b24017a56bcc3affe2","6617fad957f7c6a12ea16e26","6622cb6cd644ca17359f54f3","fixation cross","null","","","","","","","","","","","",""
"","1131","html-keyboard-response","14","75879","0.0-9.0-1.1","HLE1Ar9WiR","63d7c8b24017a56bcc3affe2","6617fad957f7c6a12ea16e26","6622cb6cd644ca17359f54f3","image grid","q","","","","","Ontogenetic_Distractor_Threat_target","2900","ongrid","q","1","Ontogenetic","true","practice"
"","null","html-keyboard-response","15","76034","0.0-9.0-2.1","HLE1Ar9WiR","63d7c8b24017a56bcc3affe2","6617fad957f7c6a12ea16e26","6622cb6cd644ca17359f54f3","
    <div id=""grid-container"">
        <!-- Grid items will be dynamically added here -->
    </div>    ","null","","","","","","","","","","","",""
"","null","html-keyboard-response","16","77334","0.0-9.0-3.1","HLE1Ar9WiR","63d7c8b24017a56bcc3affe2","6617fad957f7c6a12ea16e26","6622cb6cd644ca17359f54f3","feedback screen","null","","","","","","","","","","","",""
"","null","html-keyboard-response","17","77854","0.0-9.0-0.2","HLE1Ar9WiR","63d7c8b24017a56bcc3affe2","6617fad957f7c6a12ea16e26","6622cb6cd644ca17359f54f3","fixation cross","null","","","","","","","","","","","",""
"","1712","html-keyboard-response","18","79567","0.0-9.0-1.2","HLE1Ar9WiR","63d7c8b24017a56bcc3affe2","6617fad957f7c6a12ea16e26","6622cb6cd644ca17359f54f3","image grid","q","","","","","Phylogenetic_Distractor_Threat_target","2800","ongrid","q","8","Ontogenetic","true","practice"
"","null","html-keyboard-response","19","79731","0.0-9.0-2.2","HLE1Ar9WiR","63d7c8b24017a56bcc3affe2","6617fad957f7c6a12ea16e26","6622cb6cd644ca17359f54f3","
    <div id=""grid-container"">
        <!-- Grid items will be dynamically added here -->
    </div>    ","null","","","","","","","","","","","",""
"","null","html-keyboard-response","20","81513","0.0-9.0-3.2","HLE1Ar9WiR","63d7c8b24017a56bcc3affe2","6617fad957f7c6a12ea16e26","6622cb6cd644ca17359f54f3","feedback screen","null","","","","","","","","","","","",""
"","null","html-keyboard-response","21","82032","0.0-9.0-0.3","HLE1Ar9WiR","63d7c8b24017a56bcc3affe2","6617fad957f7c6a12ea16e26","6622cb6cd644ca17359f54f3","fixation cross","null","","","","","","","","","","","",""
"","1278","html-keyboard-response","22","83311","0.0-9.0-1.3","HLE1Ar9WiR","63d7c8b24017a56bcc3affe2","6617fad957f7c6a12ea16e26","6622cb6cd644ca17359f54f3","image grid","p","","","","","Ontogenetic_Distractor_Nonthreat_target","2700","ongrid","p","9","Ontogenetic","true","practice"
"","null","html-keyboard-response","23","83471","0.0-9.0-2.3","HLE1Ar9WiR","63d7c8b24017a56bcc3affe2","6617fad957f7c6a12ea16e26","6622cb6cd644ca17359f54f3","
    <div id=""grid-container"">
        <!-- Grid items will be dynamically added here -->
    </div>    ","null","","","","","","","","","","","",""
"","null","html-keyboard-response","24","84887","0.0-9.0-3.3","HLE1Ar9WiR","63d7c8b24017a56bcc3affe2","6617fad957f7c6a12ea16e26","6622cb6cd644ca17359f54f3","feedback screen","null","","","","","","","","","","","",""
"","null","html-keyboard-response","25","85425","0.0-9.0-0.4","HLE1Ar9WiR","63d7c8b24017a56bcc3affe2","6617fad957f7c6a12ea16e26","6622cb6cd644ca17359f54f3","fixation cross","null","","","","","","","","","","","",""
"","2146","html-keyboard-response","26","87572","0.0-9.0-1.4","HLE1Ar9WiR","63d7c8b24017a56bcc3affe2","6617fad957f7c6a12ea16e26","6622cb6cd644ca17359f54f3","image grid","p","","","","","Ontogenetic_Distractor_notarget","2600","ongrid"," ","9","Ontogenetic","false","practice"
"","null","html-keyboard-response","27","88665","0.0-9.0-2.4","HLE1Ar9WiR","63d7c8b24017a56bcc3affe2","6617fad957f7c6a12ea16e26","6622cb6cd644ca17359f54f3","
    <div id=""grid-container"">
        <!-- Grid items will be dynamically added here -->
    </div>    ","null","","","","","","","","","","","",""
"","null","html-keyboard-response","28","89896","0.0-9.0-3.4","HLE1Ar9WiR","63d7c8b24017a56bcc3affe2","6617fad957f7c6a12ea16e26","6622cb6cd644ca17359f54f3","feedback screen","null","","","","","","","","","","","",""
"","null","html-keyboard-response","29","90460","0.0-9.0-0.5","HLE1Ar9WiR","63d7c8b24017a56bcc3affe2","6617fad957f7c6a12ea16e26","6622cb6cd644ca17359f54f3","fixation cross","null","","","","","","","","","","","",""
"","1209","html-keyboard-response","30","91670","0.0-9.0-1.5","HLE1Ar9WiR","63d7c8b24017a56bcc3affe2","6617fad957f7c6a12ea16e26","6622cb6cd644ca17359f54f3","image grid","p","","","","","Ontogenetic_Distractor_Nonthreat_target","2500","ongrid","p","2","Ontogenetic","true","practice"
"","null","html-keyboard-response","31","91836","0.0-9.0-2.5","HLE1Ar9WiR","63d7c8b24017a56bcc3affe2","6617fad957f7c6a12ea16e26","6622cb6cd644ca17359f54f3","
    <div id=""grid-container"">
        <!-- Grid items will be dynamically added here -->
    </div>    ","null","","","","","","","","","","","",""
"","null","html-keyboard-response","32","93066","0.0-9.0-3.5","HLE1Ar9WiR","63d7c8b24017a56bcc3affe2","6617fad957f7c6a12ea16e26","6622cb6cd644ca17359f54f3","feedback screen","null","","","","","","","","","","","",""
"","null","html-keyboard-response","33","93871","0.0-9.0-0.6","HLE1Ar9WiR","63d7c8b24017a56bcc3affe2","6617fad957f7c6a12ea16e26","6622cb6cd644ca17359f54f3","fixation cross","null","","","","","","","","","","","",""
"","1090","html-keyboard-response","34","94961","0.0-9.0-1.6","HLE1Ar9WiR","63d7c8b24017a56bcc3affe2","6617fad957f7c6a12ea16e26","6622cb6cd644ca17359f54f3","image grid","p","","","","","Ontogenetic_Distractor_Nonthreat_target","2400","ongrid","p","6","Ontogenetic","true","practice"
"","null","html-keyboard-response","35","95120","0.0-9.0-2.6","HLE1Ar9WiR","63d7c8b24017a56bcc3affe2","6617fad957f7c6a12ea16e26","6622cb6cd644ca17359f54f3","
    <div id=""grid-container"">
        <!-- Grid items will be dynamically added here -->
    </div>    ","null","","","","","","","","","","","",""
"","null","html-keyboard-response","36","96383","0.0-9.0-3.6","HLE1Ar9WiR","63d7c8b24017a56bcc3affe2","6617fad957f7c6a12ea16e26","6622cb6cd644ca17359f54f3","feedback screen","null","","","","","","","","","","","",""
"","null","html-keyboard-response","37","97104","0.0-9.0-0.7","HLE1Ar9WiR","63d7c8b24017a56bcc3affe2","6617fad957f7c6a12ea16e26","6622cb6cd644ca17359f54f3","fixation cross","null","","","","","","","","","","","",""
"","1726","html-keyboard-response","38","98832","0.0-9.0-1.7","HLE1Ar9WiR","63d7c8b24017a56bcc3affe2","6617fad957f7c6a12ea16e26","6622cb6cd644ca17359f54f3","image grid","p","","","","","Phylogenetic_Distractor_Threat_target","2300","ongrid","q","5","Ontogenetic","false","practice"
"","null","html-keyboard-response","39","99017","0.0-9.0-2.7","HLE1Ar9WiR","63d7c8b24017a56bcc3affe2","6617fad957f7c6a12ea16e26","6622cb6cd644ca17359f54f3","
    <div id=""grid-container"">
        <!-- Grid items will be dynamically added here -->
    </div>    ","null","","","","","","","","","","","",""
"","null","html-keyboard-response","40","100321","0.0-9.0-3.7","HLE1Ar9WiR","63d7c8b24017a56bcc3affe2","6617fad957f7c6a12ea16e26","6622cb6cd644ca17359f54f3","feedback screen","null","","","","","","","","","","","",""
"","null","html-keyboard-response","41","100852","0.0-9.0-0.8","HLE1Ar9WiR","63d7c8b24017a56bcc3affe2","6617fad957f7c6a12ea16e26","6622cb6cd644ca17359f54f3","fixation cross","null","","","","","","","","","","","",""
"","null","html-keyboard-response","42","103073","0.0-9.0-1.8","HLE1Ar9WiR","63d7c8b24017a56bcc3affe2","6617fad957f7c6a12ea16e26","6622cb6cd644ca17359f54f3","
        <div id=""grid-container"">
        <!-- Grid items will be dynamically added here -->
    </div>    ","null","","","","","","","","","","","",""
"","2216","html-keyboard-response","43","103089","0.0-9.0-2.8","HLE1Ar9WiR","63d7c8b24017a56bcc3affe2","6617fad957f7c6a12ea16e26","6622cb6cd644ca17359f54f3","mask grid"," ","","","","","Phylogenetic_Distractor_Nonthreat_target","2200","onmask","p","7","Ontogenetic","false","practice"
"","null","html-keyboard-response","44","104308","0.0-9.0-3.8","HLE1Ar9WiR","63d7c8b24017a56bcc3affe2","6617fad957f7c6a12ea16e26","6622cb6cd644ca17359f54f3","feedback screen","null","","","","","","","","","","","",""
"","null","html-keyboard-response","45","104825","0.0-9.0-0.9","HLE1Ar9WiR","63d7c8b24017a56bcc3affe2","6617fad957f7c6a12ea16e26","6622cb6cd644ca17359f54f3","fixation cross","null","","","","","","","","","","","",""
"","1523","html-keyboard-response","46","106350","0.0-9.0-1.9","HLE1Ar9WiR","63d7c8b24017a56bcc3affe2","6617fad957f7c6a12ea16e26","6622cb6cd644ca17359f54f3","image grid","q","","","","","Ontogenetic_Distractor_Threat_target","2100","ongrid","q","3","Ontogenetic","true","practice"
"","null","html-keyboard-response","47","106572","0.0-9.0-2.9","HLE1Ar9WiR","63d7c8b24017a56bcc3affe2","6617fad957f7c6a12ea16e26","6622cb6cd644ca17359f54f3","
    <div id=""grid-container"">
        <!-- Grid items will be dynamically added here -->
    </div>    ","null","","","","","","","","","","","",""
"","null","html-keyboard-response","48","107926","0.0-9.0-3.9","HLE1Ar9WiR","63d7c8b24017a56bcc3affe2","6617fad957f7c6a12ea16e26","6622cb6cd644ca17359f54f3","feedback screen","null","","","","","","","","","","","",""
"","null","html-keyboard-response","49","108434","0.0-9.0-0.10","HLE1Ar9WiR","63d7c8b24017a56bcc3affe2","6617fad957f7c6a12ea16e26","6622cb6cd644ca17359f54f3","fixation cross","null","","","","","","","","","","","",""
"","null","html-keyboard-response","50","110438","0.0-9.0-1.10","HLE1Ar9WiR","63d7c8b24017a56bcc3affe2","6617fad957f7c6a12ea16e26","6622cb6cd644ca17359f54f3","
        <div id=""grid-container"">
        <!-- Grid items will be dynamically added here -->
    </div>    ","null","","","","","","","","","","","",""
"","2538","html-keyboard-response","51","110977","0.0-9.0-2.10","HLE1Ar9WiR","63d7c8b24017a56bcc3affe2","6617fad957f7c6a12ea16e26","6622cb6cd644ca17359f54f3","mask grid","q","","","","","Phylogenetic_Distractor_Threat_target","2000","onmask","q","5","Ontogenetic","true","practice"
"","null","html-keyboard-response","52","112216","0.0-9.0-3.10","HLE1Ar9WiR","63d7c8b24017a56bcc3affe2","6617fad957f7c6a12ea16e26","6622cb6cd644ca17359f54f3","feedback screen","null","","","","","","","","","","","",""
"","null","html-keyboard-response","53","112735","0.0-9.0-0.11","HLE1Ar9WiR","63d7c8b24017a56bcc3affe2","6617fad957f7c6a12ea16e26","6622cb6cd644ca17359f54f3","fixation cross","null","","","","","","","","","","","",""
"","1083","html-keyboard-response","54","113818","0.0-9.0-1.11","HLE1Ar9WiR","63d7c8b24017a56bcc3affe2","6617fad957f7c6a12ea16e26","6622cb6cd644ca17359f54f3","image grid","q","","","","","Ontogenetic_Distractor_Threat_target","1900","ongrid","q","5","Ontogenetic","true","practice"
"","null","html-keyboard-response","55","113974","0.0-9.0-2.11","HLE1Ar9WiR","63d7c8b24017a56bcc3affe2","6617fad957f7c6a12ea16e26","6622cb6cd644ca17359f54f3","
    <div id=""grid-container"">
        <!-- Grid items will be dynamically added here -->
    </div>    ","null","","","","","","","","","","","",""
"","null","html-keyboard-response","56","115200","0.0-9.0-3.11","HLE1Ar9WiR","63d7c8b24017a56bcc3affe2","6617fad957f7c6a12ea16e26","6622cb6cd644ca17359f54f3","feedback screen","null","","","","","","","","","","","",""
"","null","html-keyboard-response","57","115717","0.0-9.0-0.12","HLE1Ar9WiR","63d7c8b24017a56bcc3affe2","6617fad957f7c6a12ea16e26","6622cb6cd644ca17359f54f3","fixation cross","null","","","","","","","","","","","",""
"","1561","html-keyboard-response","58","117279","0.0-9.0-1.12","HLE1Ar9WiR","63d7c8b24017a56bcc3affe2","6617fad957f7c6a12ea16e26","6622cb6cd644ca17359f54f3","image grid","p","","","","","Phylogenetic_Distractor_Nonthreat_target","1800","ongrid","p","2","Ontogenetic","true","practice"
"","null","html-keyboard-response","59","117432","0.0-9.0-2.12","HLE1Ar9WiR","63d7c8b24017a56bcc3affe2","6617fad957f7c6a12ea16e26","6622cb6cd644ca17359f54f3","
    <div id=""grid-container"">
        <!-- Grid items will be dynamically added here -->
    </div>    ","null","","","","","","","","","","","",""
"","null","html-keyboard-response","60","118764","0.0-9.0-3.12","HLE1Ar9WiR","63d7c8b24017a56bcc3affe2","6617fad957f7c6a12ea16e26","6622cb6cd644ca17359f54f3","feedback screen","null","","","","","","","","","","","",""
"","null","html-keyboard-response","61","119338","0.0-9.0-0.13","HLE1Ar9WiR","63d7c8b24017a56bcc3affe2","6617fad957f7c6a12ea16e26","6622cb6cd644ca17359f54f3","fixation cross","null","","","","","","","","","","","",""
"","null","html-keyboard-response","62","121056","0.0-9.0-1.13","HLE1Ar9WiR","63d7c8b24017a56bcc3affe2","6617fad957f7c6a12ea16e26","6622cb6cd644ca17359f54f3","
        <div id=""grid-container"">
        <!-- Grid items will be dynamically added here -->
    </div>    ","null","","","","","","","","","","","",""
"","2283","html-keyboard-response","63","121640","0.0-9.0-2.13","HLE1Ar9WiR","63d7c8b24017a56bcc3affe2","6617fad957f7c6a12ea16e26","6622cb6cd644ca17359f54f3","mask grid","p","","","","","Phylogenetic_Distractor_Nonthreat_target","1700","onmask","p","3","Ontogenetic","true","practice"
"","null","html-keyboard-response","64","122866","0.0-9.0-3.13","HLE1Ar9WiR","63d7c8b24017a56bcc3affe2","6617fad957f7c6a12ea16e26","6622cb6cd644ca17359f54f3","feedback screen","null","","","","","","","","","","","",""
"","null","html-keyboard-response","65","123450","0.0-9.0-0.14","HLE1Ar9WiR","63d7c8b24017a56bcc3affe2","6617fad957f7c6a12ea16e26","6622cb6cd644ca17359f54f3","fixation cross","null","","","","","","","","","","","",""
"","1153","html-keyboard-response","66","124604","0.0-9.0-1.14","HLE1Ar9WiR","63d7c8b24017a56bcc3affe2","6617fad957f7c6a12ea16e26","6622cb6cd644ca17359f54f3","image grid"," ","","","","","Ontogenetic_Distractor_notarget","1600","ongrid"," ","4","Ontogenetic","true","practice"
"","null","html-keyboard-response","67","124809","0.0-9.0-2.14","HLE1Ar9WiR","63d7c8b24017a56bcc3affe2","6617fad957f7c6a12ea16e26","6622cb6cd644ca17359f54f3","
    <div id=""grid-container"">
        <!-- Grid items will be dynamically added here -->
    </div>    ","null","","","","","","","","","","","",""
"","null","html-keyboard-response","68","126149","0.0-9.0-3.14","HLE1Ar9WiR","63d7c8b24017a56bcc3affe2","6617fad957f7c6a12ea16e26","6622cb6cd644ca17359f54f3","feedback screen","null","","","","","","","","","","","",""
"","null","html-keyboard-response","69","126690","0.0-9.0-0.15","HLE1Ar9WiR","63d7c8b24017a56bcc3affe2","6617fad957f7c6a12ea16e26","6622cb6cd644ca17359f54f3","fixation cross","null","","","","","","","","","","","",""
"","null","html-keyboard-response","70","128203","0.0-9.0-1.15","HLE1Ar9WiR","63d7c8b24017a56bcc3affe2","6617fad957f7c6a12ea16e26","6622cb6cd644ca17359f54f3","
        <div id=""grid-container"">
        <!-- Grid items will be dynamically added here -->
    </div>    ","null","","","","","","","","","","","",""
"","1839","html-keyboard-response","71","128543","0.0-9.0-2.15","HLE1Ar9WiR","63d7c8b24017a56bcc3affe2","6617fad957f7c6a12ea16e26","6622cb6cd644ca17359f54f3","mask grid","p","","","","","Phylogenetic_Distractor_Threat_target","1500","onmask","q","7","Ontogenetic","false","practice"
"","null","html-keyboard-response","72","129760","0.0-9.0-3.15","HLE1Ar9WiR","63d7c8b24017a56bcc3affe2","6617fad957f7c6a12ea16e26","6622cb6cd644ca17359f54f3","feedback screen","null","","","","","","","","","","","",""
"","null","html-keyboard-response","73","130273","0.0-9.0-0.16","HLE1Ar9WiR","63d7c8b24017a56bcc3affe2","6617fad957f7c6a12ea16e26","6622cb6cd644ca17359f54f3","fixation cross","null","","","","","","","","","","","",""
"","942","html-keyboard-response","74","131218","0.0-9.0-1.16","HLE1Ar9WiR","63d7c8b24017a56bcc3affe2","6617fad957f7c6a12ea16e26","6622cb6cd644ca17359f54f3","image grid","p","","","","","Ontogenetic_Distractor_Nonthreat_target","1400","ongrid","p","3","Ontogenetic","true","practice"
"","null","html-keyboard-response","75","131373","0.0-9.0-2.16","HLE1Ar9WiR","63d7c8b24017a56bcc3affe2","6617fad957f7c6a12ea16e26","6622cb6cd644ca17359f54f3","
    <div id=""grid-container"">
        <!-- Grid items will be dynamically added here -->
    </div>    ","null","","","","","","","","","","","",""
"","null","html-keyboard-response","76","132600","0.0-9.0-3.16","HLE1Ar9WiR","63d7c8b24017a56bcc3affe2","6617fad957f7c6a12ea16e26","6622cb6cd644ca17359f54f3","feedback screen","null","","","","","","","","","","","",""
"","null","html-keyboard-response","77","133150","0.0-9.0-0.17","HLE1Ar9WiR","63d7c8b24017a56bcc3affe2","6617fad957f7c6a12ea16e26","6622cb6cd644ca17359f54f3","fixation cross","null","","","","","","","","","","","",""
"","1014","html-keyboard-response","78","134165","0.0-9.0-1.17","HLE1Ar9WiR","63d7c8b24017a56bcc3affe2","6617fad957f7c6a12ea16e26","6622cb6cd644ca17359f54f3","image grid"," ","","","","","Phylogenetic_Distractor_notarget","1300","ongrid"," ","9","Ontogenetic","true","practice"
"","null","html-keyboard-response","79","134344","0.0-9.0-2.17","HLE1Ar9WiR","63d7c8b24017a56bcc3affe2","6617fad957f7c6a12ea16e26","6622cb6cd644ca17359f54f3","
    <div id=""grid-container"">
        <!-- Grid items will be dynamically added here -->
    </div>    ","null","","","","","","","","","","","",""
"","null","html-keyboard-response","80","135553","0.0-9.0-3.17","HLE1Ar9WiR","63d7c8b24017a56bcc3affe2","6617fad957f7c6a12ea16e26","6622cb6cd644ca17359f54f3","feedback screen","null","","","","","","","","","","","",""
"","null","html-keyboard-response","81","136086","0.0-9.0-0.18","HLE1Ar9WiR","63d7c8b24017a56bcc3affe2","6617fad957f7c6a12ea16e26","6622cb6cd644ca17359f54f3","fixation cross","null","","","","","","","","","","","",""
"","1186","html-keyboard-response","82","137273","0.0-9.0-1.18","HLE1Ar9WiR","63d7c8b24017a56bcc3affe2","6617fad957f7c6a12ea16e26","6622cb6cd644ca17359f54f3","image grid"," ","","","","","Phylogenetic_Distractor_notarget","1200","ongrid"," ","7","Ontogenetic","true","practice"
"","null","html-keyboard-response","83","137452","0.0-9.0-2.18","HLE1Ar9WiR","63d7c8b24017a56bcc3affe2","6617fad957f7c6a12ea16e26","6622cb6cd644ca17359f54f3","
    <div id=""grid-container"">
        <!-- Grid items will be dynamically added here -->
    </div>    ","null","","","","","","","","","","","",""
"","null","html-keyboard-response","84","138711","0.0-9.0-3.18","HLE1Ar9WiR","63d7c8b24017a56bcc3affe2","6617fad957f7c6a12ea16e26","6622cb6cd644ca17359f54f3","feedback screen","null","","","","","","","","","","","",""
"","null","html-keyboard-response","85","139222","0.0-9.0-0.19","HLE1Ar9WiR","63d7c8b24017a56bcc3affe2","6617fad957f7c6a12ea16e26","6622cb6cd644ca17359f54f3","fixation cross","null","","","","","","","","","","","",""
"","928","html-keyboard-response","86","140152","0.0-9.0-1.19","HLE1Ar9WiR","63d7c8b24017a56bcc3affe2","6617fad957f7c6a12ea16e26","6622cb6cd644ca17359f54f3","image grid","q","","","","","Ontogenetic_Distractor_Threat_target","1100","ongrid","q","3","Ontogenetic","true","practice"
"","null","html-keyboard-response","87","140314","0.0-9.0-2.19","HLE1Ar9WiR","63d7c8b24017a56bcc3affe2","6617fad957f7c6a12ea16e26","6622cb6cd644ca17359f54f3","
    <div id=""grid-container"">
        <!-- Grid items will be dynamically added here -->
    </div>    ","null","","","","","","","","","","","",""
"","null","html-keyboard-response","88","141531","0.0-9.0-3.19","HLE1Ar9WiR","63d7c8b24017a56bcc3affe2","6617fad957f7c6a12ea16e26","6622cb6cd644ca17359f54f3","feedback screen","null","","","","","","","","","","","",""
"","8985","html-keyboard-response","89","150588","0.0-10.0","HLE1Ar9WiR","63d7c8b24017a56bcc3affe2","6617fad957f7c6a12ea16e26","6622cb6cd644ca17359f54f3","pre-experimental_briefing"," ","","","","","","","","","","","",""
"","null","html-keyboard-response","90","153194","0.0-11.0-0.0","HLE1Ar9WiR","63d7c8b24017a56bcc3affe2","6617fad957f7c6a12ea16e26","6622cb6cd644ca17359f54f3","fixation cross","null","","","","","","","","","","","",""
"","null","html-keyboard-response","91","153997","0.0-11.0-1.0","HLE1Ar9WiR","63d7c8b24017a56bcc3affe2","6617fad957f7c6a12ea16e26","6622cb6cd644ca17359f54f3","
        <div id=""grid-container"">
        <!-- Grid items will be dynamically added here -->
    </div>    ","null","","","","","","","","","","","",""
"","1595","html-keyboard-response","92","154793","0.0-11.0-2.0","HLE1Ar9WiR","63d7c8b24017a56bcc3affe2","6617fad957f7c6a12ea16e26","6622cb6cd644ca17359f54f3","mask grid","p","","","","","Ontogenetic_Distractor_Threat_target","800","onmask","q","4","Ontogenetic","false","experimental"
"","null","html-keyboard-response","93","155516","0.0-11.0-0.1","HLE1Ar9WiR","63d7c8b24017a56bcc3affe2","6617fad957f7c6a12ea16e26","6622cb6cd644ca17359f54f3","fixation cross","null","","","","","","","","","","","",""
"","null","html-keyboard-response","94","156378","0.0-11.0-1.1","HLE1Ar9WiR","63d7c8b24017a56bcc3affe2","6617fad957f7c6a12ea16e26","6622cb6cd644ca17359f54f3","
        <div id=""grid-container"">
        <!-- Grid items will be dynamically added here -->
    </div>    ","null","","","","","","","","","","","",""
"","1026","html-keyboard-response","95","156605","0.0-11.0-2.1","HLE1Ar9WiR","63d7c8b24017a56bcc3affe2","6617fad957f7c6a12ea16e26","6622cb6cd644ca17359f54f3","mask grid","p","","","","","Ontogenetic_Distractor_Nonthreat_target","800","onmask","p","4","Ontogenetic","true","experimental"
"","159","html-keyboard-response","96","157355","0.0-11.0-0.2","HLE1Ar9WiR","63d7c8b24017a56bcc3affe2","6617fad957f7c6a12ea16e26","6622cb6cd644ca17359f54f3","fixation cross"," ","","","","","","","","","","","",""
"","null","html-keyboard-response","97","158170","0.0-11.0-1.2","HLE1Ar9WiR","63d7c8b24017a56bcc3affe2","6617fad957f7c6a12ea16e26","6622cb6cd644ca17359f54f3","
        <div id=""grid-container"">
        <!-- Grid items will be dynamically added here -->
    </div>    ","null","","","","","","","","","","","",""
"","923","html-keyboard-response","98","158294","0.0-11.0-2.2","HLE1Ar9WiR","63d7c8b24017a56bcc3affe2","6617fad957f7c6a12ea16e26","6622cb6cd644ca17359f54f3","mask grid","q","","","","","Ontogenetic_Distractor_Threat_target","800","onmask","q","4","Ontogenetic","true","experimental"
"","null","html-keyboard-response","99","159040","0.0-11.0-0.3","HLE1Ar9WiR","63d7c8b24017a56bcc3affe2","6617fad957f7c6a12ea16e26","6622cb6cd644ca17359f54f3","fixation cross","null","","","","","","","","","","","",""
"","null","html-keyboard-response","100","159847","0.0-11.0-1.3","HLE1Ar9WiR","63d7c8b24017a56bcc3affe2","6617fad957f7c6a12ea16e26","6622cb6cd644ca17359f54f3","
        <div id=""grid-container"">
        <!-- Grid items will be dynamically added here -->
    </div>    ","null","","","","","","","","","","","",""
"","931","html-keyboard-response","101","159979","0.0-11.0-2.3","HLE1Ar9WiR","63d7c8b24017a56bcc3affe2","6617fad957f7c6a12ea16e26","6622cb6cd644ca17359f54f3","mask grid"," ","","","","","Ontogenetic_Distractor_Threat_target","800","onmask","q","7","Ontogenetic","false","experimental"
"","null","html-keyboard-response","102","160706","0.0-11.0-0.4","HLE1Ar9WiR","63d7c8b24017a56bcc3affe2","6617fad957f7c6a12ea16e26","6622cb6cd644ca17359f54f3","fixation cross","null","","","","","","","","","","","",""
"","null","html-keyboard-response","103","161519","0.0-11.0-1.4","HLE1Ar9WiR","63d7c8b24017a56bcc3affe2","6617fad957f7c6a12ea16e26","6622cb6cd644ca17359f54f3","
        <div id=""grid-container"">
        <!-- Grid items will be dynamically added here -->
    </div>    ","null","","","","","","","","","","","",""
"","924","html-keyboard-response","104","161644","0.0-11.0-2.4","HLE1Ar9WiR","63d7c8b24017a56bcc3affe2","6617fad957f7c6a12ea16e26","6622cb6cd644ca17359f54f3","mask grid"," ","","","","","Ontogenetic_Distractor_Nonthreat_target","800","onmask","p","8","Ontogenetic","false","experimental"
"","null","html-keyboard-response","105","162361","0.0-11.0-0.5","HLE1Ar9WiR","63d7c8b24017a56bcc3affe2","6617fad957f7c6a12ea16e26","6622cb6cd644ca17359f54f3","fixation cross","null","","","","","","","","","","","",""
"","null","html-keyboard-response","106","163175","0.0-11.0-1.5","HLE1Ar9WiR","63d7c8b24017a56bcc3affe2","6617fad957f7c6a12ea16e26","6622cb6cd644ca17359f54f3","
        <div id=""grid-container"">
        <!-- Grid items will be dynamically added here -->
    </div>    ","null","","","","","","","","","","","",""
"","1017","html-keyboard-response","107","163393","0.0-11.0-2.5","HLE1Ar9WiR","63d7c8b24017a56bcc3affe2","6617fad957f7c6a12ea16e26","6622cb6cd644ca17359f54f3","mask grid","q","","","","","Ontogenetic_Distractor_Threat_target","800","onmask","q","6","Ontogenetic","true","experimental"
"","null","html-keyboard-response","108","164120","0.0-11.0-0.6","HLE1Ar9WiR","63d7c8b24017a56bcc3affe2","6617fad957f7c6a12ea16e26","6622cb6cd644ca17359f54f3","fixation cross","null","","","","","","","","","","","",""
"","null","html-keyboard-response","109","164931","0.0-11.0-1.6","HLE1Ar9WiR","63d7c8b24017a56bcc3affe2","6617fad957f7c6a12ea16e26","6622cb6cd644ca17359f54f3","
        <div id=""grid-container"">
        <!-- Grid items will be dynamically added here -->
    </div>    ","null","","","","","","","","","","","",""
"","1191","html-keyboard-response","110","165325","0.0-11.0-2.6","HLE1Ar9WiR","63d7c8b24017a56bcc3affe2","6617fad957f7c6a12ea16e26","6622cb6cd644ca17359f54f3","mask grid"," ","","","","","Ontogenetic_Distractor_notarget","800","onmask"," ","5","Ontogenetic","true","experimental"
"","null","html-keyboard-response","111","166052","0.0-11.0-0.7","HLE1Ar9WiR","63d7c8b24017a56bcc3affe2","6617fad957f7c6a12ea16e26","6622cb6cd644ca17359f54f3","fixation cross","null","","","","","","","","","","","",""
"","null","html-keyboard-response","112","166865","0.0-11.0-1.7","HLE1Ar9WiR","63d7c8b24017a56bcc3affe2","6617fad957f7c6a12ea16e26","6622cb6cd644ca17359f54f3","
        <div id=""grid-container"">
        <!-- Grid items will be dynamically added here -->
    </div>    ","null","","","","","","","","","","","",""
"","1037","html-keyboard-response","113","167103","0.0-11.0-2.7","HLE1Ar9WiR","63d7c8b24017a56bcc3affe2","6617fad957f7c6a12ea16e26","6622cb6cd644ca17359f54f3","mask grid","p","","","","","Ontogenetic_Distractor_Nonthreat_target","800","onmask","p","2","Ontogenetic","true","experimental"
"","null","html-keyboard-response","114","167834","0.0-11.0-0.8","HLE1Ar9WiR","63d7c8b24017a56bcc3affe2","6617fad957f7c6a12ea16e26","6622cb6cd644ca17359f54f3","fixation cross","null","","","","","","","","","","","",""
"","null","html-keyboard-response","115","168642","0.0-11.0-1.8","HLE1Ar9WiR","63d7c8b24017a56bcc3affe2","6617fad957f7c6a12ea16e26","6622cb6cd644ca17359f54f3","
        <div id=""grid-container"">
        <!-- Grid items will be dynamically added here -->
    </div>    ","null","","","","","","","","","","","",""
"","996","html-keyboard-response","116","168839","0.0-11.0-2.8","HLE1Ar9WiR","63d7c8b24017a56bcc3affe2","6617fad957f7c6a12ea16e26","6622cb6cd644ca17359f54f3","mask grid","q","","","","","Ontogenetic_Distractor_Threat_target","800","onmask","q","1","Ontogenetic","true","experimental"
"","null","html-keyboard-response","117","169565","0.0-11.0-0.9","HLE1Ar9WiR","63d7c8b24017a56bcc3affe2","6617fad957f7c6a12ea16e26","6622cb6cd644ca17359f54f3","fixation cross","null","","","","","","","","","","","",""
"","null","html-keyboard-response","118","170382","0.0-11.0-1.9","HLE1Ar9WiR","63d7c8b24017a56bcc3affe2","6617fad957f7c6a12ea16e26","6622cb6cd644ca17359f54f3","
        <div id=""grid-container"">
        <!-- Grid items will be dynamically added here -->
    </div>    ","null","","","","","","","","","","","",""
"","1037","html-keyboard-response","119","170621","0.0-11.0-2.9","HLE1Ar9WiR","63d7c8b24017a56bcc3affe2","6617fad957f7c6a12ea16e26","6622cb6cd644ca17359f54f3","mask grid","p","","","","","Ontogenetic_Distractor_Nonthreat_target","800","onmask","p","1","Ontogenetic","true","experimental"
"","null","html-keyboard-response","120","171354","0.0-11.0-0.10","HLE1Ar9WiR","63d7c8b24017a56bcc3affe2","6617fad957f7c6a12ea16e26","6622cb6cd644ca17359f54f3","fixation cross","null","","","","","","","","","","","",""
"","null","html-keyboard-response","121","172165","0.0-11.0-1.10","HLE1Ar9WiR","63d7c8b24017a56bcc3affe2","6617fad957f7c6a12ea16e26","6622cb6cd644ca17359f54f3","
        <div id=""grid-container"">
        <!-- Grid items will be dynamically added here -->
    </div>    ","null","","","","","","","","","","","",""
"","817","html-keyboard-response","122","172182","0.0-11.0-2.10","HLE1Ar9WiR","63d7c8b24017a56bcc3affe2","6617fad957f7c6a12ea16e26","6622cb6cd644ca17359f54f3","mask grid","q","","","","","Ontogenetic_Distractor_Threat_target","800","onmask","q","9","Ontogenetic","true","experimental"
"","null","html-keyboard-response","123","172912","0.0-11.0-0.11","HLE1Ar9WiR","63d7c8b24017a56bcc3affe2","6617fad957f7c6a12ea16e26","6622cb6cd644ca17359f54f3","fixation cross","null","","","","","","","","","","","",""
"","704","html-keyboard-response","124","173617","0.0-11.0-1.11","HLE1Ar9WiR","63d7c8b24017a56bcc3affe2","6617fad957f7c6a12ea16e26","6622cb6cd644ca17359f54f3","image grid"," ","","","","","Ontogenetic_Distractor_Nonthreat_target","800","ongrid","p","4","Ontogenetic","false","experimental"
"","null","html-keyboard-response","125","173787","0.0-11.0-2.11","HLE1Ar9WiR","63d7c8b24017a56bcc3affe2","6617fad957f7c6a12ea16e26","6622cb6cd644ca17359f54f3","
    <div id=""grid-container"">
        <!-- Grid items will be dynamically added here -->
    </div>    ","null","","","","","","","","","","","",""
"","null","html-keyboard-response","126","174511","0.0-11.0-0.12","HLE1Ar9WiR","63d7c8b24017a56bcc3affe2","6617fad957f7c6a12ea16e26","6622cb6cd644ca17359f54f3","fixation cross","null","","","","","","","","","","","",""
"","null","html-keyboard-response","127","175326","0.0-11.0-1.12","HLE1Ar9WiR","63d7c8b24017a56bcc3affe2","6617fad957f7c6a12ea16e26","6622cb6cd644ca17359f54f3","
        <div id=""grid-container"">
        <!-- Grid items will be dynamically added here -->
    </div>    ","null","","","","","","","","","","","",""
"","1068","html-keyboard-response","128","175595","0.0-11.0-2.12","HLE1Ar9WiR","63d7c8b24017a56bcc3affe2","6617fad957f7c6a12ea16e26","6622cb6cd644ca17359f54f3","mask grid","p","","","","","Ontogenetic_Distractor_Nonthreat_target","800","onmask","p","3","Ontogenetic","true","experimental"
"","null","html-keyboard-response","129","176305","0.0-11.0-0.13","HLE1Ar9WiR","63d7c8b24017a56bcc3affe2","6617fad957f7c6a12ea16e26","6622cb6cd644ca17359f54f3","fixation cross","null","","","","","","","","","","","",""
"","null","html-keyboard-response","130","177109","0.0-11.0-1.13","HLE1Ar9WiR","63d7c8b24017a56bcc3affe2","6617fad957f7c6a12ea16e26","6622cb6cd644ca17359f54f3","
        <div id=""grid-container"">
        <!-- Grid items will be dynamically added here -->
    </div>    ","null","","","","","","","","","","","",""
"","855","html-keyboard-response","131","177165","0.0-11.0-2.13","HLE1Ar9WiR","63d7c8b24017a56bcc3affe2","6617fad957f7c6a12ea16e26","6622cb6cd644ca17359f54f3","mask grid","p","","","","","Ontogenetic_Distractor_Nonthreat_target","800","onmask","p","5","Ontogenetic","true","experimental"
"","null","html-keyboard-response","132","177890","0.0-11.0-0.14","HLE1Ar9WiR","63d7c8b24017a56bcc3affe2","6617fad957f7c6a12ea16e26","6622cb6cd644ca17359f54f3","fixation cross","null","","","","","","","","","","","",""
"","659","html-keyboard-response","133","178550","0.0-11.0-1.14","HLE1Ar9WiR","63d7c8b24017a56bcc3affe2","6617fad957f7c6a12ea16e26","6622cb6cd644ca17359f54f3","image grid","p","","","","","Ontogenetic_Distractor_Nonthreat_target","800","ongrid","p","1","Ontogenetic","true","experimental"
"","null","html-keyboard-response","134","178712","0.0-11.0-2.14","HLE1Ar9WiR","63d7c8b24017a56bcc3affe2","6617fad957f7c6a12ea16e26","6622cb6cd644ca17359f54f3","
    <div id=""grid-container"">
        <!-- Grid items will be dynamically added here -->
    </div>    ","null","","","","","","","","","","","",""
"","null","html-keyboard-response","135","179444","0.0-11.0-0.15","HLE1Ar9WiR","63d7c8b24017a56bcc3affe2","6617fad957f7c6a12ea16e26","6622cb6cd644ca17359f54f3","fixation cross","null","","","","","","","","","","","",""
"","null","html-keyboard-response","136","180255","0.0-11.0-1.15","HLE1Ar9WiR","63d7c8b24017a56bcc3affe2","6617fad957f7c6a12ea16e26","6622cb6cd644ca17359f54f3","
        <div id=""grid-container"">
        <!-- Grid items will be dynamically added here -->
    </div>    ","null","","","","","","","","","","","",""
"","1292","html-keyboard-response","137","180748","0.0-11.0-2.15","HLE1Ar9WiR","63d7c8b24017a56bcc3affe2","6617fad957f7c6a12ea16e26","6622cb6cd644ca17359f54f3","mask grid","p","","","","","Ontogenetic_Distractor_Nonthreat_target","800","onmask","p","9","Ontogenetic","true","experimental"
"","null","html-keyboard-response","138","181461","0.0-11.0-0.16","HLE1Ar9WiR","63d7c8b24017a56bcc3affe2","6617fad957f7c6a12ea16e26","6622cb6cd644ca17359f54f3","fixation cross","null","","","","","","","","","","","",""
"","null","html-keyboard-response","139","182275","0.0-11.0-1.16","HLE1Ar9WiR","63d7c8b24017a56bcc3affe2","6617fad957f7c6a12ea16e26","6622cb6cd644ca17359f54f3","
        <div id=""grid-container"">
        <!-- Grid items will be dynamically added here -->
    </div>    ","null","","","","","","","","","","","",""
"","905","html-keyboard-response","140","182381","0.0-11.0-2.16","HLE1Ar9WiR","63d7c8b24017a56bcc3affe2","6617fad957f7c6a12ea16e26","6622cb6cd644ca17359f54f3","mask grid"," ","","","","","Ontogenetic_Distractor_notarget","800","onmask"," ","8","Ontogenetic","true","experimental"
"","null","html-keyboard-response","141","183109","0.0-11.0-0.17","HLE1Ar9WiR","63d7c8b24017a56bcc3affe2","6617fad957f7c6a12ea16e26","6622cb6cd644ca17359f54f3","fixation cross","null","","","","","","","","","","","",""
"","null","html-keyboard-response","142","183919","0.0-11.0-1.17","HLE1Ar9WiR","63d7c8b24017a56bcc3affe2","6617fad957f7c6a12ea16e26","6622cb6cd644ca17359f54f3","
        <div id=""grid-container"">
        <!-- Grid items will be dynamically added here -->
    </div>    ","null","","","","","","","","","","","",""
"","1481","html-keyboard-response","143","184601","0.0-11.0-2.17","HLE1Ar9WiR","63d7c8b24017a56bcc3affe2","6617fad957f7c6a12ea16e26","6622cb6cd644ca17359f54f3","mask grid"," ","","","","","Ontogenetic_Distractor_Threat_target","800","onmask","q","3","Ontogenetic","false","experimental"
"","null","html-keyboard-response","144","185336","0.0-11.0-0.18","HLE1Ar9WiR","63d7c8b24017a56bcc3affe2","6617fad957f7c6a12ea16e26","6622cb6cd644ca17359f54f3","fixation cross","null","","","","","","","","","","","",""
"","null","html-keyboard-response","145","186146","0.0-11.0-1.18","HLE1Ar9WiR","63d7c8b24017a56bcc3affe2","6617fad957f7c6a12ea16e26","6622cb6cd644ca17359f54f3","
        <div id=""grid-container"">
        <!-- Grid items will be dynamically added here -->
    </div>    ","null","","","","","","","","","","","",""
"","997","html-keyboard-response","146","186344","0.0-11.0-2.18","HLE1Ar9WiR","63d7c8b24017a56bcc3affe2","6617fad957f7c6a12ea16e26","6622cb6cd644ca17359f54f3","mask grid","q","","","","","Ontogenetic_Distractor_Threat_target","800","onmask","q","7","Ontogenetic","true","experimental"
"","null","html-keyboard-response","147","187060","0.0-11.0-0.19","HLE1Ar9WiR","63d7c8b24017a56bcc3affe2","6617fad957f7c6a12ea16e26","6622cb6cd644ca17359f54f3","fixation cross","null","","","","","","","","","","","",""
"","null","html-keyboard-response","148","187869","0.0-11.0-1.19","HLE1Ar9WiR","63d7c8b24017a56bcc3affe2","6617fad957f7c6a12ea16e26","6622cb6cd644ca17359f54f3","
        <div id=""grid-container"">
        <!-- Grid items will be dynamically added here -->
    </div>    ","null","","","","","","","","","","","",""
"","997","html-keyboard-response","149","188067","0.0-11.0-2.19","HLE1Ar9WiR","63d7c8b24017a56bcc3affe2","6617fad957f7c6a12ea16e26","6622cb6cd644ca17359f54f3","mask grid","q","","","","","Ontogenetic_Distractor_Threat_target","800","onmask","q","5","Ontogenetic","true","experimental"
"","null","html-keyboard-response","150","188788","0.0-11.0-0.20","HLE1Ar9WiR","63d7c8b24017a56bcc3affe2","6617fad957f7c6a12ea16e26","6622cb6cd644ca17359f54f3","fixation cross","null","","","","","","","","","","","",""
"","null","html-keyboard-response","151","189598","0.0-11.0-1.20","HLE1Ar9WiR","63d7c8b24017a56bcc3affe2","6617fad957f7c6a12ea16e26","6622cb6cd644ca17359f54f3","
        <div id=""grid-container"">
        <!-- Grid items will be dynamically added here -->
    </div>    ","null","","","","","","","","","","","",""
"","825","html-keyboard-response","152","189623","0.0-11.0-2.20","HLE1Ar9WiR","63d7c8b24017a56bcc3affe2","6617fad957f7c6a12ea16e26","6622cb6cd644ca17359f54f3","mask grid","q","","","","","Ontogenetic_Distractor_Threat_target","800","onmask","q","4","Ontogenetic","true","experimental"
"","null","html-keyboard-response","153","190345","0.0-11.0-0.21","HLE1Ar9WiR","63d7c8b24017a56bcc3affe2","6617fad957f7c6a12ea16e26","6622cb6cd644ca17359f54f3","fixation cross","null","","","","","","","","","","","",""
"","799","html-keyboard-response","154","191145","0.0-11.0-1.21","HLE1Ar9WiR","63d7c8b24017a56bcc3affe2","6617fad957f7c6a12ea16e26","6622cb6cd644ca17359f54f3","image grid","q","","","","","Ontogenetic_Distractor_Threat_target","800","ongrid","q","6","Ontogenetic","true","experimental"
"","null","html-keyboard-response","155","191311","0.0-11.0-2.21","HLE1Ar9WiR","63d7c8b24017a56bcc3affe2","6617fad957f7c6a12ea16e26","6622cb6cd644ca17359f54f3","
    <div id=""grid-container"">
        <!-- Grid items will be dynamically added here -->
    </div>    ","null","","","","","","","","","","","",""
"","null","html-keyboard-response","156","192040","0.0-11.0-0.22","HLE1Ar9WiR","63d7c8b24017a56bcc3affe2","6617fad957f7c6a12ea16e26","6622cb6cd644ca17359f54f3","fixation cross","null","","","","","","","","","","","",""
"","null","html-keyboard-response","157","192848","0.0-11.0-1.22","HLE1Ar9WiR","63d7c8b24017a56bcc3affe2","6617fad957f7c6a12ea16e26","6622cb6cd644ca17359f54f3","
        <div id=""grid-container"">
        <!-- Grid items will be dynamically added here -->
    </div>    ","null","","","","","","","","","","","",""
"","1128","html-keyboard-response","158","193177","0.0-11.0-2.22","HLE1Ar9WiR","63d7c8b24017a56bcc3affe2","6617fad957f7c6a12ea16e26","6622cb6cd644ca17359f54f3","mask grid"," ","","","","","Ontogenetic_Distractor_Nonthreat_target","800","onmask","p","8","Ontogenetic","false","experimental"
"","null","html-keyboard-response","159","193906","0.0-11.0-0.23","HLE1Ar9WiR","63d7c8b24017a56bcc3affe2","6617fad957f7c6a12ea16e26","6622cb6cd644ca17359f54f3","fixation cross","null","","","","","","","","","","","",""
"","null","html-keyboard-response","160","194713","0.0-11.0-1.23","HLE1Ar9WiR","63d7c8b24017a56bcc3affe2","6617fad957f7c6a12ea16e26","6622cb6cd644ca17359f54f3","
        <div id=""grid-container"">
        <!-- Grid items will be dynamically added here -->
    </div>    ","null","","","","","","","","","","","",""
"","837","html-keyboard-response","161","194751","0.0-11.0-2.23","HLE1Ar9WiR","63d7c8b24017a56bcc3affe2","6617fad957f7c6a12ea16e26","6622cb6cd644ca17359f54f3","mask grid","p","","","","","Ontogenetic_Distractor_Nonthreat_target","800","onmask","p","7","Ontogenetic","true","experimental"
"","null","html-keyboard-response","162","195476","0.0-11.0-0.24","HLE1Ar9WiR","63d7c8b24017a56bcc3affe2","6617fad957f7c6a12ea16e26","6622cb6cd644ca17359f54f3","fixation cross","null","","","","","","","","","","","",""
"","null","html-keyboard-response","163","196285","0.0-11.0-1.24","HLE1Ar9WiR","63d7c8b24017a56bcc3affe2","6617fad957f7c6a12ea16e26","6622cb6cd644ca17359f54f3","
        <div id=""grid-container"">
        <!-- Grid items will be dynamically added here -->
    </div>    ","null","","","","","","","","","","","",""
"","821","html-keyboard-response","164","196307","0.0-11.0-2.24","HLE1Ar9WiR","63d7c8b24017a56bcc3affe2","6617fad957f7c6a12ea16e26","6622cb6cd644ca17359f54f3","mask grid","p","","","","","Ontogenetic_Distractor_Nonthreat_target","800","onmask","p","9","Ontogenetic","true","experimental"
"","null","html-keyboard-response","165","197034","0.0-11.0-0.25","HLE1Ar9WiR","63d7c8b24017a56bcc3affe2","6617fad957f7c6a12ea16e26","6622cb6cd644ca17359f54f3","fixation cross","null","","","","","","","","","","","",""
"","null","html-keyboard-response","166","197844","0.0-11.0-1.25","HLE1Ar9WiR","63d7c8b24017a56bcc3affe2","6617fad957f7c6a12ea16e26","6622cb6cd644ca17359f54f3","
        <div id=""grid-container"">
        <!-- Grid items will be dynamically added here -->
    </div>    ","null","","","","","","","","","","","",""
"","1158","html-keyboard-response","167","198203","0.0-11.0-2.25","HLE1Ar9WiR","63d7c8b24017a56bcc3affe2","6617fad957f7c6a12ea16e26","6622cb6cd644ca17359f54f3","mask grid","q","","","","","Ontogenetic_Distractor_Threat_target","800","onmask","q","4","Ontogenetic","true","experimental"
"","null","html-keyboard-response","168","198932","0.0-11.0-0.26","HLE1Ar9WiR","63d7c8b24017a56bcc3affe2","6617fad957f7c6a12ea16e26","6622cb6cd644ca17359f54f3","fixation cross","null","","","","","","","","","","","",""
"","null","html-keyboard-response","169","199740","0.0-11.0-1.26","HLE1Ar9WiR","63d7c8b24017a56bcc3affe2","6617fad957f7c6a12ea16e26","6622cb6cd644ca17359f54f3","
        <div id=""grid-container"">
        <!-- Grid items will be dynamically added here -->
    </div>    ","null","","","","","","","","","","","",""
"","952","html-keyboard-response","170","199893","0.0-11.0-2.26","HLE1Ar9WiR","63d7c8b24017a56bcc3affe2","6617fad957f7c6a12ea16e26","6622cb6cd644ca17359f54f3","mask grid","p","","","","","Ontogenetic_Distractor_Nonthreat_target","800","onmask","p","9","Ontogenetic","true","experimental"
"","null","html-keyboard-response","171","200611","0.0-11.0-0.27","HLE1Ar9WiR","63d7c8b24017a56bcc3affe2","6617fad957f7c6a12ea16e26","6622cb6cd644ca17359f54f3","fixation cross","null","","","","","","","","","","","",""
"","null","html-keyboard-response","172","201423","0.0-11.0-1.27","HLE1Ar9WiR","63d7c8b24017a56bcc3affe2","6617fad957f7c6a12ea16e26","6622cb6cd644ca17359f54f3","
        <div id=""grid-container"">
        <!-- Grid items will be dynamically added here -->
    </div>    ","null","","","","","","","","","","","",""
"","1008","html-keyboard-response","173","201632","0.0-11.0-2.27","HLE1Ar9WiR","63d7c8b24017a56bcc3affe2","6617fad957f7c6a12ea16e26","6622cb6cd644ca17359f54f3","mask grid","p","","","","","Ontogenetic_Distractor_Nonthreat_target","800","onmask","p","7","Ontogenetic","true","experimental"
"","null","html-keyboard-response","174","202343","0.0-11.0-0.28","HLE1Ar9WiR","63d7c8b24017a56bcc3affe2","6617fad957f7c6a12ea16e26","6622cb6cd644ca17359f54f3","fixation cross","null","","","","","","","","","","","",""
"","null","html-keyboard-response","175","203158","0.0-11.0-1.28","HLE1Ar9WiR","63d7c8b24017a56bcc3affe2","6617fad957f7c6a12ea16e26","6622cb6cd644ca17359f54f3","
        <div id=""grid-container"">
        <!-- Grid items will be dynamically added here -->
    </div>    ","null","","","","","","","","","","","",""
"","992","html-keyboard-response","176","203351","0.0-11.0-2.28","HLE1Ar9WiR","63d7c8b24017a56bcc3affe2","6617fad957f7c6a12ea16e26","6622cb6cd644ca17359f54f3","mask grid","p","","","","","Ontogenetic_Distractor_Nonthreat_target","800","onmask","p","2","Ontogenetic","true","experimental"
"","null","html-keyboard-response","177","204077","0.0-11.0-0.29","HLE1Ar9WiR","63d7c8b24017a56bcc3affe2","6617fad957f7c6a12ea16e26","6622cb6cd644ca17359f54f3","fixation cross","null","","","","","","","","","","","",""
"","null","html-keyboard-response","178","204887","0.0-11.0-1.29","HLE1Ar9WiR","63d7c8b24017a56bcc3affe2","6617fad957f7c6a12ea16e26","6622cb6cd644ca17359f54f3","
        <div id=""grid-container"">
        <!-- Grid items will be dynamically added here -->
    </div>    ","null","","","","","","","","","","","",""
"","828","html-keyboard-response","179","204916","0.0-11.0-2.29","HLE1Ar9WiR","63d7c8b24017a56bcc3affe2","6617fad957f7c6a12ea16e26","6622cb6cd644ca17359f54f3","mask grid","q","","","","","Ontogenetic_Distractor_Threat_target","800","onmask","q","7","Ontogenetic","true","experimental"
"","null","html-keyboard-response","180","205638","0.0-11.0-0.30","HLE1Ar9WiR","63d7c8b24017a56bcc3affe2","6617fad957f7c6a12ea16e26","6622cb6cd644ca17359f54f3","fixation cross","null","","","","","","","","","","","",""
"","null","html-keyboard-response","181","206448","0.0-11.0-1.30","HLE1Ar9WiR","63d7c8b24017a56bcc3affe2","6617fad957f7c6a12ea16e26","6622cb6cd644ca17359f54f3","
        <div id=""grid-container"">
        <!-- Grid items will be dynamically added here -->
    </div>    ","null","","","","","","","","","","","",""
"","866","html-keyboard-response","182","206515","0.0-11.0-2.30","HLE1Ar9WiR","63d7c8b24017a56bcc3affe2","6617fad957f7c6a12ea16e26","6622cb6cd644ca17359f54f3","mask grid","p","","","","","Ontogenetic_Distractor_Nonthreat_target","800","onmask","p","9","Ontogenetic","true","experimental"
"","null","html-keyboard-response","183","207223","0.0-11.0-0.31","HLE1Ar9WiR","63d7c8b24017a56bcc3affe2","6617fad957f7c6a12ea16e26","6622cb6cd644ca17359f54f3","fixation cross","null","","","","","","","","","","","",""
"","null","html-keyboard-response","184","208032","0.0-11.0-1.31","HLE1Ar9WiR","63d7c8b24017a56bcc3affe2","6617fad957f7c6a12ea16e26","6622cb6cd644ca17359f54f3","
        <div id=""grid-container"">
        <!-- Grid items will be dynamically added here -->
    </div>    ","null","","","","","","","","","","","",""
"","1026","html-keyboard-response","185","208261","0.0-11.0-2.31","HLE1Ar9WiR","63d7c8b24017a56bcc3affe2","6617fad957f7c6a12ea16e26","6622cb6cd644ca17359f54f3","mask grid"," ","","","","","Ontogenetic_Distractor_notarget","800","onmask"," ","7","Ontogenetic","true","experimental"
"","null","html-keyboard-response","186","208980","0.0-11.0-0.32","HLE1Ar9WiR","63d7c8b24017a56bcc3affe2","6617fad957f7c6a12ea16e26","6622cb6cd644ca17359f54f3","fixation cross","null","","","","","","","","","","","",""
"","null","html-keyboard-response","187","209789","0.0-11.0-1.32","HLE1Ar9WiR","63d7c8b24017a56bcc3affe2","6617fad957f7c6a12ea16e26","6622cb6cd644ca17359f54f3","
        <div id=""grid-container"">
        <!-- Grid items will be dynamically added here -->
    </div>    ","null","","","","","","","","","","","",""
"","2750","html-keyboard-response","188","211741","0.0-11.0-2.32","HLE1Ar9WiR","63d7c8b24017a56bcc3affe2","6617fad957f7c6a12ea16e26","6622cb6cd644ca17359f54f3","mask grid","p","","","","","Ontogenetic_Distractor_Nonthreat_target","800","onmask","p","8","Ontogenetic","true","experimental"
"","null","html-keyboard-response","189","212458","0.0-11.0-0.33","HLE1Ar9WiR","63d7c8b24017a56bcc3affe2","6617fad957f7c6a12ea16e26","6622cb6cd644ca17359f54f3","fixation cross","null","","","","","","","","","","","",""
"","null","html-keyboard-response","190","213273","0.0-11.0-1.33","HLE1Ar9WiR","63d7c8b24017a56bcc3affe2","6617fad957f7c6a12ea16e26","6622cb6cd644ca17359f54f3","
        <div id=""grid-container"">
        <!-- Grid items will be dynamically added here -->
    </div>    ","null","","","","","","","","","","","",""
"","1507","html-keyboard-response","191","213982","0.0-11.0-2.33","HLE1Ar9WiR","63d7c8b24017a56bcc3affe2","6617fad957f7c6a12ea16e26","6622cb6cd644ca17359f54f3","mask grid"," ","","","","","Ontogenetic_Distractor_Threat_target","800","onmask","q","4","Ontogenetic","false","experimental"
"","null","html-keyboard-response","192","214707","0.0-11.0-0.34","HLE1Ar9WiR","63d7c8b24017a56bcc3affe2","6617fad957f7c6a12ea16e26","6622cb6cd644ca17359f54f3","fixation cross","null","","","","","","","","","","","",""
"","null","html-keyboard-response","193","215518","0.0-11.0-1.34","HLE1Ar9WiR","63d7c8b24017a56bcc3affe2","6617fad957f7c6a12ea16e26","6622cb6cd644ca17359f54f3","
        <div id=""grid-container"">
        <!-- Grid items will be dynamically added here -->
    </div>    ","null","","","","","","","","","","","",""
"","2204","html-keyboard-response","194","216923","0.0-11.0-2.34","HLE1Ar9WiR","63d7c8b24017a56bcc3affe2","6617fad957f7c6a12ea16e26","6622cb6cd644ca17359f54f3","mask grid","p","","","","","Ontogenetic_Distractor_Nonthreat_target","800","onmask","p","5","Ontogenetic","true","experimental"
"","null","html-keyboard-response","195","217632","0.0-11.0-0.35","HLE1Ar9WiR","63d7c8b24017a56bcc3affe2","6617fad957f7c6a12ea16e26","6622cb6cd644ca17359f54f3","fixation cross","null","","","","","","","","","","","",""
"","null","html-keyboard-response","196","218448","0.0-11.0-1.35","HLE1Ar9WiR","63d7c8b24017a56bcc3affe2","6617fad957f7c6a12ea16e26","6622cb6cd644ca17359f54f3","
        <div id=""grid-container"">
        <!-- Grid items will be dynamically added here -->
    </div>    ","null","","","","","","","","","","","",""
"","1585","html-keyboard-response","197","219234","0.0-11.0-2.35","HLE1Ar9WiR","63d7c8b24017a56bcc3affe2","6617fad957f7c6a12ea16e26","6622cb6cd644ca17359f54f3","mask grid","p","","","","","Ontogenetic_Distractor_Threat_target","800","onmask","q","8","Ontogenetic","false","experimental"
"","null","html-keyboard-response","198","219943","0.0-11.0-0.36","HLE1Ar9WiR","63d7c8b24017a56bcc3affe2","6617fad957f7c6a12ea16e26","6622cb6cd644ca17359f54f3","fixation cross","null","","","","","","","","","","","",""
"","null","html-keyboard-response","199","220752","0.0-11.0-1.36","HLE1Ar9WiR","63d7c8b24017a56bcc3affe2","6617fad957f7c6a12ea16e26","6622cb6cd644ca17359f54f3","
        <div id=""grid-container"">
        <!-- Grid items will be dynamically added here -->
    </div>    ","null","","","","","","","","","","","",""
"","1503","html-keyboard-response","200","221458","0.0-11.0-2.36","HLE1Ar9WiR","63d7c8b24017a56bcc3affe2","6617fad957f7c6a12ea16e26","6622cb6cd644ca17359f54f3","mask grid"," ","","","","","Ontogenetic_Distractor_notarget","800","onmask"," ","3","Ontogenetic","true","experimental"
"","null","html-keyboard-response","201","222180","0.0-11.0-0.37","HLE1Ar9WiR","63d7c8b24017a56bcc3affe2","6617fad957f7c6a12ea16e26","6622cb6cd644ca17359f54f3","fixation cross","null","","","","","","","","","","","",""
"","null","html-keyboard-response","202","222988","0.0-11.0-1.37","HLE1Ar9WiR","63d7c8b24017a56bcc3affe2","6617fad957f7c6a12ea16e26","6622cb6cd644ca17359f54f3","
        <div id=""grid-container"">
        <!-- Grid items will be dynamically added here -->
    </div>    ","null","","","","","","","","","","","",""
"","1118","html-keyboard-response","203","223307","0.0-11.0-2.37","HLE1Ar9WiR","63d7c8b24017a56bcc3affe2","6617fad957f7c6a12ea16e26","6622cb6cd644ca17359f54f3","mask grid","q","","","","","Ontogenetic_Distractor_Threat_target","800","onmask","q","6","Ontogenetic","true","experimental"
"","null","html-keyboard-response","204","224026","0.0-11.0-0.38","HLE1Ar9WiR","63d7c8b24017a56bcc3affe2","6617fad957f7c6a12ea16e26","6622cb6cd644ca17359f54f3","fixation cross","null","","","","","","","","","","","",""
"","null","html-keyboard-response","205","224842","0.0-11.0-1.38","HLE1Ar9WiR","63d7c8b24017a56bcc3affe2","6617fad957f7c6a12ea16e26","6622cb6cd644ca17359f54f3","
        <div id=""grid-container"">
        <!-- Grid items will be dynamically added here -->
    </div>    ","null","","","","","","","","","","","",""
"","1037","html-keyboard-response","206","225080","0.0-11.0-2.38","HLE1Ar9WiR","63d7c8b24017a56bcc3affe2","6617fad957f7c6a12ea16e26","6622cb6cd644ca17359f54f3","mask grid","q","","","","","Ontogenetic_Distractor_Threat_target","800","onmask","q","4","Ontogenetic","true","experimental"
"","null","html-keyboard-response","207","225803","0.0-11.0-0.39","HLE1Ar9WiR","63d7c8b24017a56bcc3affe2","6617fad957f7c6a12ea16e26","6622cb6cd644ca17359f54f3","fixation cross","null","","","","","","","","","","","",""
"","null","html-keyboard-response","208","226611","0.0-11.0-1.39","HLE1Ar9WiR","63d7c8b24017a56bcc3affe2","6617fad957f7c6a12ea16e26","6622cb6cd644ca17359f54f3","
        <div id=""grid-container"">
        <!-- Grid items will be dynamically added here -->
    </div>    ","null","","","","","","","","","","","",""
"","1169","html-keyboard-response","209","226981","0.0-11.0-2.39","HLE1Ar9WiR","63d7c8b24017a56bcc3affe2","6617fad957f7c6a12ea16e26","6622cb6cd644ca17359f54f3","mask grid","q","","","","","Ontogenetic_Distractor_Threat_target","800","onmask","q","2","Ontogenetic","true","experimental"
"","10950","html-keyboard-response","210","238246","0.0-12.0","HLE1Ar9WiR","63d7c8b24017a56bcc3affe2","6617fad957f7c6a12ea16e26","6622cb6cd644ca17359f54f3","break screen"," ","","","","","","","","","","","",""
"","null","html-keyboard-response","211","240848","0.0-13.0-0.0","HLE1Ar9WiR","63d7c8b24017a56bcc3affe2","6617fad957f7c6a12ea16e26","6622cb6cd644ca17359f54f3","fixation cross","null","","","","","","","","","","","",""
"","1575","html-keyboard-response","212","242425","0.0-13.0-1.0","HLE1Ar9WiR","63d7c8b24017a56bcc3affe2","6617fad957f7c6a12ea16e26","6622cb6cd644ca17359f54f3","image grid","q","","","","","Phylogenetic_Distractor_Threat_target","2500","ongrid","q","9","Phylogenetic","true","experimental"
"","null","html-keyboard-response","213","242582","0.0-13.0-2.0","HLE1Ar9WiR","63d7c8b24017a56bcc3affe2","6617fad957f7c6a12ea16e26","6622cb6cd644ca17359f54f3","
    <div id=""grid-container"">
        <!-- Grid items will be dynamically added here -->
    </div>    ","null","","","","","","","","","","","",""
"","null","html-keyboard-response","214","243302","0.0-13.0-0.1","HLE1Ar9WiR","63d7c8b24017a56bcc3affe2","6617fad957f7c6a12ea16e26","6622cb6cd644ca17359f54f3","fixation cross","null","","","","","","","","","","","",""
"","1145","html-keyboard-response","215","244448","0.0-13.0-1.1","HLE1Ar9WiR","63d7c8b24017a56bcc3affe2","6617fad957f7c6a12ea16e26","6622cb6cd644ca17359f54f3","image grid","p","","","","","Phylogenetic_Distractor_Nonthreat_target","2500","ongrid","p","5","Phylogenetic","true","experimental"
"","null","html-keyboard-response","216","244616","0.0-13.0-2.1","HLE1Ar9WiR","63d7c8b24017a56bcc3affe2","6617fad957f7c6a12ea16e26","6622cb6cd644ca17359f54f3","
    <div id=""grid-container"">
        <!-- Grid items will be dynamically added here -->
    </div>    ","null","","","","","","","","","","","",""
"","null","html-keyboard-response","217","245343","0.0-13.0-0.2","HLE1Ar9WiR","63d7c8b24017a56bcc3affe2","6617fad957f7c6a12ea16e26","6622cb6cd644ca17359f54f3","fixation cross","null","","","","","","","","","","","",""
"","785","html-keyboard-response","218","246130","0.0-13.0-1.2","HLE1Ar9WiR","63d7c8b24017a56bcc3affe2","6617fad957f7c6a12ea16e26","6622cb6cd644ca17359f54f3","image grid","q","","","","","Phylogenetic_Distractor_Threat_target","2500","ongrid","q","3","Phylogenetic","true","experimental"
"","null","html-keyboard-response","219","246291","0.0-13.0-2.2","HLE1Ar9WiR","63d7c8b24017a56bcc3affe2","6617fad957f7c6a12ea16e26","6622cb6cd644ca17359f54f3","
    <div id=""grid-container"">
        <!-- Grid items will be dynamically added here -->
    </div>    ","null","","","","","","","","","","","",""
"","null","html-keyboard-response","220","247010","0.0-13.0-0.3","HLE1Ar9WiR","63d7c8b24017a56bcc3affe2","6617fad957f7c6a12ea16e26","6622cb6cd644ca17359f54f3","fixation cross","null","","","","","","","","","","","",""
"","1330","html-keyboard-response","221","248341","0.0-13.0-1.3","HLE1Ar9WiR","63d7c8b24017a56bcc3affe2","6617fad957f7c6a12ea16e26","6622cb6cd644ca17359f54f3","image grid","p","","","","","Phylogenetic_Distractor_Nonthreat_target","2500","ongrid","p","4","Phylogenetic","true","experimental"
"","null","html-keyboard-response","222","248503","0.0-13.0-2.3","HLE1Ar9WiR","63d7c8b24017a56bcc3affe2","6617fad957f7c6a12ea16e26","6622cb6cd644ca17359f54f3","
    <div id=""grid-container"">
        <!-- Grid items will be dynamically added here -->
    </div>    ","null","","","","","","","","","","","",""
"","null","html-keyboard-response","223","249232","0.0-13.0-0.4","HLE1Ar9WiR","63d7c8b24017a56bcc3affe2","6617fad957f7c6a12ea16e26","6622cb6cd644ca17359f54f3","fixation cross","null","","","","","","","","","","","",""
"","1146","html-keyboard-response","224","250379","0.0-13.0-1.4","HLE1Ar9WiR","63d7c8b24017a56bcc3affe2","6617fad957f7c6a12ea16e26","6622cb6cd644ca17359f54f3","image grid","p","","","","","Phylogenetic_Distractor_Nonthreat_target","2500","ongrid","p","3","Phylogenetic","true","experimental"
"","null","html-keyboard-response","225","250536","0.0-13.0-2.4","HLE1Ar9WiR","63d7c8b24017a56bcc3affe2","6617fad957f7c6a12ea16e26","6622cb6cd644ca17359f54f3","
    <div id=""grid-container"">
        <!-- Grid items will be dynamically added here -->
    </div>    ","null","","","","","","","","","","","",""
"","null","html-keyboard-response","226","251249","0.0-13.0-0.5","HLE1Ar9WiR","63d7c8b24017a56bcc3affe2","6617fad957f7c6a12ea16e26","6622cb6cd644ca17359f54f3","fixation cross","null","","","","","","","","","","","",""
"","1191","html-keyboard-response","227","252443","0.0-13.0-1.5","HLE1Ar9WiR","63d7c8b24017a56bcc3affe2","6617fad957f7c6a12ea16e26","6622cb6cd644ca17359f54f3","image grid","p","","","","","Phylogenetic_Distractor_Threat_target","2500","ongrid","q","4","Phylogenetic","false","experimental"
"","null","html-keyboard-response","228","252602","0.0-13.0-2.5","HLE1Ar9WiR","63d7c8b24017a56bcc3affe2","6617fad957f7c6a12ea16e26","6622cb6cd644ca17359f54f3","
    <div id=""grid-container"">
        <!-- Grid items will be dynamically added here -->
    </div>    ","null","","","","","","","","","","","",""
"","null","html-keyboard-response","229","253333","0.0-13.0-0.6","HLE1Ar9WiR","63d7c8b24017a56bcc3affe2","6617fad957f7c6a12ea16e26","6622cb6cd644ca17359f54f3","fixation cross","null","","","","","","","","","","","",""
"","1198","html-keyboard-response","230","254533","0.0-13.0-1.6","HLE1Ar9WiR","63d7c8b24017a56bcc3affe2","6617fad957f7c6a12ea16e26","6622cb6cd644ca17359f54f3","image grid","p","","","","","Phylogenetic_Distractor_Nonthreat_target","2500","ongrid","p","8","Phylogenetic","true","experimental"
"","null","html-keyboard-response","231","254685","0.0-13.0-2.6","HLE1Ar9WiR","63d7c8b24017a56bcc3affe2","6617fad957f7c6a12ea16e26","6622cb6cd644ca17359f54f3","
    <div id=""grid-container"">
        <!-- Grid items will be dynamically added here -->
    </div>    ","null","","","","","","","","","","","",""
"","null","html-keyboard-response","232","255419","0.0-13.0-0.7","HLE1Ar9WiR","63d7c8b24017a56bcc3affe2","6617fad957f7c6a12ea16e26","6622cb6cd644ca17359f54f3","fixation cross","null","","","","","","","","","","","",""
"","1181","html-keyboard-response","233","256601","0.0-13.0-1.7","HLE1Ar9WiR","63d7c8b24017a56bcc3affe2","6617fad957f7c6a12ea16e26","6622cb6cd644ca17359f54f3","image grid"," ","","","","","Phylogenetic_Distractor_Nonthreat_target","2500","ongrid","p","5","Phylogenetic","false","experimental"
"","null","html-keyboard-response","234","256755","0.0-13.0-2.7","HLE1Ar9WiR","63d7c8b24017a56bcc3affe2","6617fad957f7c6a12ea16e26","6622cb6cd644ca17359f54f3","
    <div id=""grid-container"">
        <!-- Grid items will be dynamically added here -->
    </div>    ","null","","","","","","","","","","","",""
"","null","html-keyboard-response","235","257489","0.0-13.0-0.8","HLE1Ar9WiR","63d7c8b24017a56bcc3affe2","6617fad957f7c6a12ea16e26","6622cb6cd644ca17359f54f3","fixation cross","null","","","","","","","","","","","",""
"","1143","html-keyboard-response","236","258632","0.0-13.0-1.8","HLE1Ar9WiR","63d7c8b24017a56bcc3affe2","6617fad957f7c6a12ea16e26","6622cb6cd644ca17359f54f3","image grid","q","","","","","Phylogenetic_Distractor_Threat_target","2500","ongrid","q","3","Phylogenetic","true","experimental"
"","null","html-keyboard-response","237","258794","0.0-13.0-2.8","HLE1Ar9WiR","63d7c8b24017a56bcc3affe2","6617fad957f7c6a12ea16e26","6622cb6cd644ca17359f54f3","
    <div id=""grid-container"">
        <!-- Grid items will be dynamically added here -->
    </div>    ","null","","","","","","","","","","","",""
"","null","html-keyboard-response","238","259510","0.0-13.0-0.9","HLE1Ar9WiR","63d7c8b24017a56bcc3affe2","6617fad957f7c6a12ea16e26","6622cb6cd644ca17359f54f3","fixation cross","null","","","","","","","","","","","",""
"","1597","html-keyboard-response","239","261108","0.0-13.0-1.9","HLE1Ar9WiR","63d7c8b24017a56bcc3affe2","6617fad957f7c6a12ea16e26","6622cb6cd644ca17359f54f3","image grid","q","","","","","Phylogenetic_Distractor_Threat_target","2500","ongrid","q","2","Phylogenetic","true","experimental"
"","null","html-keyboard-response","240","261269","0.0-13.0-2.9","HLE1Ar9WiR","63d7c8b24017a56bcc3affe2","6617fad957f7c6a12ea16e26","6622cb6cd644ca17359f54f3","
    <div id=""grid-container"">
        <!-- Grid items will be dynamically added here -->
    </div>    ","null","","","","","","","","","","","",""
"","null","html-keyboard-response","241","261985","0.0-13.0-0.10","HLE1Ar9WiR","63d7c8b24017a56bcc3affe2","6617fad957f7c6a12ea16e26","6622cb6cd644ca17359f54f3","fixation cross","null","","","","","","","","","","","",""
"","1359","html-keyboard-response","242","263346","0.0-13.0-1.10","HLE1Ar9WiR","63d7c8b24017a56bcc3affe2","6617fad957f7c6a12ea16e26","6622cb6cd644ca17359f54f3","image grid","q","","","","","Phylogenetic_Distractor_Threat_target","2500","ongrid","q","7","Phylogenetic","true","experimental"
"","null","html-keyboard-response","243","263511","0.0-13.0-2.10","HLE1Ar9WiR","63d7c8b24017a56bcc3affe2","6617fad957f7c6a12ea16e26","6622cb6cd644ca17359f54f3","
    <div id=""grid-container"">
        <!-- Grid items will be dynamically added here -->
    </div>    ","null","","","","","","","","","","","",""
"","null","html-keyboard-response","244","264240","0.0-13.0-0.11","HLE1Ar9WiR","63d7c8b24017a56bcc3affe2","6617fad957f7c6a12ea16e26","6622cb6cd644ca17359f54f3","fixation cross","null","","","","","","","","","","","",""
"","770","html-keyboard-response","245","265010","0.0-13.0-1.11","HLE1Ar9WiR","63d7c8b24017a56bcc3affe2","6617fad957f7c6a12ea16e26","6622cb6cd644ca17359f54f3","image grid","q","","","","","Phylogenetic_Distractor_Threat_target","2500","ongrid","q","6","Phylogenetic","true","experimental"
"","null","html-keyboard-response","246","265166","0.0-13.0-2.11","HLE1Ar9WiR","63d7c8b24017a56bcc3affe2","6617fad957f7c6a12ea16e26","6622cb6cd644ca17359f54f3","
    <div id=""grid-container"">
        <!-- Grid items will be dynamically added here -->
    </div>    ","null","","","","","","","","","","","",""
"","null","html-keyboard-response","247","265984","0.0-13.0-0.12","HLE1Ar9WiR","63d7c8b24017a56bcc3affe2","6617fad957f7c6a12ea16e26","6622cb6cd644ca17359f54f3","fixation cross","null","","","","","","","","","","","",""
"","808","html-keyboard-response","248","266793","0.0-13.0-1.12","HLE1Ar9WiR","63d7c8b24017a56bcc3affe2","6617fad957f7c6a12ea16e26","6622cb6cd644ca17359f54f3","image grid","q","","","","","Phylogenetic_Distractor_Threat_target","2500","ongrid","q","4","Phylogenetic","true","experimental"
"","null","html-keyboard-response","249","266963","0.0-13.0-2.12","HLE1Ar9WiR","63d7c8b24017a56bcc3affe2","6617fad957f7c6a12ea16e26","6622cb6cd644ca17359f54f3","
    <div id=""grid-container"">
        <!-- Grid items will be dynamically added here -->
    </div>    ","null","","","","","","","","","","","",""
"","null","html-keyboard-response","250","267686","0.0-13.0-0.13","HLE1Ar9WiR","63d7c8b24017a56bcc3affe2","6617fad957f7c6a12ea16e26","6622cb6cd644ca17359f54f3","fixation cross","null","","","","","","","","","","","",""
"","1399","html-keyboard-response","251","269087","0.0-13.0-1.13","HLE1Ar9WiR","63d7c8b24017a56bcc3affe2","6617fad957f7c6a12ea16e26","6622cb6cd644ca17359f54f3","image grid","q","","","","","Phylogenetic_Distractor_Threat_target","2500","ongrid","q","3","Phylogenetic","true","experimental"
"","null","html-keyboard-response","252","269245","0.0-13.0-2.13","HLE1Ar9WiR","63d7c8b24017a56bcc3affe2","6617fad957f7c6a12ea16e26","6622cb6cd644ca17359f54f3","
    <div id=""grid-container"">
        <!-- Grid items will be dynamically added here -->
    </div>    ","null","","","","","","","","","","","",""
"","null","html-keyboard-response","253","269961","0.0-13.0-0.14","HLE1Ar9WiR","63d7c8b24017a56bcc3affe2","6617fad957f7c6a12ea16e26","6622cb6cd644ca17359f54f3","fixation cross","null","","","","","","","","","","","",""
"","922","html-keyboard-response","254","270884","0.0-13.0-1.14","HLE1Ar9WiR","63d7c8b24017a56bcc3affe2","6617fad957f7c6a12ea16e26","6622cb6cd644ca17359f54f3","image grid","p","","","","","Phylogenetic_Distractor_Nonthreat_target","2500","ongrid","p","2","Phylogenetic","true","experimental"
"","null","html-keyboard-response","255","271046","0.0-13.0-2.14","HLE1Ar9WiR","63d7c8b24017a56bcc3affe2","6617fad957f7c6a12ea16e26","6622cb6cd644ca17359f54f3","
    <div id=""grid-container"">
        <!-- Grid items will be dynamically added here -->
    </div>    ","null","","","","","","","","","","","",""
"","null","html-keyboard-response","256","271759","0.0-13.0-0.15","HLE1Ar9WiR","63d7c8b24017a56bcc3affe2","6617fad957f7c6a12ea16e26","6622cb6cd644ca17359f54f3","fixation cross","null","","","","","","","","","","","",""
"","1005","html-keyboard-response","257","272765","0.0-13.0-1.15","HLE1Ar9WiR","63d7c8b24017a56bcc3affe2","6617fad957f7c6a12ea16e26","6622cb6cd644ca17359f54f3","image grid","p","","","","","Phylogenetic_Distractor_Nonthreat_target","2500","ongrid","p","6","Phylogenetic","true","experimental"
"","null","html-keyboard-response","258","272927","0.0-13.0-2.15","HLE1Ar9WiR","63d7c8b24017a56bcc3affe2","6617fad957f7c6a12ea16e26","6622cb6cd644ca17359f54f3","
    <div id=""grid-container"">
        <!-- Grid items will be dynamically added here -->
    </div>    ","null","","","","","","","","","","","",""
"","null","html-keyboard-response","259","273643","0.0-13.0-0.16","HLE1Ar9WiR","63d7c8b24017a56bcc3affe2","6617fad957f7c6a12ea16e26","6622cb6cd644ca17359f54f3","fixation cross","null","","","","","","","","","","","",""
"","1073","html-keyboard-response","260","274719","0.0-13.0-1.16","HLE1Ar9WiR","63d7c8b24017a56bcc3affe2","6617fad957f7c6a12ea16e26","6622cb6cd644ca17359f54f3","image grid","p","","","","","Phylogenetic_Distractor_Nonthreat_target","2500","ongrid","p","1","Phylogenetic","true","experimental"
"","null","html-keyboard-response","261","274891","0.0-13.0-2.16","HLE1Ar9WiR","63d7c8b24017a56bcc3affe2","6617fad957f7c6a12ea16e26","6622cb6cd644ca17359f54f3","
    <div id=""grid-container"">
        <!-- Grid items will be dynamically added here -->
    </div>    ","null","","","","","","","","","","","",""
"","null","html-keyboard-response","262","275618","0.0-13.0-0.17","HLE1Ar9WiR","63d7c8b24017a56bcc3affe2","6617fad957f7c6a12ea16e26","6622cb6cd644ca17359f54f3","fixation cross","null","","","","","","","","","","","",""
"","1198","html-keyboard-response","263","276824","0.0-13.0-1.17","HLE1Ar9WiR","63d7c8b24017a56bcc3affe2","6617fad957f7c6a12ea16e26","6622cb6cd644ca17359f54f3","image grid"," ","","","","","Phylogenetic_Distractor_notarget","2500","ongrid"," ","5","Phylogenetic","true","experimental"
"","null","html-keyboard-response","264","276982","0.0-13.0-2.17","HLE1Ar9WiR","63d7c8b24017a56bcc3affe2","6617fad957f7c6a12ea16e26","6622cb6cd644ca17359f54f3","
    <div id=""grid-container"">
        <!-- Grid items will be dynamically added here -->
    </div>    ","null","","","","","","","","","","","",""
"","null","html-keyboard-response","265","277716","0.0-13.0-0.18","HLE1Ar9WiR","63d7c8b24017a56bcc3affe2","6617fad957f7c6a12ea16e26","6622cb6cd644ca17359f54f3","fixation cross","null","","","","","","","","","","","",""
"","1137","html-keyboard-response","266","278854","0.0-13.0-1.18","HLE1Ar9WiR","63d7c8b24017a56bcc3affe2","6617fad957f7c6a12ea16e26","6622cb6cd644ca17359f54f3","image grid"," ","","","","","Phylogenetic_Distractor_notarget","2500","ongrid"," ","7","Phylogenetic","true","experimental"
"","null","html-keyboard-response","267","279021","0.0-13.0-2.18","HLE1Ar9WiR","63d7c8b24017a56bcc3affe2","6617fad957f7c6a12ea16e26","6622cb6cd644ca17359f54f3","
    <div id=""grid-container"">
        <!-- Grid items will be dynamically added here -->
    </div>    ","null","","","","","","","","","","","",""
"","null","html-keyboard-response","268","279737","0.0-13.0-0.19","HLE1Ar9WiR","63d7c8b24017a56bcc3affe2","6617fad957f7c6a12ea16e26","6622cb6cd644ca17359f54f3","fixation cross","null","","","","","","","","","","","",""
"","1031","html-keyboard-response","269","280769","0.0-13.0-1.19","HLE1Ar9WiR","63d7c8b24017a56bcc3affe2","6617fad957f7c6a12ea16e26","6622cb6cd644ca17359f54f3","image grid"," ","","","","","Phylogenetic_Distractor_Threat_target","2500","ongrid","q","9","Phylogenetic","false","experimental"
"","null","html-keyboard-response","270","280922","0.0-13.0-2.19","HLE1Ar9WiR","63d7c8b24017a56bcc3affe2","6617fad957f7c6a12ea16e26","6622cb6cd644ca17359f54f3","
    <div id=""grid-container"">
        <!-- Grid items will be dynamically added here -->
    </div>    ","null","","","","","","","","","","","",""
"","null","html-keyboard-response","271","281692","0.0-13.0-0.20","HLE1Ar9WiR","63d7c8b24017a56bcc3affe2","6617fad957f7c6a12ea16e26","6622cb6cd644ca17359f54f3","fixation cross","null","","","","","","","","","","","",""
"","1460","html-keyboard-response","272","283154","0.0-13.0-1.20","HLE1Ar9WiR","63d7c8b24017a56bcc3affe2","6617fad957f7c6a12ea16e26","6622cb6cd644ca17359f54f3","image grid"," ","","","","","Phylogenetic_Distractor_notarget","2500","ongrid"," ","6","Phylogenetic","true","experimental"
"","null","html-keyboard-response","273","283322","0.0-13.0-2.20","HLE1Ar9WiR","63d7c8b24017a56bcc3affe2","6617fad957f7c6a12ea16e26","6622cb6cd644ca17359f54f3","
    <div id=""grid-container"">
        <!-- Grid items will be dynamically added here -->
    </div>    ","null","","","","","","","","","","","",""
"","null","html-keyboard-response","274","284047","0.0-13.0-0.21","HLE1Ar9WiR","63d7c8b24017a56bcc3affe2","6617fad957f7c6a12ea16e26","6622cb6cd644ca17359f54f3","fixation cross","null","","","","","","","","","","","",""
"","973","html-keyboard-response","275","285021","0.0-13.0-1.21","HLE1Ar9WiR","63d7c8b24017a56bcc3affe2","6617fad957f7c6a12ea16e26","6622cb6cd644ca17359f54f3","image grid","q","","","","","Phylogenetic_Distractor_Threat_target","2500","ongrid","q","9","Phylogenetic","true","experimental"
"","null","html-keyboard-response","276","285184","0.0-13.0-2.21","HLE1Ar9WiR","63d7c8b24017a56bcc3affe2","6617fad957f7c6a12ea16e26","6622cb6cd644ca17359f54f3","
    <div id=""grid-container"">
        <!-- Grid items will be dynamically added here -->
    </div>    ","null","","","","","","","","","","","",""
"","null","html-keyboard-response","277","285897","0.0-13.0-0.22","HLE1Ar9WiR","63d7c8b24017a56bcc3affe2","6617fad957f7c6a12ea16e26","6622cb6cd644ca17359f54f3","fixation cross","null","","","","","","","","","","","",""
"","968","html-keyboard-response","278","286867","0.0-13.0-1.22","HLE1Ar9WiR","63d7c8b24017a56bcc3affe2","6617fad957f7c6a12ea16e26","6622cb6cd644ca17359f54f3","image grid","q","","","","","Phylogenetic_Distractor_Threat_target","2500","ongrid","q","8","Phylogenetic","true","experimental"
"","null","html-keyboard-response","279","287038","0.0-13.0-2.22","HLE1Ar9WiR","63d7c8b24017a56bcc3affe2","6617fad957f7c6a12ea16e26","6622cb6cd644ca17359f54f3","
    <div id=""grid-container"">
        <!-- Grid items will be dynamically added here -->
    </div>    ","null","","","","","","","","","","","",""
"","null","html-keyboard-response","280","287755","0.0-13.0-0.23","HLE1Ar9WiR","63d7c8b24017a56bcc3affe2","6617fad957f7c6a12ea16e26","6622cb6cd644ca17359f54f3","fixation cross","null","","","","","","","","","","","",""
"","1157","html-keyboard-response","281","288913","0.0-13.0-1.23","HLE1Ar9WiR","63d7c8b24017a56bcc3affe2","6617fad957f7c6a12ea16e26","6622cb6cd644ca17359f54f3","image grid","p","","","","","Phylogenetic_Distractor_Nonthreat_target","2500","ongrid","p","7","Phylogenetic","true","experimental"
"","null","html-keyboard-response","282","289080","0.0-13.0-2.23","HLE1Ar9WiR","63d7c8b24017a56bcc3affe2","6617fad957f7c6a12ea16e26","6622cb6cd644ca17359f54f3","
    <div id=""grid-container"">
        <!-- Grid items will be dynamically added here -->
    </div>    ","null","","","","","","","","","","","",""
"","null","html-keyboard-response","283","289795","0.0-13.0-0.24","HLE1Ar9WiR","63d7c8b24017a56bcc3affe2","6617fad957f7c6a12ea16e26","6622cb6cd644ca17359f54f3","fixation cross","null","","","","","","","","","","","",""
"","936","html-keyboard-response","284","290732","0.0-13.0-1.24","HLE1Ar9WiR","63d7c8b24017a56bcc3affe2","6617fad957f7c6a12ea16e26","6622cb6cd644ca17359f54f3","image grid","p","","","","","Phylogenetic_Distractor_Nonthreat_target","2500","ongrid","p","7","Phylogenetic","true","experimental"
"","null","html-keyboard-response","285","290890","0.0-13.0-2.24","HLE1Ar9WiR","63d7c8b24017a56bcc3affe2","6617fad957f7c6a12ea16e26","6622cb6cd644ca17359f54f3","
    <div id=""grid-container"">
        <!-- Grid items will be dynamically added here -->
    </div>    ","null","","","","","","","","","","","",""
"","null","html-keyboard-response","286","291620","0.0-13.0-0.25","HLE1Ar9WiR","63d7c8b24017a56bcc3affe2","6617fad957f7c6a12ea16e26","6622cb6cd644ca17359f54f3","fixation cross","null","","","","","","","","","","","",""
"","781","html-keyboard-response","287","292405","0.0-13.0-1.25","HLE1Ar9WiR","63d7c8b24017a56bcc3affe2","6617fad957f7c6a12ea16e26","6622cb6cd644ca17359f54f3","image grid","q","","","","","Phylogenetic_Distractor_Threat_target","2500","ongrid","q","8","Phylogenetic","true","experimental"
"","null","html-keyboard-response","288","292571","0.0-13.0-2.25","HLE1Ar9WiR","63d7c8b24017a56bcc3affe2","6617fad957f7c6a12ea16e26","6622cb6cd644ca17359f54f3","
    <div id=""grid-container"">
        <!-- Grid items will be dynamically added here -->
    </div>    ","null","","","","","","","","","","","",""
"","null","html-keyboard-response","289","293289","0.0-13.0-0.26","HLE1Ar9WiR","63d7c8b24017a56bcc3affe2","6617fad957f7c6a12ea16e26","6622cb6cd644ca17359f54f3","fixation cross","null","","","","","","","","","","","",""
"","781","html-keyboard-response","290","294073","0.0-13.0-1.26","HLE1Ar9WiR","63d7c8b24017a56bcc3affe2","6617fad957f7c6a12ea16e26","6622cb6cd644ca17359f54f3","image grid","q","","","","","Phylogenetic_Distractor_Threat_target","2500","ongrid","q","3","Phylogenetic","true","experimental"
"","null","html-keyboard-response","291","294242","0.0-13.0-2.26","HLE1Ar9WiR","63d7c8b24017a56bcc3affe2","6617fad957f7c6a12ea16e26","6622cb6cd644ca17359f54f3","
    <div id=""grid-container"">
        <!-- Grid items will be dynamically added here -->
    </div>    ","null","","","","","","","","","","","",""
"","null","html-keyboard-response","292","294960","0.0-13.0-0.27","HLE1Ar9WiR","63d7c8b24017a56bcc3affe2","6617fad957f7c6a12ea16e26","6622cb6cd644ca17359f54f3","fixation cross","null","","","","","","","","","","","",""
"","1355","html-keyboard-response","293","296318","0.0-13.0-1.27","HLE1Ar9WiR","63d7c8b24017a56bcc3affe2","6617fad957f7c6a12ea16e26","6622cb6cd644ca17359f54f3","image grid","p","","","","","Phylogenetic_Distractor_Nonthreat_target","2500","ongrid","p","8","Phylogenetic","true","experimental"
"","null","html-keyboard-response","294","296486","0.0-13.0-2.27","HLE1Ar9WiR","63d7c8b24017a56bcc3affe2","6617fad957f7c6a12ea16e26","6622cb6cd644ca17359f54f3","
    <div id=""grid-container"">
        <!-- Grid items will be dynamically added here -->
    </div>    ","null","","","","","","","","","","","",""
"","null","html-keyboard-response","295","297205","0.0-13.0-0.28","HLE1Ar9WiR","63d7c8b24017a56bcc3affe2","6617fad957f7c6a12ea16e26","6622cb6cd644ca17359f54f3","fixation cross","null","","","","","","","","","","","",""
"","1246","html-keyboard-response","296","298453","0.0-13.0-1.28","HLE1Ar9WiR","63d7c8b24017a56bcc3affe2","6617fad957f7c6a12ea16e26","6622cb6cd644ca17359f54f3","image grid","p","","","","","Phylogenetic_Distractor_Nonthreat_target","2500","ongrid","p","9","Phylogenetic","true","experimental"
"","null","html-keyboard-response","297","298607","0.0-13.0-2.28","HLE1Ar9WiR","63d7c8b24017a56bcc3affe2","6617fad957f7c6a12ea16e26","6622cb6cd644ca17359f54f3","
    <div id=""grid-container"">
        <!-- Grid items will be dynamically added here -->
    </div>    ","null","","","","","","","","","","","",""
"","null","html-keyboard-response","298","299316","0.0-13.0-0.29","HLE1Ar9WiR","63d7c8b24017a56bcc3affe2","6617fad957f7c6a12ea16e26","6622cb6cd644ca17359f54f3","fixation cross","null","","","","","","","","","","","",""
"","786","html-keyboard-response","299","300103","0.0-13.0-1.29","HLE1Ar9WiR","63d7c8b24017a56bcc3affe2","6617fad957f7c6a12ea16e26","6622cb6cd644ca17359f54f3","image grid","p","","","","","Phylogenetic_Distractor_Nonthreat_target","2500","ongrid","p","5","Phylogenetic","true","experimental"
"","null","html-keyboard-response","300","300264","0.0-13.0-2.29","HLE1Ar9WiR","63d7c8b24017a56bcc3affe2","6617fad957f7c6a12ea16e26","6622cb6cd644ca17359f54f3","
    <div id=""grid-container"">
        <!-- Grid items will be dynamically added here -->
    </div>    ","null","","","","","","","","","","","",""
"","null","html-keyboard-response","301","300966","0.0-13.0-0.30","HLE1Ar9WiR","63d7c8b24017a56bcc3affe2","6617fad957f7c6a12ea16e26","6622cb6cd644ca17359f54f3","fixation cross","null","","","","","","","","","","","",""
"","1327","html-keyboard-response","302","302296","0.0-13.0-1.30","HLE1Ar9WiR","63d7c8b24017a56bcc3affe2","6617fad957f7c6a12ea16e26","6622cb6cd644ca17359f54f3","image grid","p","","","","","Phylogenetic_Distractor_Nonthreat_target","2500","ongrid","p","2","Phylogenetic","true","experimental"
"","null","html-keyboard-response","303","302465","0.0-13.0-2.30","HLE1Ar9WiR","63d7c8b24017a56bcc3affe2","6617fad957f7c6a12ea16e26","6622cb6cd644ca17359f54f3","
    <div id=""grid-container"">
        <!-- Grid items will be dynamically added here -->
    </div>    ","null","","","","","","","","","","","",""
"","null","html-keyboard-response","304","303180","0.0-13.0-0.31","HLE1Ar9WiR","63d7c8b24017a56bcc3affe2","6617fad957f7c6a12ea16e26","6622cb6cd644ca17359f54f3","fixation cross","null","","","","","","","","","","","",""
"","903","html-keyboard-response","305","304086","0.0-13.0-1.31","HLE1Ar9WiR","63d7c8b24017a56bcc3affe2","6617fad957f7c6a12ea16e26","6622cb6cd644ca17359f54f3","image grid","q","","","","","Phylogenetic_Distractor_Threat_target","2500","ongrid","q","6","Phylogenetic","true","experimental"
"","null","html-keyboard-response","306","304243","0.0-13.0-2.31","HLE1Ar9WiR","63d7c8b24017a56bcc3affe2","6617fad957f7c6a12ea16e26","6622cb6cd644ca17359f54f3","
    <div id=""grid-container"">
        <!-- Grid items will be dynamically added here -->
    </div>    ","null","","","","","","","","","","","",""
"","null","html-keyboard-response","307","304960","0.0-13.0-0.32","HLE1Ar9WiR","63d7c8b24017a56bcc3affe2","6617fad957f7c6a12ea16e26","6622cb6cd644ca17359f54f3","fixation cross","null","","","","","","","","","","","",""
"","985","html-keyboard-response","308","305948","0.0-13.0-1.32","HLE1Ar9WiR","63d7c8b24017a56bcc3affe2","6617fad957f7c6a12ea16e26","6622cb6cd644ca17359f54f3","image grid","p","","","","","Phylogenetic_Distractor_Nonthreat_target","2500","ongrid","p","3","Phylogenetic","true","experimental"
"","null","html-keyboard-response","309","306143","0.0-13.0-2.32","HLE1Ar9WiR","63d7c8b24017a56bcc3affe2","6617fad957f7c6a12ea16e26","6622cb6cd644ca17359f54f3","
    <div id=""grid-container"">
        <!-- Grid items will be dynamically added here -->
    </div>    ","null","","","","","","","","","","","",""
"","null","html-keyboard-response","310","306860","0.0-13.0-0.33","HLE1Ar9WiR","63d7c8b24017a56bcc3affe2","6617fad957f7c6a12ea16e26","6622cb6cd644ca17359f54f3","fixation cross","null","","","","","","","","","","","",""
"","1241","html-keyboard-response","311","308103","0.0-13.0-1.33","HLE1Ar9WiR","63d7c8b24017a56bcc3affe2","6617fad957f7c6a12ea16e26","6622cb6cd644ca17359f54f3","image grid"," ","","","","","Phylogenetic_Distractor_notarget","2500","ongrid"," ","9","Phylogenetic","true","experimental"
"","null","html-keyboard-response","312","308263","0.0-13.0-2.33","HLE1Ar9WiR","63d7c8b24017a56bcc3affe2","6617fad957f7c6a12ea16e26","6622cb6cd644ca17359f54f3","
    <div id=""grid-container"">
        <!-- Grid items will be dynamically added here -->
    </div>    ","null","","","","","","","","","","","",""
"","null","html-keyboard-response","313","308980","0.0-13.0-0.34","HLE1Ar9WiR","63d7c8b24017a56bcc3affe2","6617fad957f7c6a12ea16e26","6622cb6cd644ca17359f54f3","fixation cross","null","","","","","","","","","","","",""
"","1259","html-keyboard-response","314","310241","0.0-13.0-1.34","HLE1Ar9WiR","63d7c8b24017a56bcc3affe2","6617fad957f7c6a12ea16e26","6622cb6cd644ca17359f54f3","image grid","q","","","","","Phylogenetic_Distractor_Threat_target","2500","ongrid","q","8","Phylogenetic","true","experimental"
"","null","html-keyboard-response","315","310404","0.0-13.0-2.34","HLE1Ar9WiR","63d7c8b24017a56bcc3affe2","6617fad957f7c6a12ea16e26","6622cb6cd644ca17359f54f3","
    <div id=""grid-container"">
        <!-- Grid items will be dynamically added here -->
    </div>    ","null","","","","","","","","","","","",""
"","null","html-keyboard-response","316","311133","0.0-13.0-0.35","HLE1Ar9WiR","63d7c8b24017a56bcc3affe2","6617fad957f7c6a12ea16e26","6622cb6cd644ca17359f54f3","fixation cross","null","","","","","","","","","","","",""
"","1506","html-keyboard-response","317","312641","0.0-13.0-1.35","HLE1Ar9WiR","63d7c8b24017a56bcc3affe2","6617fad957f7c6a12ea16e26","6622cb6cd644ca17359f54f3","image grid","p","","","","","Phylogenetic_Distractor_Nonthreat_target","2500","ongrid","p","9","Phylogenetic","true","experimental"
"","null","html-keyboard-response","318","312801","0.0-13.0-2.35","HLE1Ar9WiR","63d7c8b24017a56bcc3affe2","6617fad957f7c6a12ea16e26","6622cb6cd644ca17359f54f3","
    <div id=""grid-container"">
        <!-- Grid items will be dynamically added here -->
    </div>    ","null","","","","","","","","","","","",""
"","null","html-keyboard-response","319","313519","0.0-13.0-0.36","HLE1Ar9WiR","63d7c8b24017a56bcc3affe2","6617fad957f7c6a12ea16e26","6622cb6cd644ca17359f54f3","fixation cross","null","","","","","","","","","","","",""
"","836","html-keyboard-response","320","314356","0.0-13.0-1.36","HLE1Ar9WiR","63d7c8b24017a56bcc3affe2","6617fad957f7c6a12ea16e26","6622cb6cd644ca17359f54f3","image grid","p","","","","","Phylogenetic_Distractor_Nonthreat_target","2500","ongrid","p","6","Phylogenetic","true","experimental"
"","null","html-keyboard-response","321","314519","0.0-13.0-2.36","HLE1Ar9WiR","63d7c8b24017a56bcc3affe2","6617fad957f7c6a12ea16e26","6622cb6cd644ca17359f54f3","
    <div id=""grid-container"">
        <!-- Grid items will be dynamically added here -->
    </div>    ","null","","","","","","","","","","","",""
"","null","html-keyboard-response","322","315236","0.0-13.0-0.37","HLE1Ar9WiR","63d7c8b24017a56bcc3affe2","6617fad957f7c6a12ea16e26","6622cb6cd644ca17359f54f3","fixation cross","null","","","","","","","","","","","",""
"","1066","html-keyboard-response","323","316304","0.0-13.0-1.37","HLE1Ar9WiR","63d7c8b24017a56bcc3affe2","6617fad957f7c6a12ea16e26","6622cb6cd644ca17359f54f3","image grid","q","","","","","Phylogenetic_Distractor_Threat_target","2500","ongrid","q","4","Phylogenetic","true","experimental"
"","null","html-keyboard-response","324","316468","0.0-13.0-2.37","HLE1Ar9WiR","63d7c8b24017a56bcc3affe2","6617fad957f7c6a12ea16e26","6622cb6cd644ca17359f54f3","
    <div id=""grid-container"">
        <!-- Grid items will be dynamically added here -->
    </div>    ","null","","","","","","","","","","","",""
"","null","html-keyboard-response","325","317182","0.0-13.0-0.38","HLE1Ar9WiR","63d7c8b24017a56bcc3affe2","6617fad957f7c6a12ea16e26","6622cb6cd644ca17359f54f3","fixation cross","null","","","","","","","","","","","",""
"","776","html-keyboard-response","326","317960","0.0-13.0-1.38","HLE1Ar9WiR","63d7c8b24017a56bcc3affe2","6617fad957f7c6a12ea16e26","6622cb6cd644ca17359f54f3","image grid","q","","","","","Phylogenetic_Distractor_Threat_target","2500","ongrid","q","7","Phylogenetic","true","experimental"
"","null","html-keyboard-response","327","318120","0.0-13.0-2.38","HLE1Ar9WiR","63d7c8b24017a56bcc3affe2","6617fad957f7c6a12ea16e26","6622cb6cd644ca17359f54f3","
    <div id=""grid-container"">
        <!-- Grid items will be dynamically added here -->
    </div>    ","null","","","","","","","","","","","",""
"","null","html-keyboard-response","328","318835","0.0-13.0-0.39","HLE1Ar9WiR","63d7c8b24017a56bcc3affe2","6617fad957f7c6a12ea16e26","6622cb6cd644ca17359f54f3","fixation cross","null","","","","","","","","","","","",""
"","967","html-keyboard-response","329","319803","0.0-13.0-1.39","HLE1Ar9WiR","63d7c8b24017a56bcc3affe2","6617fad957f7c6a12ea16e26","6622cb6cd644ca17359f54f3","image grid","p","","","","","Phylogenetic_Distractor_Nonthreat_target","2500","ongrid","p","6","Phylogenetic","true","experimental"
"","null","html-keyboard-response","330","319978","0.0-13.0-2.39","HLE1Ar9WiR","63d7c8b24017a56bcc3affe2","6617fad957f7c6a12ea16e26","6622cb6cd644ca17359f54f3","
    <div id=""grid-container"">
        <!-- Grid items will be dynamically added here -->
    </div>    ","null","","","","","","","","","","","",""
"","10797","html-keyboard-response","331","330993","0.0-14.0","HLE1Ar9WiR","63d7c8b24017a56bcc3affe2","6617fad957f7c6a12ea16e26","6622cb6cd644ca17359f54f3","break screen"," ","","","","","","","","","","","",""
"","null","html-keyboard-response","332","333516","0.0-15.0-0.0","HLE1Ar9WiR","63d7c8b24017a56bcc3affe2","6617fad957f7c6a12ea16e26","6622cb6cd644ca17359f54f3","fixation cross","null","","","","","","","","","","","",""
"","null","html-keyboard-response","333","334328","0.0-15.0-1.0","HLE1Ar9WiR","63d7c8b24017a56bcc3affe2","6617fad957f7c6a12ea16e26","6622cb6cd644ca17359f54f3","
        <div id=""grid-container"">
        <!-- Grid items will be dynamically added here -->
    </div>    ","null","","","","","","","","","","","",""
"","1217","html-keyboard-response","334","334748","0.0-15.0-2.0","HLE1Ar9WiR","63d7c8b24017a56bcc3affe2","6617fad957f7c6a12ea16e26","6622cb6cd644ca17359f54f3","mask grid"," ","","","","","Ontogenetic_Distractor_notarget","800","onmask"," ","9","Ontogenetic","true","experimental"
"","null","html-keyboard-response","335","335481","0.0-15.0-0.1","HLE1Ar9WiR","63d7c8b24017a56bcc3affe2","6617fad957f7c6a12ea16e26","6622cb6cd644ca17359f54f3","fixation cross","null","","","","","","","","","","","",""
"","null","html-keyboard-response","336","336289","0.0-15.0-1.1","HLE1Ar9WiR","63d7c8b24017a56bcc3affe2","6617fad957f7c6a12ea16e26","6622cb6cd644ca17359f54f3","
        <div id=""grid-container"">
        <!-- Grid items will be dynamically added here -->
    </div>    ","null","","","","","","","","","","","",""
"","5726","html-keyboard-response","337","341217","0.0-15.0-2.1","HLE1Ar9WiR","63d7c8b24017a56bcc3affe2","6617fad957f7c6a12ea16e26","6622cb6cd644ca17359f54f3","mask grid"," ","","","","","Ontogenetic_Distractor_Nonthreat_target","800","onmask","p","4","Ontogenetic","false","experimental"
"","null","html-keyboard-response","338","341950","0.0-15.0-0.2","HLE1Ar9WiR","63d7c8b24017a56bcc3affe2","6617fad957f7c6a12ea16e26","6622cb6cd644ca17359f54f3","fixation cross","null","","","","","","","","","","","",""
"","null","html-keyboard-response","339","342761","0.0-15.0-1.2","HLE1Ar9WiR","63d7c8b24017a56bcc3affe2","6617fad957f7c6a12ea16e26","6622cb6cd644ca17359f54f3","
        <div id=""grid-container"">
        <!-- Grid items will be dynamically added here -->
    </div>    ","null","","","","","","","","","","","",""
"","1450","html-keyboard-response","340","343412","0.0-15.0-2.2","HLE1Ar9WiR","63d7c8b24017a56bcc3affe2","6617fad957f7c6a12ea16e26","6622cb6cd644ca17359f54f3","mask grid","p","","","","","Ontogenetic_Distractor_Nonthreat_target","800","onmask","p","7","Ontogenetic","true","experimental"
"","null","html-keyboard-response","341","344133","0.0-15.0-0.3","HLE1Ar9WiR","63d7c8b24017a56bcc3affe2","6617fad957f7c6a12ea16e26","6622cb6cd644ca17359f54f3","fixation cross","null","","","","","","","","","","","",""
"","null","html-keyboard-response","342","344945","0.0-15.0-1.3","HLE1Ar9WiR","63d7c8b24017a56bcc3affe2","6617fad957f7c6a12ea16e26","6622cb6cd644ca17359f54f3","
        <div id=""grid-container"">
        <!-- Grid items will be dynamically added here -->
    </div>    ","null","","","","","","","","","","","",""
"","1069","html-keyboard-response","343","345216","0.0-15.0-2.3","HLE1Ar9WiR","63d7c8b24017a56bcc3affe2","6617fad957f7c6a12ea16e26","6622cb6cd644ca17359f54f3","mask grid","p","","","","","Ontogenetic_Distractor_Nonthreat_target","800","onmask","p","7","Ontogenetic","true","experimental"
"","null","html-keyboard-response","344","345926","0.0-15.0-0.4","HLE1Ar9WiR","63d7c8b24017a56bcc3affe2","6617fad957f7c6a12ea16e26","6622cb6cd644ca17359f54f3","fixation cross","null","","","","","","","","","","","",""
"","null","html-keyboard-response","345","346736","0.0-15.0-1.4","HLE1Ar9WiR","63d7c8b24017a56bcc3affe2","6617fad957f7c6a12ea16e26","6622cb6cd644ca17359f54f3","
        <div id=""grid-container"">
        <!-- Grid items will be dynamically added here -->
    </div>    ","null","","","","","","","","","","","",""
"","826","html-keyboard-response","346","346763","0.0-15.0-2.4","HLE1Ar9WiR","63d7c8b24017a56bcc3affe2","6617fad957f7c6a12ea16e26","6622cb6cd644ca17359f54f3","mask grid","q","","","","","Ontogenetic_Distractor_Threat_target","800","onmask","q","6","Ontogenetic","true","experimental"
"","null","html-keyboard-response","347","347483","0.0-15.0-0.5","HLE1Ar9WiR","63d7c8b24017a56bcc3affe2","6617fad957f7c6a12ea16e26","6622cb6cd644ca17359f54f3","fixation cross","null","","","","","","","","","","","",""
"","754","html-keyboard-response","348","348238","0.0-15.0-1.5","HLE1Ar9WiR","63d7c8b24017a56bcc3affe2","6617fad957f7c6a12ea16e26","6622cb6cd644ca17359f54f3","image grid","q","","","","","Ontogenetic_Distractor_Threat_target","800","ongrid","q","5","Ontogenetic","true","experimental"
"","null","html-keyboard-response","349","348396","0.0-15.0-2.5","HLE1Ar9WiR","63d7c8b24017a56bcc3affe2","6617fad957f7c6a12ea16e26","6622cb6cd644ca17359f54f3","
    <div id=""grid-container"">
        <!-- Grid items will be dynamically added here -->
    </div>    ","null","","","","","","","","","","","",""
"","null","html-keyboard-response","350","349127","0.0-15.0-0.6","HLE1Ar9WiR","63d7c8b24017a56bcc3affe2","6617fad957f7c6a12ea16e26","6622cb6cd644ca17359f54f3","fixation cross","null","","","","","","","","","","","",""
"","null","html-keyboard-response","351","349945","0.0-15.0-1.6","HLE1Ar9WiR","63d7c8b24017a56bcc3affe2","6617fad957f7c6a12ea16e26","6622cb6cd644ca17359f54f3","
        <div id=""grid-container"">
        <!-- Grid items will be dynamically added here -->
    </div>    ","null","","","","","","","","","","","",""
"","918","html-keyboard-response","352","350064","0.0-15.0-2.6","HLE1Ar9WiR","63d7c8b24017a56bcc3affe2","6617fad957f7c6a12ea16e26","6622cb6cd644ca17359f54f3","mask grid","p","","","","","Ontogenetic_Distractor_Nonthreat_target","800","onmask","p","3","Ontogenetic","true","experimental"
"","null","html-keyboard-response","353","350792","0.0-15.0-0.7","HLE1Ar9WiR","63d7c8b24017a56bcc3affe2","6617fad957f7c6a12ea16e26","6622cb6cd644ca17359f54f3","fixation cross","null","","","","","","","","","","","",""
"","747","html-keyboard-response","354","351541","0.0-15.0-1.7","HLE1Ar9WiR","63d7c8b24017a56bcc3affe2","6617fad957f7c6a12ea16e26","6622cb6cd644ca17359f54f3","image grid","p","","","","","Ontogenetic_Distractor_Nonthreat_target","800","ongrid","p","5","Ontogenetic","true","experimental"
"","null","html-keyboard-response","355","351711","0.0-15.0-2.7","HLE1Ar9WiR","63d7c8b24017a56bcc3affe2","6617fad957f7c6a12ea16e26","6622cb6cd644ca17359f54f3","
    <div id=""grid-container"">
        <!-- Grid items will be dynamically added here -->
    </div>    ","null","","","","","","","","","","","",""
"","null","html-keyboard-response","356","352416","0.0-15.0-0.8","HLE1Ar9WiR","63d7c8b24017a56bcc3affe2","6617fad957f7c6a12ea16e26","6622cb6cd644ca17359f54f3","fixation cross","null","","","","","","","","","","","",""
"","null","html-keyboard-response","357","353223","0.0-15.0-1.8","HLE1Ar9WiR","63d7c8b24017a56bcc3affe2","6617fad957f7c6a12ea16e26","6622cb6cd644ca17359f54f3","
        <div id=""grid-container"">
        <!-- Grid items will be dynamically added here -->
    </div>    ","null","","","","","","","","","","","",""
"","1191","html-keyboard-response","358","353616","0.0-15.0-2.8","HLE1Ar9WiR","63d7c8b24017a56bcc3affe2","6617fad957f7c6a12ea16e26","6622cb6cd644ca17359f54f3","mask grid","p","","","","","Ontogenetic_Distractor_Nonthreat_target","800","onmask","p","1","Ontogenetic","true","experimental"
"","null","html-keyboard-response","359","354331","0.0-15.0-0.9","HLE1Ar9WiR","63d7c8b24017a56bcc3affe2","6617fad957f7c6a12ea16e26","6622cb6cd644ca17359f54f3","fixation cross","null","","","","","","","","","","","",""
"","708","html-keyboard-response","360","355041","0.0-15.0-1.9","HLE1Ar9WiR","63d7c8b24017a56bcc3affe2","6617fad957f7c6a12ea16e26","6622cb6cd644ca17359f54f3","image grid","q","","","","","Ontogenetic_Distractor_Threat_target","800","ongrid","q","4","Ontogenetic","true","experimental"
"","null","html-keyboard-response","361","355202","0.0-15.0-2.9","HLE1Ar9WiR","63d7c8b24017a56bcc3affe2","6617fad957f7c6a12ea16e26","6622cb6cd644ca17359f54f3","
    <div id=""grid-container"">
        <!-- Grid items will be dynamically added here -->
    </div>    ","null","","","","","","","","","","","",""
"","null","html-keyboard-response","362","355919","0.0-15.0-0.10","HLE1Ar9WiR","63d7c8b24017a56bcc3affe2","6617fad957f7c6a12ea16e26","6622cb6cd644ca17359f54f3","fixation cross","null","","","","","","","","","","","",""
"","null","html-keyboard-response","363","356731","0.0-15.0-1.10","HLE1Ar9WiR","63d7c8b24017a56bcc3affe2","6617fad957f7c6a12ea16e26","6622cb6cd644ca17359f54f3","
        <div id=""grid-container"">
        <!-- Grid items will be dynamically added here -->
    </div>    ","null","","","","","","","","","","","",""
"","1039","html-keyboard-response","364","356972","0.0-15.0-2.10","HLE1Ar9WiR","63d7c8b24017a56bcc3affe2","6617fad957f7c6a12ea16e26","6622cb6cd644ca17359f54f3","mask grid","p","","","","","Ontogenetic_Distractor_Nonthreat_target","800","onmask","p","8","Ontogenetic","true","experimental"
"","null","html-keyboard-response","365","357695","0.0-15.0-0.11","HLE1Ar9WiR","63d7c8b24017a56bcc3affe2","6617fad957f7c6a12ea16e26","6622cb6cd644ca17359f54f3","fixation cross","null","","","","","","","","","","","",""
"","null","html-keyboard-response","366","358508","0.0-15.0-1.11","HLE1Ar9WiR","63d7c8b24017a56bcc3affe2","6617fad957f7c6a12ea16e26","6622cb6cd644ca17359f54f3","
        <div id=""grid-container"">
        <!-- Grid items will be dynamically added here -->
    </div>    ","null","","","","","","","","","","","",""
"","1014","html-keyboard-response","367","358723","0.0-15.0-2.11","HLE1Ar9WiR","63d7c8b24017a56bcc3affe2","6617fad957f7c6a12ea16e26","6622cb6cd644ca17359f54f3","mask grid","p","","","","","Ontogenetic_Distractor_Threat_target","800","onmask","q","4","Ontogenetic","false","experimental"
"","null","html-keyboard-response","368","359440","0.0-15.0-0.12","HLE1Ar9WiR","63d7c8b24017a56bcc3affe2","6617fad957f7c6a12ea16e26","6622cb6cd644ca17359f54f3","fixation cross","null","","","","","","","","","","","",""
"","null","html-keyboard-response","369","360261","0.0-15.0-1.12","HLE1Ar9WiR","63d7c8b24017a56bcc3affe2","6617fad957f7c6a12ea16e26","6622cb6cd644ca17359f54f3","
        <div id=""grid-container"">
        <!-- Grid items will be dynamically added here -->
    </div>    ","null","","","","","","","","","","","",""
