"success","rt","trial_type","trial_index","time_elapsed","internal_node_id","unique_identifier","subject_id","study_id","session_id","stimulus","response","timeout","failed_images","failed_audio","failed_video","task","time_manipulation","respondedwhen","correctresponse","targetimagelocation","blocktype","correct","roundtype"
"true","24678","fullscreen","0","25763","0.0-0.0","P9i5mIhWow","641e665144143d6ffe379ffe","6617fad957f7c6a12ea16e26","6622ce5f922a0fc246071ad8","","","","","","","","","","","","","",""
"","26367","html-keyboard-response","1","52146","0.0-1.0","P9i5mIhWow","641e665144143d6ffe379ffe","6617fad957f7c6a12ea16e26","6622ce5f922a0fc246071ad8","instruction screen 0","control","","","","","","","","","","","",""
"true","","preload","2","154465","0.0-2.0","P9i5mIhWow","641e665144143d6ffe379ffe","6617fad957f7c6a12ea16e26","6622ce5f922a0fc246071ad8","","","false","[]","[]","[]","","","","","","","",""
"","21167","html-keyboard-response","3","175646","0.0-3.0","P9i5mIhWow","641e665144143d6ffe379ffe","6617fad957f7c6a12ea16e26","6622ce5f922a0fc246071ad8","instruction screen 1"," ","","","","","","","","","","","",""
"","16767","html-keyboard-response","4","192424","0.0-4.0","P9i5mIhWow","641e665144143d6ffe379ffe","6617fad957f7c6a12ea16e26","6622ce5f922a0fc246071ad8","instruction screen 2","q","","","","","","","","","","","",""
"","5256","html-keyboard-response","5","197688","0.0-5.0","P9i5mIhWow","641e665144143d6ffe379ffe","6617fad957f7c6a12ea16e26","6622ce5f922a0fc246071ad8","instruction screen 3","p","","","","","","","","","","","",""
"","6945","html-keyboard-response","6","204639","0.0-6.0","P9i5mIhWow","641e665144143d6ffe379ffe","6617fad957f7c6a12ea16e26","6622ce5f922a0fc246071ad8","instruction screen 4"," ","","","","","","","","","","","",""
"","2437","html-keyboard-response","7","207081","0.0-7.0","P9i5mIhWow","641e665144143d6ffe379ffe","6617fad957f7c6a12ea16e26","6622ce5f922a0fc246071ad8","instruction screen 5"," ","","","","","","","","","","","",""
"","null","html-keyboard-response","8","207588","0.0-8.0","P9i5mIhWow","641e665144143d6ffe379ffe","6617fad957f7c6a12ea16e26","6622ce5f922a0fc246071ad8","fixation cross","null","","","","","","","","","","","",""
"","null","html-keyboard-response","9","208095","0.0-9.0-0.0","P9i5mIhWow","641e665144143d6ffe379ffe","6617fad957f7c6a12ea16e26","6622ce5f922a0fc246071ad8","fixation cross","null","","","","","","","","","","","",""
"","1769","html-keyboard-response","10","209868","0.0-9.0-1.0","P9i5mIhWow","641e665144143d6ffe379ffe","6617fad957f7c6a12ea16e26","6622ce5f922a0fc246071ad8","image grid"," ","","","","","Phylogenetic_Distractor_Nonthreat_target","3000","ongrid","p","1","Phylogenetic","false","practice"
"","null","html-keyboard-response","11","210136","0.0-9.0-2.0","P9i5mIhWow","641e665144143d6ffe379ffe","6617fad957f7c6a12ea16e26","6622ce5f922a0fc246071ad8","
    <div id=""grid-container"">
        <!-- Grid items will be dynamically added here -->
    </div>    ","null","","","","","","","","","","","",""
"","null","html-keyboard-response","12","211354","0.0-9.0-3.0","P9i5mIhWow","641e665144143d6ffe379ffe","6617fad957f7c6a12ea16e26","6622ce5f922a0fc246071ad8","feedback screen","null","","","","","","","","","","","",""
"","null","html-keyboard-response","13","211856","0.0-9.0-0.1","P9i5mIhWow","641e665144143d6ffe379ffe","6617fad957f7c6a12ea16e26","6622ce5f922a0fc246071ad8","fixation cross","null","","","","","","","","","","","",""
"","null","html-keyboard-response","14","214766","0.0-9.0-1.1","P9i5mIhWow","641e665144143d6ffe379ffe","6617fad957f7c6a12ea16e26","6622ce5f922a0fc246071ad8","
        <div id=""grid-container"">
        <!-- Grid items will be dynamically added here -->
    </div>    ","null","","","","","","","","","","","",""
"","6931","html-keyboard-response","15","218800","0.0-9.0-2.1","P9i5mIhWow","641e665144143d6ffe379ffe","6617fad957f7c6a12ea16e26","6622ce5f922a0fc246071ad8","mask grid","p","","","","","Phylogenetic_Distractor_Nonthreat_target","2900","onmask","p","6","Phylogenetic","true","practice"
"","192","html-keyboard-response","16","219199","0.0-9.0-3.1","P9i5mIhWow","641e665144143d6ffe379ffe","6617fad957f7c6a12ea16e26","6622ce5f922a0fc246071ad8","feedback screen"," ","","","","","","","","","","","",""
"","null","html-keyboard-response","17","219717","0.0-9.0-0.2","P9i5mIhWow","641e665144143d6ffe379ffe","6617fad957f7c6a12ea16e26","6622ce5f922a0fc246071ad8","fixation cross","null","","","","","","","","","","","",""
"","null","html-keyboard-response","18","222524","0.0-9.0-1.2","P9i5mIhWow","641e665144143d6ffe379ffe","6617fad957f7c6a12ea16e26","6622ce5f922a0fc246071ad8","
        <div id=""grid-container"">
        <!-- Grid items will be dynamically added here -->
    </div>    ","null","","","","","","","","","","","",""
"","2873","html-keyboard-response","19","222608","0.0-9.0-2.2","P9i5mIhWow","641e665144143d6ffe379ffe","6617fad957f7c6a12ea16e26","6622ce5f922a0fc246071ad8","mask grid"," ","","","","","Phylogenetic_Distractor_Nonthreat_target","2800","onmask","p","3","Phylogenetic","false","practice"
"","null","html-keyboard-response","20","223833","0.0-9.0-3.2","P9i5mIhWow","641e665144143d6ffe379ffe","6617fad957f7c6a12ea16e26","6622ce5f922a0fc246071ad8","feedback screen","null","","","","","","","","","","","",""
"","null","html-keyboard-response","21","224347","0.0-9.0-0.3","P9i5mIhWow","641e665144143d6ffe379ffe","6617fad957f7c6a12ea16e26","6622ce5f922a0fc246071ad8","fixation cross","null","","","","","","","","","","","",""
"","1552","html-keyboard-response","22","225916","0.0-9.0-1.3","P9i5mIhWow","641e665144143d6ffe379ffe","6617fad957f7c6a12ea16e26","6622ce5f922a0fc246071ad8","image grid"," ","","","","","Ontogenetic_Distractor_Threat_target","2700","ongrid","q","7","Phylogenetic","false","practice"
"","null","html-keyboard-response","23","226199","0.0-9.0-2.3","P9i5mIhWow","641e665144143d6ffe379ffe","6617fad957f7c6a12ea16e26","6622ce5f922a0fc246071ad8","
    <div id=""grid-container"">
        <!-- Grid items will be dynamically added here -->
    </div>    ","null","","","","","","","","","","","",""
"","null","html-keyboard-response","24","227419","0.0-9.0-3.3","P9i5mIhWow","641e665144143d6ffe379ffe","6617fad957f7c6a12ea16e26","6622ce5f922a0fc246071ad8","feedback screen","null","","","","","","","","","","","",""
"","null","html-keyboard-response","25","227937","0.0-9.0-0.4","P9i5mIhWow","641e665144143d6ffe379ffe","6617fad957f7c6a12ea16e26","6622ce5f922a0fc246071ad8","fixation cross","null","","","","","","","","","","","",""
"","1711","html-keyboard-response","26","229650","0.0-9.0-1.4","P9i5mIhWow","641e665144143d6ffe379ffe","6617fad957f7c6a12ea16e26","6622ce5f922a0fc246071ad8","image grid","p","","","","","Ontogenetic_Distractor_Threat_target","2600","ongrid","q","3","Phylogenetic","false","practice"
"","null","html-keyboard-response","27","229864","0.0-9.0-2.4","P9i5mIhWow","641e665144143d6ffe379ffe","6617fad957f7c6a12ea16e26","6622ce5f922a0fc246071ad8","
    <div id=""grid-container"">
        <!-- Grid items will be dynamically added here -->
    </div>    ","null","","","","","","","","","","","",""
"","null","html-keyboard-response","28","231085","0.0-9.0-3.4","P9i5mIhWow","641e665144143d6ffe379ffe","6617fad957f7c6a12ea16e26","6622ce5f922a0fc246071ad8","feedback screen","null","","","","","","","","","","","",""
"","null","html-keyboard-response","29","231602","0.0-9.0-0.5","P9i5mIhWow","641e665144143d6ffe379ffe","6617fad957f7c6a12ea16e26","6622ce5f922a0fc246071ad8","fixation cross","null","","","","","","","","","","","",""
"","954","html-keyboard-response","30","232560","0.0-9.0-1.5","P9i5mIhWow","641e665144143d6ffe379ffe","6617fad957f7c6a12ea16e26","6622ce5f922a0fc246071ad8","image grid","q","","","","","Ontogenetic_Distractor_Threat_target","2500","ongrid","q","1","Phylogenetic","true","practice"
"","null","html-keyboard-response","31","232748","0.0-9.0-2.5","P9i5mIhWow","641e665144143d6ffe379ffe","6617fad957f7c6a12ea16e26","6622ce5f922a0fc246071ad8","
    <div id=""grid-container"">
        <!-- Grid items will be dynamically added here -->
    </div>    ","null","","","","","","","","","","","",""
"","null","html-keyboard-response","32","233958","0.0-9.0-3.5","P9i5mIhWow","641e665144143d6ffe379ffe","6617fad957f7c6a12ea16e26","6622ce5f922a0fc246071ad8","feedback screen","null","","","","","","","","","","","",""
"","null","html-keyboard-response","33","234471","0.0-9.0-0.6","P9i5mIhWow","641e665144143d6ffe379ffe","6617fad957f7c6a12ea16e26","6622ce5f922a0fc246071ad8","fixation cross","null","","","","","","","","","","","",""
"","1999","html-keyboard-response","34","236471","0.0-9.0-1.6","P9i5mIhWow","641e665144143d6ffe379ffe","6617fad957f7c6a12ea16e26","6622ce5f922a0fc246071ad8","image grid","p","","","","","Ontogenetic_Distractor_Nonthreat_target","2400","ongrid","p","2","Phylogenetic","true","practice"
"","null","html-keyboard-response","35","236686","0.0-9.0-2.6","P9i5mIhWow","641e665144143d6ffe379ffe","6617fad957f7c6a12ea16e26","6622ce5f922a0fc246071ad8","
    <div id=""grid-container"">
        <!-- Grid items will be dynamically added here -->
    </div>    ","null","","","","","","","","","","","",""
"","null","html-keyboard-response","36","237904","0.0-9.0-3.6","P9i5mIhWow","641e665144143d6ffe379ffe","6617fad957f7c6a12ea16e26","6622ce5f922a0fc246071ad8","feedback screen","null","","","","","","","","","","","",""
"","null","html-keyboard-response","37","238408","0.0-9.0-0.7","P9i5mIhWow","641e665144143d6ffe379ffe","6617fad957f7c6a12ea16e26","6622ce5f922a0fc246071ad8","fixation cross","null","","","","","","","","","","","",""
"","null","html-keyboard-response","38","240723","0.0-9.0-1.7","P9i5mIhWow","641e665144143d6ffe379ffe","6617fad957f7c6a12ea16e26","6622ce5f922a0fc246071ad8","
        <div id=""grid-container"">
        <!-- Grid items will be dynamically added here -->
    </div>    ","null","","","","","","","","","","","",""
"","2556","html-keyboard-response","39","240981","0.0-9.0-2.7","P9i5mIhWow","641e665144143d6ffe379ffe","6617fad957f7c6a12ea16e26","6622ce5f922a0fc246071ad8","mask grid"," ","","","","","Phylogenetic_Distractor_notarget","2300","onmask"," ","4","Phylogenetic","true","practice"
"","null","html-keyboard-response","40","242198","0.0-9.0-3.7","P9i5mIhWow","641e665144143d6ffe379ffe","6617fad957f7c6a12ea16e26","6622ce5f922a0fc246071ad8","feedback screen","null","","","","","","","","","","","",""
"","null","html-keyboard-response","41","242716","0.0-9.0-0.8","P9i5mIhWow","641e665144143d6ffe379ffe","6617fad957f7c6a12ea16e26","6622ce5f922a0fc246071ad8","fixation cross","null","","","","","","","","","","","",""
"","null","html-keyboard-response","42","244926","0.0-9.0-1.8","P9i5mIhWow","641e665144143d6ffe379ffe","6617fad957f7c6a12ea16e26","6622ce5f922a0fc246071ad8","
        <div id=""grid-container"">
        <!-- Grid items will be dynamically added here -->
    </div>    ","null","","","","","","","","","","","",""
"","2947","html-keyboard-response","43","245674","0.0-9.0-2.8","P9i5mIhWow","641e665144143d6ffe379ffe","6617fad957f7c6a12ea16e26","6622ce5f922a0fc246071ad8","mask grid","q","","","","","Phylogenetic_Distractor_Threat_target","2200","onmask","q","4","Phylogenetic","true","practice"
"","null","html-keyboard-response","44","246899","0.0-9.0-3.8","P9i5mIhWow","641e665144143d6ffe379ffe","6617fad957f7c6a12ea16e26","6622ce5f922a0fc246071ad8","feedback screen","null","","","","","","","","","","","",""
"","null","html-keyboard-response","45","247418","0.0-9.0-0.9","P9i5mIhWow","641e665144143d6ffe379ffe","6617fad957f7c6a12ea16e26","6622ce5f922a0fc246071ad8","fixation cross","null","","","","","","","","","","","",""
"","2044","html-keyboard-response","46","249464","0.0-9.0-1.9","P9i5mIhWow","641e665144143d6ffe379ffe","6617fad957f7c6a12ea16e26","6622ce5f922a0fc246071ad8","image grid","p","","","","","Ontogenetic_Distractor_notarget","2100","ongrid"," ","3","Phylogenetic","false","practice"
"","null","html-keyboard-response","47","249665","0.0-9.0-2.9","P9i5mIhWow","641e665144143d6ffe379ffe","6617fad957f7c6a12ea16e26","6622ce5f922a0fc246071ad8","
    <div id=""grid-container"">
        <!-- Grid items will be dynamically added here -->
    </div>    ","null","","","","","","","","","","","",""
"","null","html-keyboard-response","48","250880","0.0-9.0-3.9","P9i5mIhWow","641e665144143d6ffe379ffe","6617fad957f7c6a12ea16e26","6622ce5f922a0fc246071ad8","feedback screen","null","","","","","","","","","","","",""
"","null","html-keyboard-response","49","251383","0.0-9.0-0.10","P9i5mIhWow","641e665144143d6ffe379ffe","6617fad957f7c6a12ea16e26","6622ce5f922a0fc246071ad8","fixation cross","null","","","","","","","","","","","",""
"","1250","html-keyboard-response","50","252634","0.0-9.0-1.10","P9i5mIhWow","641e665144143d6ffe379ffe","6617fad957f7c6a12ea16e26","6622ce5f922a0fc246071ad8","image grid","p","","","","","Ontogenetic_Distractor_Nonthreat_target","2000","ongrid","p","3","Phylogenetic","true","practice"
"","null","html-keyboard-response","51","252831","0.0-9.0-2.10","P9i5mIhWow","641e665144143d6ffe379ffe","6617fad957f7c6a12ea16e26","6622ce5f922a0fc246071ad8","
    <div id=""grid-container"">
        <!-- Grid items will be dynamically added here -->
    </div>    ","null","","","","","","","","","","","",""
"","null","html-keyboard-response","52","254057","0.0-9.0-3.10","P9i5mIhWow","641e665144143d6ffe379ffe","6617fad957f7c6a12ea16e26","6622ce5f922a0fc246071ad8","feedback screen","null","","","","","","","","","","","",""
"","null","html-keyboard-response","53","254570","0.0-9.0-0.11","P9i5mIhWow","641e665144143d6ffe379ffe","6617fad957f7c6a12ea16e26","6622ce5f922a0fc246071ad8","fixation cross","null","","","","","","","","","","","",""
"","909","html-keyboard-response","54","255482","0.0-9.0-1.11","P9i5mIhWow","641e665144143d6ffe379ffe","6617fad957f7c6a12ea16e26","6622ce5f922a0fc246071ad8","image grid","p","","","","","Ontogenetic_Distractor_Nonthreat_target","1900","ongrid","p","3","Phylogenetic","true","practice"
"","null","html-keyboard-response","55","255682","0.0-9.0-2.11","P9i5mIhWow","641e665144143d6ffe379ffe","6617fad957f7c6a12ea16e26","6622ce5f922a0fc246071ad8","
    <div id=""grid-container"">
        <!-- Grid items will be dynamically added here -->
    </div>    ","null","","","","","","","","","","","",""
"","null","html-keyboard-response","56","256900","0.0-9.0-3.11","P9i5mIhWow","641e665144143d6ffe379ffe","6617fad957f7c6a12ea16e26","6622ce5f922a0fc246071ad8","feedback screen","null","","","","","","","","","","","",""
"","null","html-keyboard-response","57","257417","0.0-9.0-0.12","P9i5mIhWow","641e665144143d6ffe379ffe","6617fad957f7c6a12ea16e26","6622ce5f922a0fc246071ad8","fixation cross","null","","","","","","","","","","","",""
"","null","html-keyboard-response","58","259232","0.0-9.0-1.12","P9i5mIhWow","641e665144143d6ffe379ffe","6617fad957f7c6a12ea16e26","6622ce5f922a0fc246071ad8","
        <div id=""grid-container"">
        <!-- Grid items will be dynamically added here -->
    </div>    ","null","","","","","","","","","","","",""
"","1888","html-keyboard-response","59","259321","0.0-9.0-2.12","P9i5mIhWow","641e665144143d6ffe379ffe","6617fad957f7c6a12ea16e26","6622ce5f922a0fc246071ad8","mask grid"," ","","","","","Phylogenetic_Distractor_notarget","1800","onmask"," ","6","Phylogenetic","true","practice"
"","null","html-keyboard-response","60","260535","0.0-9.0-3.12","P9i5mIhWow","641e665144143d6ffe379ffe","6617fad957f7c6a12ea16e26","6622ce5f922a0fc246071ad8","feedback screen","null","","","","","","","","","","","",""
"","null","html-keyboard-response","61","261039","0.0-9.0-0.13","P9i5mIhWow","641e665144143d6ffe379ffe","6617fad957f7c6a12ea16e26","6622ce5f922a0fc246071ad8","fixation cross","null","","","","","","","","","","","",""
"","1531","html-keyboard-response","62","262571","0.0-9.0-1.13","P9i5mIhWow","641e665144143d6ffe379ffe","6617fad957f7c6a12ea16e26","6622ce5f922a0fc246071ad8","image grid"," ","","","","","Phylogenetic_Distractor_Nonthreat_target","1700","ongrid","p","4","Phylogenetic","false","practice"
"","null","html-keyboard-response","63","262762","0.0-9.0-2.13","P9i5mIhWow","641e665144143d6ffe379ffe","6617fad957f7c6a12ea16e26","6622ce5f922a0fc246071ad8","
    <div id=""grid-container"">
        <!-- Grid items will be dynamically added here -->
    </div>    ","null","","","","","","","","","","","",""
"","null","html-keyboard-response","64","263985","0.0-9.0-3.13","P9i5mIhWow","641e665144143d6ffe379ffe","6617fad957f7c6a12ea16e26","6622ce5f922a0fc246071ad8","feedback screen","null","","","","","","","","","","","",""
"","null","html-keyboard-response","65","264496","0.0-9.0-0.14","P9i5mIhWow","641e665144143d6ffe379ffe","6617fad957f7c6a12ea16e26","6622ce5f922a0fc246071ad8","fixation cross","null","","","","","","","","","","","",""
"","null","html-keyboard-response","66","266113","0.0-9.0-1.14","P9i5mIhWow","641e665144143d6ffe379ffe","6617fad957f7c6a12ea16e26","6622ce5f922a0fc246071ad8","
        <div id=""grid-container"">
        <!-- Grid items will be dynamically added here -->
    </div>    ","null","","","","","","","","","","","",""
"","2309","html-keyboard-response","67","266824","0.0-9.0-2.14","P9i5mIhWow","641e665144143d6ffe379ffe","6617fad957f7c6a12ea16e26","6622ce5f922a0fc246071ad8","mask grid","p","","","","","Phylogenetic_Distractor_Threat_target","1600","onmask","q","7","Phylogenetic","false","practice"
"","null","html-keyboard-response","68","268047","0.0-9.0-3.14","P9i5mIhWow","641e665144143d6ffe379ffe","6617fad957f7c6a12ea16e26","6622ce5f922a0fc246071ad8","feedback screen","null","","","","","","","","","","","",""
"","null","html-keyboard-response","69","268561","0.0-9.0-0.15","P9i5mIhWow","641e665144143d6ffe379ffe","6617fad957f7c6a12ea16e26","6622ce5f922a0fc246071ad8","fixation cross","null","","","","","","","","","","","",""
"","1432","html-keyboard-response","70","269996","0.0-9.0-1.15","P9i5mIhWow","641e665144143d6ffe379ffe","6617fad957f7c6a12ea16e26","6622ce5f922a0fc246071ad8","image grid","p","","","","","Ontogenetic_Distractor_Nonthreat_target","1500","ongrid","p","1","Phylogenetic","true","practice"
"","null","html-keyboard-response","71","270190","0.0-9.0-2.15","P9i5mIhWow","641e665144143d6ffe379ffe","6617fad957f7c6a12ea16e26","6622ce5f922a0fc246071ad8","
    <div id=""grid-container"">
        <!-- Grid items will be dynamically added here -->
    </div>    ","null","","","","","","","","","","","",""
"","null","html-keyboard-response","72","271415","0.0-9.0-3.15","P9i5mIhWow","641e665144143d6ffe379ffe","6617fad957f7c6a12ea16e26","6622ce5f922a0fc246071ad8","feedback screen","null","","","","","","","","","","","",""
"","null","html-keyboard-response","73","271931","0.0-9.0-0.16","P9i5mIhWow","641e665144143d6ffe379ffe","6617fad957f7c6a12ea16e26","6622ce5f922a0fc246071ad8","fixation cross","null","","","","","","","","","","","",""
"","981","html-keyboard-response","74","272914","0.0-9.0-1.16","P9i5mIhWow","641e665144143d6ffe379ffe","6617fad957f7c6a12ea16e26","6622ce5f922a0fc246071ad8","image grid","q","","","","","Ontogenetic_Distractor_Threat_target","1400","ongrid","q","5","Phylogenetic","true","practice"
"","null","html-keyboard-response","75","273113","0.0-9.0-2.16","P9i5mIhWow","641e665144143d6ffe379ffe","6617fad957f7c6a12ea16e26","6622ce5f922a0fc246071ad8","
    <div id=""grid-container"">
        <!-- Grid items will be dynamically added here -->
    </div>    ","null","","","","","","","","","","","",""
"","null","html-keyboard-response","76","274337","0.0-9.0-3.16","P9i5mIhWow","641e665144143d6ffe379ffe","6617fad957f7c6a12ea16e26","6622ce5f922a0fc246071ad8","feedback screen","null","","","","","","","","","","","",""
"","null","html-keyboard-response","77","274854","0.0-9.0-0.17","P9i5mIhWow","641e665144143d6ffe379ffe","6617fad957f7c6a12ea16e26","6622ce5f922a0fc246071ad8","fixation cross","null","","","","","","","","","","","",""
"","null","html-keyboard-response","78","276171","0.0-9.0-1.17","P9i5mIhWow","641e665144143d6ffe379ffe","6617fad957f7c6a12ea16e26","6622ce5f922a0fc246071ad8","
        <div id=""grid-container"">
        <!-- Grid items will be dynamically added here -->
    </div>    ","null","","","","","","","","","","","",""
"","1517","html-keyboard-response","79","276390","0.0-9.0-2.17","P9i5mIhWow","641e665144143d6ffe379ffe","6617fad957f7c6a12ea16e26","6622ce5f922a0fc246071ad8","mask grid","q","","","","","Phylogenetic_Distractor_Threat_target","1300","onmask","q","9","Phylogenetic","true","practice"
"","null","html-keyboard-response","80","277621","0.0-9.0-3.17","P9i5mIhWow","641e665144143d6ffe379ffe","6617fad957f7c6a12ea16e26","6622ce5f922a0fc246071ad8","feedback screen","null","","","","","","","","","","","",""
"","null","html-keyboard-response","81","278127","0.0-9.0-0.18","P9i5mIhWow","641e665144143d6ffe379ffe","6617fad957f7c6a12ea16e26","6622ce5f922a0fc246071ad8","fixation cross","null","","","","","","","","","","","",""
"","1059","html-keyboard-response","82","279188","0.0-9.0-1.18","P9i5mIhWow","641e665144143d6ffe379ffe","6617fad957f7c6a12ea16e26","6622ce5f922a0fc246071ad8","image grid","q","","","","","Phylogenetic_Distractor_Threat_target","1200","ongrid","q","6","Phylogenetic","true","practice"
"","null","html-keyboard-response","83","279388","0.0-9.0-2.18","P9i5mIhWow","641e665144143d6ffe379ffe","6617fad957f7c6a12ea16e26","6622ce5f922a0fc246071ad8","
    <div id=""grid-container"">
        <!-- Grid items will be dynamically added here -->
    </div>    ","null","","","","","","","","","","","",""
"","null","html-keyboard-response","84","280603","0.0-9.0-3.18","P9i5mIhWow","641e665144143d6ffe379ffe","6617fad957f7c6a12ea16e26","6622ce5f922a0fc246071ad8","feedback screen","null","","","","","","","","","","","",""
"","null","html-keyboard-response","85","281114","0.0-9.0-0.19","P9i5mIhWow","641e665144143d6ffe379ffe","6617fad957f7c6a12ea16e26","6622ce5f922a0fc246071ad8","fixation cross","null","","","","","","","","","","","",""
"","null","html-keyboard-response","86","282232","0.0-9.0-1.19","P9i5mIhWow","641e665144143d6ffe379ffe","6617fad957f7c6a12ea16e26","6622ce5f922a0fc246071ad8","
        <div id=""grid-container"">
        <!-- Grid items will be dynamically added here -->
    </div>    ","null","","","","","","","","","","","",""
"","1273","html-keyboard-response","87","282408","0.0-9.0-2.19","P9i5mIhWow","641e665144143d6ffe379ffe","6617fad957f7c6a12ea16e26","6622ce5f922a0fc246071ad8","mask grid"," ","","","","","Ontogenetic_Distractor_notarget","1100","onmask"," ","3","Phylogenetic","true","practice"
"","null","html-keyboard-response","88","283643","0.0-9.0-3.19","P9i5mIhWow","641e665144143d6ffe379ffe","6617fad957f7c6a12ea16e26","6622ce5f922a0fc246071ad8","feedback screen","null","","","","","","","","","","","",""
"","7172","html-keyboard-response","89","290825","0.0-10.0","P9i5mIhWow","641e665144143d6ffe379ffe","6617fad957f7c6a12ea16e26","6622ce5f922a0fc246071ad8","pre-experimental_briefing"," ","","","","","","","","","","","",""
"","null","html-keyboard-response","90","293346","0.0-11.0-0.0","P9i5mIhWow","641e665144143d6ffe379ffe","6617fad957f7c6a12ea16e26","6622ce5f922a0fc246071ad8","fixation cross","null","","","","","","","","","","","",""
"","2100","html-keyboard-response","91","295448","0.0-11.0-1.0","P9i5mIhWow","641e665144143d6ffe379ffe","6617fad957f7c6a12ea16e26","6622ce5f922a0fc246071ad8","image grid","q","","","","","Phylogenetic_Distractor_Threat_target","2500","ongrid","q","4","Phylogenetic","true","experimental"
"","null","html-keyboard-response","92","295669","0.0-11.0-2.0","P9i5mIhWow","641e665144143d6ffe379ffe","6617fad957f7c6a12ea16e26","6622ce5f922a0fc246071ad8","
    <div id=""grid-container"">
        <!-- Grid items will be dynamically added here -->
    </div>    ","null","","","","","","","","","","","",""
"","null","html-keyboard-response","93","296386","0.0-11.0-0.1","P9i5mIhWow","641e665144143d6ffe379ffe","6617fad957f7c6a12ea16e26","6622ce5f922a0fc246071ad8","fixation cross","null","","","","","","","","","","","",""
"","2337","html-keyboard-response","94","298725","0.0-11.0-1.1","P9i5mIhWow","641e665144143d6ffe379ffe","6617fad957f7c6a12ea16e26","6622ce5f922a0fc246071ad8","image grid"," ","","","","","Phylogenetic_Distractor_notarget","2500","ongrid"," ","8","Phylogenetic","true","experimental"
"","null","html-keyboard-response","95","298923","0.0-11.0-2.1","P9i5mIhWow","641e665144143d6ffe379ffe","6617fad957f7c6a12ea16e26","6622ce5f922a0fc246071ad8","
    <div id=""grid-container"">
        <!-- Grid items will be dynamically added here -->
    </div>    ","null","","","","","","","","","","","",""
"","null","html-keyboard-response","96","299644","0.0-11.0-0.2","P9i5mIhWow","641e665144143d6ffe379ffe","6617fad957f7c6a12ea16e26","6622ce5f922a0fc246071ad8","fixation cross","null","","","","","","","","","","","",""
"","2076","html-keyboard-response","97","301722","0.0-11.0-1.2","P9i5mIhWow","641e665144143d6ffe379ffe","6617fad957f7c6a12ea16e26","6622ce5f922a0fc246071ad8","image grid","p","","","","","Phylogenetic_Distractor_Nonthreat_target","2500","ongrid","p","6","Phylogenetic","true","experimental"
"","null","html-keyboard-response","98","301918","0.0-11.0-2.2","P9i5mIhWow","641e665144143d6ffe379ffe","6617fad957f7c6a12ea16e26","6622ce5f922a0fc246071ad8","
    <div id=""grid-container"">
        <!-- Grid items will be dynamically added here -->
    </div>    ","null","","","","","","","","","","","",""
"","null","html-keyboard-response","99","302627","0.0-11.0-0.3","P9i5mIhWow","641e665144143d6ffe379ffe","6617fad957f7c6a12ea16e26","6622ce5f922a0fc246071ad8","fixation cross","null","","","","","","","","","","","",""
"","1400","html-keyboard-response","100","304029","0.0-11.0-1.3","P9i5mIhWow","641e665144143d6ffe379ffe","6617fad957f7c6a12ea16e26","6622ce5f922a0fc246071ad8","image grid","q","","","","","Phylogenetic_Distractor_Threat_target","2500","ongrid","q","6","Phylogenetic","true","experimental"
"","null","html-keyboard-response","101","304223","0.0-11.0-2.3","P9i5mIhWow","641e665144143d6ffe379ffe","6617fad957f7c6a12ea16e26","6622ce5f922a0fc246071ad8","
    <div id=""grid-container"">
        <!-- Grid items will be dynamically added here -->
    </div>    ","null","","","","","","","","","","","",""
"","null","html-keyboard-response","102","304929","0.0-11.0-0.4","P9i5mIhWow","641e665144143d6ffe379ffe","6617fad957f7c6a12ea16e26","6622ce5f922a0fc246071ad8","fixation cross","null","","","","","","","","","","","",""
"","2081","html-keyboard-response","103","307012","0.0-11.0-1.4","P9i5mIhWow","641e665144143d6ffe379ffe","6617fad957f7c6a12ea16e26","6622ce5f922a0fc246071ad8","image grid","p","","","","","Phylogenetic_Distractor_Nonthreat_target","2500","ongrid","p","2","Phylogenetic","true","experimental"
"","null","html-keyboard-response","104","307185","0.0-11.0-2.4","P9i5mIhWow","641e665144143d6ffe379ffe","6617fad957f7c6a12ea16e26","6622ce5f922a0fc246071ad8","
    <div id=""grid-container"">
        <!-- Grid items will be dynamically added here -->
    </div>    ","null","","","","","","","","","","","",""
"","null","html-keyboard-response","105","307899","0.0-11.0-0.5","P9i5mIhWow","641e665144143d6ffe379ffe","6617fad957f7c6a12ea16e26","6622ce5f922a0fc246071ad8","fixation cross","null","","","","","","","","","","","",""
"","1682","html-keyboard-response","106","309581","0.0-11.0-1.5","P9i5mIhWow","641e665144143d6ffe379ffe","6617fad957f7c6a12ea16e26","6622ce5f922a0fc246071ad8","image grid","q","","","","","Phylogenetic_Distractor_Threat_target","2500","ongrid","q","9","Phylogenetic","true","experimental"
"","null","html-keyboard-response","107","309765","0.0-11.0-2.5","P9i5mIhWow","641e665144143d6ffe379ffe","6617fad957f7c6a12ea16e26","6622ce5f922a0fc246071ad8","
    <div id=""grid-container"">
        <!-- Grid items will be dynamically added here -->
    </div>    ","null","","","","","","","","","","","",""
"","null","html-keyboard-response","108","310474","0.0-11.0-0.6","P9i5mIhWow","641e665144143d6ffe379ffe","6617fad957f7c6a12ea16e26","6622ce5f922a0fc246071ad8","fixation cross","null","","","","","","","","","","","",""
"","1521","html-keyboard-response","109","311997","0.0-11.0-1.6","P9i5mIhWow","641e665144143d6ffe379ffe","6617fad957f7c6a12ea16e26","6622ce5f922a0fc246071ad8","image grid"," ","","","","","Phylogenetic_Distractor_Nonthreat_target","2500","ongrid","p","2","Phylogenetic","false","experimental"
"","null","html-keyboard-response","110","312185","0.0-11.0-2.6","P9i5mIhWow","641e665144143d6ffe379ffe","6617fad957f7c6a12ea16e26","6622ce5f922a0fc246071ad8","
    <div id=""grid-container"">
        <!-- Grid items will be dynamically added here -->
    </div>    ","null","","","","","","","","","","","",""
"","null","html-keyboard-response","111","312903","0.0-11.0-0.7","P9i5mIhWow","641e665144143d6ffe379ffe","6617fad957f7c6a12ea16e26","6622ce5f922a0fc246071ad8","fixation cross","null","","","","","","","","","","","",""
"","1227","html-keyboard-response","112","314132","0.0-11.0-1.7","P9i5mIhWow","641e665144143d6ffe379ffe","6617fad957f7c6a12ea16e26","6622ce5f922a0fc246071ad8","image grid","q","","","","","Phylogenetic_Distractor_Threat_target","2500","ongrid","q","1","Phylogenetic","true","experimental"
"","null","html-keyboard-response","113","314335","0.0-11.0-2.7","P9i5mIhWow","641e665144143d6ffe379ffe","6617fad957f7c6a12ea16e26","6622ce5f922a0fc246071ad8","
    <div id=""grid-container"">
        <!-- Grid items will be dynamically added here -->
    </div>    ","null","","","","","","","","","","","",""
"","null","html-keyboard-response","114","315047","0.0-11.0-0.8","P9i5mIhWow","641e665144143d6ffe379ffe","6617fad957f7c6a12ea16e26","6622ce5f922a0fc246071ad8","fixation cross","null","","","","","","","","","","","",""
"","2487","html-keyboard-response","115","317535","0.0-11.0-1.8","P9i5mIhWow","641e665144143d6ffe379ffe","6617fad957f7c6a12ea16e26","6622ce5f922a0fc246071ad8","image grid","p","","","","","Phylogenetic_Distractor_Nonthreat_target","2500","ongrid","p","6","Phylogenetic","true","experimental"
"","null","html-keyboard-response","116","317727","0.0-11.0-2.8","P9i5mIhWow","641e665144143d6ffe379ffe","6617fad957f7c6a12ea16e26","6622ce5f922a0fc246071ad8","
    <div id=""grid-container"">
        <!-- Grid items will be dynamically added here -->
    </div>    ","null","","","","","","","","","","","",""
"","null","html-keyboard-response","117","318449","0.0-11.0-0.9","P9i5mIhWow","641e665144143d6ffe379ffe","6617fad957f7c6a12ea16e26","6622ce5f922a0fc246071ad8","fixation cross","null","","","","","","","","","","","",""
"","1530","html-keyboard-response","118","319982","0.0-11.0-1.9","P9i5mIhWow","641e665144143d6ffe379ffe","6617fad957f7c6a12ea16e26","6622ce5f922a0fc246071ad8","image grid","q","","","","","Phylogenetic_Distractor_Threat_target","2500","ongrid","q","8","Phylogenetic","true","experimental"
"","null","html-keyboard-response","119","320176","0.0-11.0-2.9","P9i5mIhWow","641e665144143d6ffe379ffe","6617fad957f7c6a12ea16e26","6622ce5f922a0fc246071ad8","
    <div id=""grid-container"">
        <!-- Grid items will be dynamically added here -->
    </div>    ","null","","","","","","","","","","","",""
"","null","html-keyboard-response","120","320896","0.0-11.0-0.10","P9i5mIhWow","641e665144143d6ffe379ffe","6617fad957f7c6a12ea16e26","6622ce5f922a0fc246071ad8","fixation cross","null","","","","","","","","","","","",""
"","721","html-keyboard-response","121","321619","0.0-11.0-1.10","P9i5mIhWow","641e665144143d6ffe379ffe","6617fad957f7c6a12ea16e26","6622ce5f922a0fc246071ad8","image grid","q","","","","","Phylogenetic_Distractor_Threat_target","2500","ongrid","q","6","Phylogenetic","true","experimental"
"","null","html-keyboard-response","122","321830","0.0-11.0-2.10","P9i5mIhWow","641e665144143d6ffe379ffe","6617fad957f7c6a12ea16e26","6622ce5f922a0fc246071ad8","
    <div id=""grid-container"">
        <!-- Grid items will be dynamically added here -->
    </div>    ","null","","","","","","","","","","","",""
"","null","html-keyboard-response","123","322547","0.0-11.0-0.11","P9i5mIhWow","641e665144143d6ffe379ffe","6617fad957f7c6a12ea16e26","6622ce5f922a0fc246071ad8","fixation cross","null","","","","","","","","","","","",""
"","764","html-keyboard-response","124","323313","0.0-11.0-1.11","P9i5mIhWow","641e665144143d6ffe379ffe","6617fad957f7c6a12ea16e26","6622ce5f922a0fc246071ad8","image grid","q","","","","","Phylogenetic_Distractor_Threat_target","2500","ongrid","q","5","Phylogenetic","true","experimental"
"","null","html-keyboard-response","125","323508","0.0-11.0-2.11","P9i5mIhWow","641e665144143d6ffe379ffe","6617fad957f7c6a12ea16e26","6622ce5f922a0fc246071ad8","
    <div id=""grid-container"">
        <!-- Grid items will be dynamically added here -->
    </div>    ","null","","","","","","","","","","","",""
"","null","html-keyboard-response","126","324225","0.0-11.0-0.12","P9i5mIhWow","641e665144143d6ffe379ffe","6617fad957f7c6a12ea16e26","6622ce5f922a0fc246071ad8","fixation cross","null","","","","","","","","","","","",""
"","null","html-keyboard-response","127","326734","0.0-11.0-1.12","P9i5mIhWow","641e665144143d6ffe379ffe","6617fad957f7c6a12ea16e26","6622ce5f922a0fc246071ad8","
        <div id=""grid-container"">
        <!-- Grid items will be dynamically added here -->
    </div>    ","null","","","","","","","","","","","",""
"","2960","html-keyboard-response","128","327196","0.0-11.0-2.12","P9i5mIhWow","641e665144143d6ffe379ffe","6617fad957f7c6a12ea16e26","6622ce5f922a0fc246071ad8","mask grid","p","","","","","Phylogenetic_Distractor_Nonthreat_target","2500","onmask","p","8","Phylogenetic","true","experimental"
"","null","html-keyboard-response","129","327915","0.0-11.0-0.13","P9i5mIhWow","641e665144143d6ffe379ffe","6617fad957f7c6a12ea16e26","6622ce5f922a0fc246071ad8","fixation cross","null","","","","","","","","","","","",""
"","1187","html-keyboard-response","130","329104","0.0-11.0-1.13","P9i5mIhWow","641e665144143d6ffe379ffe","6617fad957f7c6a12ea16e26","6622ce5f922a0fc246071ad8","image grid","q","","","","","Phylogenetic_Distractor_Threat_target","2500","ongrid","q","8","Phylogenetic","true","experimental"
"","null","html-keyboard-response","131","329309","0.0-11.0-2.13","P9i5mIhWow","641e665144143d6ffe379ffe","6617fad957f7c6a12ea16e26","6622ce5f922a0fc246071ad8","
    <div id=""grid-container"">
        <!-- Grid items will be dynamically added here -->
    </div>    ","null","","","","","","","","","","","",""
"","null","html-keyboard-response","132","330041","0.0-11.0-0.14","P9i5mIhWow","641e665144143d6ffe379ffe","6617fad957f7c6a12ea16e26","6622ce5f922a0fc246071ad8","fixation cross","null","","","","","","","","","","","",""
"","1034","html-keyboard-response","133","331077","0.0-11.0-1.14","P9i5mIhWow","641e665144143d6ffe379ffe","6617fad957f7c6a12ea16e26","6622ce5f922a0fc246071ad8","image grid","q","","","","","Phylogenetic_Distractor_Threat_target","2500","ongrid","q","7","Phylogenetic","true","experimental"
"","null","html-keyboard-response","134","331285","0.0-11.0-2.14","P9i5mIhWow","641e665144143d6ffe379ffe","6617fad957f7c6a12ea16e26","6622ce5f922a0fc246071ad8","
    <div id=""grid-container"">
        <!-- Grid items will be dynamically added here -->
    </div>    ","null","","","","","","","","","","","",""
"","null","html-keyboard-response","135","331994","0.0-11.0-0.15","P9i5mIhWow","641e665144143d6ffe379ffe","6617fad957f7c6a12ea16e26","6622ce5f922a0fc246071ad8","fixation cross","null","","","","","","","","","","","",""
"","1144","html-keyboard-response","136","333139","0.0-11.0-1.15","P9i5mIhWow","641e665144143d6ffe379ffe","6617fad957f7c6a12ea16e26","6622ce5f922a0fc246071ad8","image grid","p","","","","","Phylogenetic_Distractor_Nonthreat_target","2500","ongrid","p","7","Phylogenetic","true","experimental"
"","null","html-keyboard-response","137","333334","0.0-11.0-2.15","P9i5mIhWow","641e665144143d6ffe379ffe","6617fad957f7c6a12ea16e26","6622ce5f922a0fc246071ad8","
    <div id=""grid-container"">
        <!-- Grid items will be dynamically added here -->
    </div>    ","null","","","","","","","","","","","",""
"","null","html-keyboard-response","138","334048","0.0-11.0-0.16","P9i5mIhWow","641e665144143d6ffe379ffe","6617fad957f7c6a12ea16e26","6622ce5f922a0fc246071ad8","fixation cross","null","","","","","","","","","","","",""
"","1474","html-keyboard-response","139","335523","0.0-11.0-1.16","P9i5mIhWow","641e665144143d6ffe379ffe","6617fad957f7c6a12ea16e26","6622ce5f922a0fc246071ad8","image grid","p","","","","","Phylogenetic_Distractor_Nonthreat_target","2500","ongrid","p","9","Phylogenetic","true","experimental"
"","null","html-keyboard-response","140","335709","0.0-11.0-2.16","P9i5mIhWow","641e665144143d6ffe379ffe","6617fad957f7c6a12ea16e26","6622ce5f922a0fc246071ad8","
    <div id=""grid-container"">
        <!-- Grid items will be dynamically added here -->
    </div>    ","null","","","","","","","","","","","",""
"","null","html-keyboard-response","141","336440","0.0-11.0-0.17","P9i5mIhWow","641e665144143d6ffe379ffe","6617fad957f7c6a12ea16e26","6622ce5f922a0fc246071ad8","fixation cross","null","","","","","","","","","","","",""
"","1396","html-keyboard-response","142","337839","0.0-11.0-1.17","P9i5mIhWow","641e665144143d6ffe379ffe","6617fad957f7c6a12ea16e26","6622ce5f922a0fc246071ad8","image grid","p","","","","","Phylogenetic_Distractor_Nonthreat_target","2500","ongrid","p","1","Phylogenetic","true","experimental"
"","null","html-keyboard-response","143","338031","0.0-11.0-2.17","P9i5mIhWow","641e665144143d6ffe379ffe","6617fad957f7c6a12ea16e26","6622ce5f922a0fc246071ad8","
    <div id=""grid-container"">
        <!-- Grid items will be dynamically added here -->
    </div>    ","null","","","","","","","","","","","",""
"","null","html-keyboard-response","144","338757","0.0-11.0-0.18","P9i5mIhWow","641e665144143d6ffe379ffe","6617fad957f7c6a12ea16e26","6622ce5f922a0fc246071ad8","fixation cross","null","","","","","","","","","","","",""
"","1722","html-keyboard-response","145","340481","0.0-11.0-1.18","P9i5mIhWow","641e665144143d6ffe379ffe","6617fad957f7c6a12ea16e26","6622ce5f922a0fc246071ad8","image grid","p","","","","","Phylogenetic_Distractor_Nonthreat_target","2500","ongrid","p","8","Phylogenetic","true","experimental"
"","null","html-keyboard-response","146","340680","0.0-11.0-2.18","P9i5mIhWow","641e665144143d6ffe379ffe","6617fad957f7c6a12ea16e26","6622ce5f922a0fc246071ad8","
    <div id=""grid-container"">
        <!-- Grid items will be dynamically added here -->
    </div>    ","null","","","","","","","","","","","",""
"","null","html-keyboard-response","147","341409","0.0-11.0-0.19","P9i5mIhWow","641e665144143d6ffe379ffe","6617fad957f7c6a12ea16e26","6622ce5f922a0fc246071ad8","fixation cross","null","","","","","","","","","","","",""
"","1814","html-keyboard-response","148","343226","0.0-11.0-1.19","P9i5mIhWow","641e665144143d6ffe379ffe","6617fad957f7c6a12ea16e26","6622ce5f922a0fc246071ad8","image grid"," ","","","","","Phylogenetic_Distractor_Nonthreat_target","2500","ongrid","p","1","Phylogenetic","false","experimental"
"","null","html-keyboard-response","149","343436","0.0-11.0-2.19","P9i5mIhWow","641e665144143d6ffe379ffe","6617fad957f7c6a12ea16e26","6622ce5f922a0fc246071ad8","
    <div id=""grid-container"">
        <!-- Grid items will be dynamically added here -->
    </div>    ","null","","","","","","","","","","","",""
"","null","html-keyboard-response","150","344158","0.0-11.0-0.20","P9i5mIhWow","641e665144143d6ffe379ffe","6617fad957f7c6a12ea16e26","6622ce5f922a0fc246071ad8","fixation cross","null","","","","","","","","","","","",""
"","1873","html-keyboard-response","151","346033","0.0-11.0-1.20","P9i5mIhWow","641e665144143d6ffe379ffe","6617fad957f7c6a12ea16e26","6622ce5f922a0fc246071ad8","image grid","p","","","","","Phylogenetic_Distractor_Nonthreat_target","2500","ongrid","p","3","Phylogenetic","true","experimental"
"","null","html-keyboard-response","152","346242","0.0-11.0-2.20","P9i5mIhWow","641e665144143d6ffe379ffe","6617fad957f7c6a12ea16e26","6622ce5f922a0fc246071ad8","
    <div id=""grid-container"">
        <!-- Grid items will be dynamically added here -->
    </div>    ","null","","","","","","","","","","","",""
"","null","html-keyboard-response","153","346964","0.0-11.0-0.21","P9i5mIhWow","641e665144143d6ffe379ffe","6617fad957f7c6a12ea16e26","6622ce5f922a0fc246071ad8","fixation cross","null","","","","","","","","","","","",""
"","1966","html-keyboard-response","154","348937","0.0-11.0-1.21","P9i5mIhWow","641e665144143d6ffe379ffe","6617fad957f7c6a12ea16e26","6622ce5f922a0fc246071ad8","image grid"," ","","","","","Phylogenetic_Distractor_Threat_target","2500","ongrid","q","2","Phylogenetic","false","experimental"
"","null","html-keyboard-response","155","349218","0.0-11.0-2.21","P9i5mIhWow","641e665144143d6ffe379ffe","6617fad957f7c6a12ea16e26","6622ce5f922a0fc246071ad8","
    <div id=""grid-container"">
        <!-- Grid items will be dynamically added here -->
    </div>    ","null","","","","","","","","","","","",""
"","null","html-keyboard-response","156","349927","0.0-11.0-0.22","P9i5mIhWow","641e665144143d6ffe379ffe","6617fad957f7c6a12ea16e26","6622ce5f922a0fc246071ad8","fixation cross","null","","","","","","","","","","","",""
"","1042","html-keyboard-response","157","350971","0.0-11.0-1.22","P9i5mIhWow","641e665144143d6ffe379ffe","6617fad957f7c6a12ea16e26","6622ce5f922a0fc246071ad8","image grid","p","","","","","Phylogenetic_Distractor_Nonthreat_target","2500","ongrid","p","1","Phylogenetic","true","experimental"
"","null","html-keyboard-response","158","351158","0.0-11.0-2.22","P9i5mIhWow","641e665144143d6ffe379ffe","6617fad957f7c6a12ea16e26","6622ce5f922a0fc246071ad8","
    <div id=""grid-container"">
        <!-- Grid items will be dynamically added here -->
    </div>    ","null","","","","","","","","","","","",""
"","null","html-keyboard-response","159","351878","0.0-11.0-0.23","P9i5mIhWow","641e665144143d6ffe379ffe","6617fad957f7c6a12ea16e26","6622ce5f922a0fc246071ad8","fixation cross","null","","","","","","","","","","","",""
"","1835","html-keyboard-response","160","353715","0.0-11.0-1.23","P9i5mIhWow","641e665144143d6ffe379ffe","6617fad957f7c6a12ea16e26","6622ce5f922a0fc246071ad8","image grid"," ","","","","","Phylogenetic_Distractor_notarget","2500","ongrid"," ","5","Phylogenetic","true","experimental"
"","null","html-keyboard-response","161","353906","0.0-11.0-2.23","P9i5mIhWow","641e665144143d6ffe379ffe","6617fad957f7c6a12ea16e26","6622ce5f922a0fc246071ad8","
    <div id=""grid-container"">
        <!-- Grid items will be dynamically added here -->
    </div>    ","null","","","","","","","","","","","",""
"","null","html-keyboard-response","162","354643","0.0-11.0-0.24","P9i5mIhWow","641e665144143d6ffe379ffe","6617fad957f7c6a12ea16e26","6622ce5f922a0fc246071ad8","fixation cross","null","","","","","","","","","","","",""
"","1049","html-keyboard-response","163","355697","0.0-11.0-1.24","P9i5mIhWow","641e665144143d6ffe379ffe","6617fad957f7c6a12ea16e26","6622ce5f922a0fc246071ad8","image grid","q","","","","","Phylogenetic_Distractor_Threat_target","2500","ongrid","q","6","Phylogenetic","true","experimental"
"","null","html-keyboard-response","164","355896","0.0-11.0-2.24","P9i5mIhWow","641e665144143d6ffe379ffe","6617fad957f7c6a12ea16e26","6622ce5f922a0fc246071ad8","
    <div id=""grid-container"">
        <!-- Grid items will be dynamically added here -->
    </div>    ","null","","","","","","","","","","","",""
"","null","html-keyboard-response","165","356609","0.0-11.0-0.25","P9i5mIhWow","641e665144143d6ffe379ffe","6617fad957f7c6a12ea16e26","6622ce5f922a0fc246071ad8","fixation cross","null","","","","","","","","","","","",""
"","999","html-keyboard-response","166","357610","0.0-11.0-1.25","P9i5mIhWow","641e665144143d6ffe379ffe","6617fad957f7c6a12ea16e26","6622ce5f922a0fc246071ad8","image grid","q","","","","","Phylogenetic_Distractor_Threat_target","2500","ongrid","q","7","Phylogenetic","true","experimental"
"","null","html-keyboard-response","167","357788","0.0-11.0-2.25","P9i5mIhWow","641e665144143d6ffe379ffe","6617fad957f7c6a12ea16e26","6622ce5f922a0fc246071ad8","
    <div id=""grid-container"">
        <!-- Grid items will be dynamically added here -->
    </div>    ","null","","","","","","","","","","","",""
"","null","html-keyboard-response","168","358493","0.0-11.0-0.26","P9i5mIhWow","641e665144143d6ffe379ffe","6617fad957f7c6a12ea16e26","6622ce5f922a0fc246071ad8","fixation cross","null","","","","","","","","","","","",""
"","1767","html-keyboard-response","169","360263","0.0-11.0-1.26","P9i5mIhWow","641e665144143d6ffe379ffe","6617fad957f7c6a12ea16e26","6622ce5f922a0fc246071ad8","image grid","q","","","","","Phylogenetic_Distractor_Threat_target","2500","ongrid","q","2","Phylogenetic","true","experimental"
"","null","html-keyboard-response","170","360456","0.0-11.0-2.26","P9i5mIhWow","641e665144143d6ffe379ffe","6617fad957f7c6a12ea16e26","6622ce5f922a0fc246071ad8","
    <div id=""grid-container"">
        <!-- Grid items will be dynamically added here -->
    </div>    ","null","","","","","","","","","","","",""
"","null","html-keyboard-response","171","361177","0.0-11.0-0.27","P9i5mIhWow","641e665144143d6ffe379ffe","6617fad957f7c6a12ea16e26","6622ce5f922a0fc246071ad8","fixation cross","null","","","","","","","","","","","",""
"","1230","html-keyboard-response","172","362408","0.0-11.0-1.27","P9i5mIhWow","641e665144143d6ffe379ffe","6617fad957f7c6a12ea16e26","6622ce5f922a0fc246071ad8","image grid","q","","","","","Phylogenetic_Distractor_Threat_target","2500","ongrid","q","4","Phylogenetic","true","experimental"
"","null","html-keyboard-response","173","362603","0.0-11.0-2.27","P9i5mIhWow","641e665144143d6ffe379ffe","6617fad957f7c6a12ea16e26","6622ce5f922a0fc246071ad8","
    <div id=""grid-container"">
        <!-- Grid items will be dynamically added here -->
    </div>    ","null","","","","","","","","","","","",""
"","null","html-keyboard-response","174","363321","0.0-11.0-0.28","P9i5mIhWow","641e665144143d6ffe379ffe","6617fad957f7c6a12ea16e26","6622ce5f922a0fc246071ad8","fixation cross","null","","","","","","","","","","","",""
"","1236","html-keyboard-response","175","364557","0.0-11.0-1.28","P9i5mIhWow","641e665144143d6ffe379ffe","6617fad957f7c6a12ea16e26","6622ce5f922a0fc246071ad8","image grid","p","","","","","Phylogenetic_Distractor_Nonthreat_target","2500","ongrid","p","8","Phylogenetic","true","experimental"
"","null","html-keyboard-response","176","364760","0.0-11.0-2.28","P9i5mIhWow","641e665144143d6ffe379ffe","6617fad957f7c6a12ea16e26","6622ce5f922a0fc246071ad8","
    <div id=""grid-container"">
        <!-- Grid items will be dynamically added here -->
    </div>    ","null","","","","","","","","","","","",""
"","null","html-keyboard-response","177","365469","0.0-11.0-0.29","P9i5mIhWow","641e665144143d6ffe379ffe","6617fad957f7c6a12ea16e26","6622ce5f922a0fc246071ad8","fixation cross","null","","","","","","","","","","","",""
"","1704","html-keyboard-response","178","367175","0.0-11.0-1.29","P9i5mIhWow","641e665144143d6ffe379ffe","6617fad957f7c6a12ea16e26","6622ce5f922a0fc246071ad8","image grid"," ","","","","","Phylogenetic_Distractor_notarget","2500","ongrid"," ","1","Phylogenetic","true","experimental"
"","null","html-keyboard-response","179","367376","0.0-11.0-2.29","P9i5mIhWow","641e665144143d6ffe379ffe","6617fad957f7c6a12ea16e26","6622ce5f922a0fc246071ad8","
    <div id=""grid-container"">
        <!-- Grid items will be dynamically added here -->
    </div>    ","null","","","","","","","","","","","",""
"","null","html-keyboard-response","180","368088","0.0-11.0-0.30","P9i5mIhWow","641e665144143d6ffe379ffe","6617fad957f7c6a12ea16e26","6622ce5f922a0fc246071ad8","fixation cross","null","","","","","","","","","","","",""
"","1344","html-keyboard-response","181","369434","0.0-11.0-1.30","P9i5mIhWow","641e665144143d6ffe379ffe","6617fad957f7c6a12ea16e26","6622ce5f922a0fc246071ad8","image grid","p","","","","","Phylogenetic_Distractor_Nonthreat_target","2500","ongrid","p","6","Phylogenetic","true","experimental"
"","null","html-keyboard-response","182","369628","0.0-11.0-2.30","P9i5mIhWow","641e665144143d6ffe379ffe","6617fad957f7c6a12ea16e26","6622ce5f922a0fc246071ad8","
    <div id=""grid-container"">
        <!-- Grid items will be dynamically added here -->
    </div>    ","null","","","","","","","","","","","",""
"","null","html-keyboard-response","183","370343","0.0-11.0-0.31","P9i5mIhWow","641e665144143d6ffe379ffe","6617fad957f7c6a12ea16e26","6622ce5f922a0fc246071ad8","fixation cross","null","","","","","","","","","","","",""
"","2277","html-keyboard-response","184","372623","0.0-11.0-1.31","P9i5mIhWow","641e665144143d6ffe379ffe","6617fad957f7c6a12ea16e26","6622ce5f922a0fc246071ad8","image grid"," ","","","","","Phylogenetic_Distractor_notarget","2500","ongrid"," ","9","Phylogenetic","true","experimental"
"","null","html-keyboard-response","185","372826","0.0-11.0-2.31","P9i5mIhWow","641e665144143d6ffe379ffe","6617fad957f7c6a12ea16e26","6622ce5f922a0fc246071ad8","
    <div id=""grid-container"">
        <!-- Grid items will be dynamically added here -->
    </div>    ","null","","","","","","","","","","","",""
"","null","html-keyboard-response","186","373542","0.0-11.0-0.32","P9i5mIhWow","641e665144143d6ffe379ffe","6617fad957f7c6a12ea16e26","6622ce5f922a0fc246071ad8","fixation cross","null","","","","","","","","","","","",""
"","1224","html-keyboard-response","187","374768","0.0-11.0-1.32","P9i5mIhWow","641e665144143d6ffe379ffe","6617fad957f7c6a12ea16e26","6622ce5f922a0fc246071ad8","image grid","p","","","","","Phylogenetic_Distractor_Nonthreat_target","2500","ongrid","p","3","Phylogenetic","true","experimental"
"","null","html-keyboard-response","188","374966","0.0-11.0-2.32","P9i5mIhWow","641e665144143d6ffe379ffe","6617fad957f7c6a12ea16e26","6622ce5f922a0fc246071ad8","
    <div id=""grid-container"">
        <!-- Grid items will be dynamically added here -->
    </div>    ","null","","","","","","","","","","","",""
"","null","html-keyboard-response","189","375681","0.0-11.0-0.33","P9i5mIhWow","641e665144143d6ffe379ffe","6617fad957f7c6a12ea16e26","6622ce5f922a0fc246071ad8","fixation cross","null","","","","","","","","","","","",""
"","1008","html-keyboard-response","190","376691","0.0-11.0-1.33","P9i5mIhWow","641e665144143d6ffe379ffe","6617fad957f7c6a12ea16e26","6622ce5f922a0fc246071ad8","image grid","p","","","","","Phylogenetic_Distractor_Nonthreat_target","2500","ongrid","p","3","Phylogenetic","true","experimental"
"","null","html-keyboard-response","191","376885","0.0-11.0-2.33","P9i5mIhWow","641e665144143d6ffe379ffe","6617fad957f7c6a12ea16e26","6622ce5f922a0fc246071ad8","
    <div id=""grid-container"">
        <!-- Grid items will be dynamically added here -->
    </div>    ","null","","","","","","","","","","","",""
"","null","html-keyboard-response","192","377604","0.0-11.0-0.34","P9i5mIhWow","641e665144143d6ffe379ffe","6617fad957f7c6a12ea16e26","6622ce5f922a0fc246071ad8","fixation cross","null","","","","","","","","","","","",""
"","961","html-keyboard-response","193","378566","0.0-11.0-1.34","P9i5mIhWow","641e665144143d6ffe379ffe","6617fad957f7c6a12ea16e26","6622ce5f922a0fc246071ad8","image grid","q","","","","","Phylogenetic_Distractor_Threat_target","2500","ongrid","q","1","Phylogenetic","true","experimental"
"","null","html-keyboard-response","194","378767","0.0-11.0-2.34","P9i5mIhWow","641e665144143d6ffe379ffe","6617fad957f7c6a12ea16e26","6622ce5f922a0fc246071ad8","
    <div id=""grid-container"">
        <!-- Grid items will be dynamically added here -->
    </div>    ","null","","","","","","","","","","","",""
"","null","html-keyboard-response","195","379497","0.0-11.0-0.35","P9i5mIhWow","641e665144143d6ffe379ffe","6617fad957f7c6a12ea16e26","6622ce5f922a0fc246071ad8","fixation cross","null","","","","","","","","","","","",""
"","1329","html-keyboard-response","196","380826","0.0-11.0-1.35","P9i5mIhWow","641e665144143d6ffe379ffe","6617fad957f7c6a12ea16e26","6622ce5f922a0fc246071ad8","image grid","q","","","","","Phylogenetic_Distractor_Threat_target","2500","ongrid","q","3","Phylogenetic","true","experimental"
"","null","html-keyboard-response","197","381022","0.0-11.0-2.35","P9i5mIhWow","641e665144143d6ffe379ffe","6617fad957f7c6a12ea16e26","6622ce5f922a0fc246071ad8","
    <div id=""grid-container"">
        <!-- Grid items will be dynamically added here -->
    </div>    ","null","","","","","","","","","","","",""
"","null","html-keyboard-response","198","381738","0.0-11.0-0.36","P9i5mIhWow","641e665144143d6ffe379ffe","6617fad957f7c6a12ea16e26","6622ce5f922a0fc246071ad8","fixation cross","null","","","","","","","","","","","",""
"","923","html-keyboard-response","199","382663","0.0-11.0-1.36","P9i5mIhWow","641e665144143d6ffe379ffe","6617fad957f7c6a12ea16e26","6622ce5f922a0fc246071ad8","image grid","q","","","","","Phylogenetic_Distractor_Threat_target","2500","ongrid","q","5","Phylogenetic","true","experimental"
"","null","html-keyboard-response","200","382833","0.0-11.0-2.36","P9i5mIhWow","641e665144143d6ffe379ffe","6617fad957f7c6a12ea16e26","6622ce5f922a0fc246071ad8","
    <div id=""grid-container"">
        <!-- Grid items will be dynamically added here -->
    </div>    ","null","","","","","","","","","","","",""
"","null","html-keyboard-response","201","383553","0.0-11.0-0.37","P9i5mIhWow","641e665144143d6ffe379ffe","6617fad957f7c6a12ea16e26","6622ce5f922a0fc246071ad8","fixation cross","null","","","","","","","","","","","",""
"","1149","html-keyboard-response","202","384703","0.0-11.0-1.37","P9i5mIhWow","641e665144143d6ffe379ffe","6617fad957f7c6a12ea16e26","6622ce5f922a0fc246071ad8","image grid","q","","","","","Phylogenetic_Distractor_Threat_target","2500","ongrid","q","8","Phylogenetic","true","experimental"
"","null","html-keyboard-response","203","384922","0.0-11.0-2.37","P9i5mIhWow","641e665144143d6ffe379ffe","6617fad957f7c6a12ea16e26","6622ce5f922a0fc246071ad8","
    <div id=""grid-container"">
        <!-- Grid items will be dynamically added here -->
    </div>    ","null","","","","","","","","","","","",""
"","null","html-keyboard-response","204","385640","0.0-11.0-0.38","P9i5mIhWow","641e665144143d6ffe379ffe","6617fad957f7c6a12ea16e26","6622ce5f922a0fc246071ad8","fixation cross","null","","","","","","","","","","","",""
"","null","html-keyboard-response","205","388144","0.0-11.0-1.38","P9i5mIhWow","641e665144143d6ffe379ffe","6617fad957f7c6a12ea16e26","6622ce5f922a0fc246071ad8","
        <div id=""grid-container"">
        <!-- Grid items will be dynamically added here -->
    </div>    ","null","","","","","","","","","","","",""
"","2839","html-keyboard-response","206","388486","0.0-11.0-2.38","P9i5mIhWow","641e665144143d6ffe379ffe","6617fad957f7c6a12ea16e26","6622ce5f922a0fc246071ad8","mask grid","p","","","","","Phylogenetic_Distractor_Nonthreat_target","2500","onmask","p","7","Phylogenetic","true","experimental"
"","null","html-keyboard-response","207","389200","0.0-11.0-0.39","P9i5mIhWow","641e665144143d6ffe379ffe","6617fad957f7c6a12ea16e26","6622ce5f922a0fc246071ad8","fixation cross","null","","","","","","","","","","","",""
"","1714","html-keyboard-response","208","390916","0.0-11.0-1.39","P9i5mIhWow","641e665144143d6ffe379ffe","6617fad957f7c6a12ea16e26","6622ce5f922a0fc246071ad8","image grid"," ","","","","","Phylogenetic_Distractor_Nonthreat_target","2500","ongrid","p","3","Phylogenetic","false","experimental"
"","null","html-keyboard-response","209","391131","0.0-11.0-2.39","P9i5mIhWow","641e665144143d6ffe379ffe","6617fad957f7c6a12ea16e26","6622ce5f922a0fc246071ad8","
    <div id=""grid-container"">
        <!-- Grid items will be dynamically added here -->
    </div>    ","null","","","","","","","","","","","",""
"","14330","html-keyboard-response","210","405676","0.0-12.0","P9i5mIhWow","641e665144143d6ffe379ffe","6617fad957f7c6a12ea16e26","6622ce5f922a0fc246071ad8","break screen"," ","","","","","","","","","","","",""
"","null","html-keyboard-response","211","408195","0.0-13.0-0.0","P9i5mIhWow","641e665144143d6ffe379ffe","6617fad957f7c6a12ea16e26","6622ce5f922a0fc246071ad8","fixation cross","null","","","","","","","","","","","",""
"","1445","html-keyboard-response","212","409642","0.0-13.0-1.0","P9i5mIhWow","641e665144143d6ffe379ffe","6617fad957f7c6a12ea16e26","6622ce5f922a0fc246071ad8","image grid"," ","","","","","Ontogenetic_Distractor_notarget","2500","ongrid"," ","1","Ontogenetic","true","experimental"
"","null","html-keyboard-response","213","409833","0.0-13.0-2.0","P9i5mIhWow","641e665144143d6ffe379ffe","6617fad957f7c6a12ea16e26","6622ce5f922a0fc246071ad8","
    <div id=""grid-container"">
        <!-- Grid items will be dynamically added here -->
    </div>    ","null","","","","","","","","","","","",""
"","null","html-keyboard-response","214","410548","0.0-13.0-0.1","P9i5mIhWow","641e665144143d6ffe379ffe","6617fad957f7c6a12ea16e26","6622ce5f922a0fc246071ad8","fixation cross","null","","","","","","","","","","","",""
"","1518","html-keyboard-response","215","412068","0.0-13.0-1.1","P9i5mIhWow","641e665144143d6ffe379ffe","6617fad957f7c6a12ea16e26","6622ce5f922a0fc246071ad8","image grid","p","","","","","Ontogenetic_Distractor_Nonthreat_target","2500","ongrid","p","4","Ontogenetic","true","experimental"
"","null","html-keyboard-response","216","412255","0.0-13.0-2.1","P9i5mIhWow","641e665144143d6ffe379ffe","6617fad957f7c6a12ea16e26","6622ce5f922a0fc246071ad8","
    <div id=""grid-container"">
        <!-- Grid items will be dynamically added here -->
    </div>    ","null","","","","","","","","","","","",""
"","null","html-keyboard-response","217","412976","0.0-13.0-0.2","P9i5mIhWow","641e665144143d6ffe379ffe","6617fad957f7c6a12ea16e26","6622ce5f922a0fc246071ad8","fixation cross","null","","","","","","","","","","","",""
"","1547","html-keyboard-response","218","414524","0.0-13.0-1.2","P9i5mIhWow","641e665144143d6ffe379ffe","6617fad957f7c6a12ea16e26","6622ce5f922a0fc246071ad8","image grid","p","","","","","Ontogenetic_Distractor_Nonthreat_target","2500","ongrid","p","3","Ontogenetic","true","experimental"
"","null","html-keyboard-response","219","414733","0.0-13.0-2.2","P9i5mIhWow","641e665144143d6ffe379ffe","6617fad957f7c6a12ea16e26","6622ce5f922a0fc246071ad8","
    <div id=""grid-container"">
        <!-- Grid items will be dynamically added here -->
    </div>    ","null","","","","","","","","","","","",""
"","null","html-keyboard-response","220","415450","0.0-13.0-0.3","P9i5mIhWow","641e665144143d6ffe379ffe","6617fad957f7c6a12ea16e26","6622ce5f922a0fc246071ad8","fixation cross","null","","","","","","","","","","","",""
"","1434","html-keyboard-response","221","416899","0.0-13.0-1.3","P9i5mIhWow","641e665144143d6ffe379ffe","6617fad957f7c6a12ea16e26","6622ce5f922a0fc246071ad8","image grid"," ","","","","","Ontogenetic_Distractor_notarget","2500","ongrid"," ","4","Ontogenetic","true","experimental"
"","null","html-keyboard-response","222","417106","0.0-13.0-2.3","P9i5mIhWow","641e665144143d6ffe379ffe","6617fad957f7c6a12ea16e26","6622ce5f922a0fc246071ad8","
    <div id=""grid-container"">
        <!-- Grid items will be dynamically added here -->
    </div>    ","null","","","","","","","","","","","",""
"","null","html-keyboard-response","223","417823","0.0-13.0-0.4","P9i5mIhWow","641e665144143d6ffe379ffe","6617fad957f7c6a12ea16e26","6622ce5f922a0fc246071ad8","fixation cross","null","","","","","","","","","","","",""
"","813","html-keyboard-response","224","418638","0.0-13.0-1.4","P9i5mIhWow","641e665144143d6ffe379ffe","6617fad957f7c6a12ea16e26","6622ce5f922a0fc246071ad8","image grid","p","","","","","Ontogenetic_Distractor_Nonthreat_target","2500","ongrid","p","5","Ontogenetic","true","experimental"
"","null","html-keyboard-response","225","418829","0.0-13.0-2.4","P9i5mIhWow","641e665144143d6ffe379ffe","6617fad957f7c6a12ea16e26","6622ce5f922a0fc246071ad8","
    <div id=""grid-container"">
        <!-- Grid items will be dynamically added here -->
    </div>    ","null","","","","","","","","","","","",""
"","null","html-keyboard-response","226","419538","0.0-13.0-0.5","P9i5mIhWow","641e665144143d6ffe379ffe","6617fad957f7c6a12ea16e26","6622ce5f922a0fc246071ad8","fixation cross","null","","","","","","","","","","","",""
"","1570","html-keyboard-response","227","421113","0.0-13.0-1.5","P9i5mIhWow","641e665144143d6ffe379ffe","6617fad957f7c6a12ea16e26","6622ce5f922a0fc246071ad8","image grid","p","","","","","Ontogenetic_Distractor_Nonthreat_target","2500","ongrid","p","4","Ontogenetic","true","experimental"
"","null","html-keyboard-response","228","421316","0.0-13.0-2.5","P9i5mIhWow","641e665144143d6ffe379ffe","6617fad957f7c6a12ea16e26","6622ce5f922a0fc246071ad8","
    <div id=""grid-container"">
        <!-- Grid items will be dynamically added here -->
    </div>    ","null","","","","","","","","","","","",""
"","null","html-keyboard-response","229","422034","0.0-13.0-0.6","P9i5mIhWow","641e665144143d6ffe379ffe","6617fad957f7c6a12ea16e26","6622ce5f922a0fc246071ad8","fixation cross","null","","","","","","","","","","","",""
"","1609","html-keyboard-response","230","423645","0.0-13.0-1.6","P9i5mIhWow","641e665144143d6ffe379ffe","6617fad957f7c6a12ea16e26","6622ce5f922a0fc246071ad8","image grid","q","","","","","Ontogenetic_Distractor_Threat_target","2500","ongrid","q","4","Ontogenetic","true","experimental"
"","null","html-keyboard-response","231","423834","0.0-13.0-2.6","P9i5mIhWow","641e665144143d6ffe379ffe","6617fad957f7c6a12ea16e26","6622ce5f922a0fc246071ad8","
    <div id=""grid-container"">
        <!-- Grid items will be dynamically added here -->
    </div>    ","null","","","","","","","","","","","",""
"","null","html-keyboard-response","232","424560","0.0-13.0-0.7","P9i5mIhWow","641e665144143d6ffe379ffe","6617fad957f7c6a12ea16e26","6622ce5f922a0fc246071ad8","fixation cross","null","","","","","","","","","","","",""
"","null","html-keyboard-response","233","427066","0.0-13.0-1.7","P9i5mIhWow","641e665144143d6ffe379ffe","6617fad957f7c6a12ea16e26","6622ce5f922a0fc246071ad8","
        <div id=""grid-container"">
        <!-- Grid items will be dynamically added here -->
    </div>    ","null","","","","","","","","","","","",""
"","2806","html-keyboard-response","234","427376","0.0-13.0-2.7","P9i5mIhWow","641e665144143d6ffe379ffe","6617fad957f7c6a12ea16e26","6622ce5f922a0fc246071ad8","mask grid","q","","","","","Ontogenetic_Distractor_Threat_target","2500","onmask","q","7","Ontogenetic","true","experimental"
"","null","html-keyboard-response","235","428095","0.0-13.0-0.8","P9i5mIhWow","641e665144143d6ffe379ffe","6617fad957f7c6a12ea16e26","6622ce5f922a0fc246071ad8","fixation cross","null","","","","","","","","","","","",""
"","1222","html-keyboard-response","236","429320","0.0-13.0-1.8","P9i5mIhWow","641e665144143d6ffe379ffe","6617fad957f7c6a12ea16e26","6622ce5f922a0fc246071ad8","image grid","q","","","","","Ontogenetic_Distractor_Threat_target","2500","ongrid","q","7","Ontogenetic","true","experimental"
"","null","html-keyboard-response","237","429534","0.0-13.0-2.8","P9i5mIhWow","641e665144143d6ffe379ffe","6617fad957f7c6a12ea16e26","6622ce5f922a0fc246071ad8","
    <div id=""grid-container"">
        <!-- Grid items will be dynamically added here -->
    </div>    ","null","","","","","","","","","","","",""
"","null","html-keyboard-response","238","430245","0.0-13.0-0.9","P9i5mIhWow","641e665144143d6ffe379ffe","6617fad957f7c6a12ea16e26","6622ce5f922a0fc246071ad8","fixation cross","null","","","","","","","","","","","",""
"","1166","html-keyboard-response","239","431415","0.0-13.0-1.9","P9i5mIhWow","641e665144143d6ffe379ffe","6617fad957f7c6a12ea16e26","6622ce5f922a0fc246071ad8","image grid","q","","","","","Ontogenetic_Distractor_Threat_target","2500","ongrid","q","4","Ontogenetic","true","experimental"
"","null","html-keyboard-response","240","431612","0.0-13.0-2.9","P9i5mIhWow","641e665144143d6ffe379ffe","6617fad957f7c6a12ea16e26","6622ce5f922a0fc246071ad8","
    <div id=""grid-container"">
        <!-- Grid items will be dynamically added here -->
    </div>    ","null","","","","","","","","","","","",""
"","null","html-keyboard-response","241","432319","0.0-13.0-0.10","P9i5mIhWow","641e665144143d6ffe379ffe","6617fad957f7c6a12ea16e26","6622ce5f922a0fc246071ad8","fixation cross","null","","","","","","","","","","","",""
"","1440","html-keyboard-response","242","433764","0.0-13.0-1.10","P9i5mIhWow","641e665144143d6ffe379ffe","6617fad957f7c6a12ea16e26","6622ce5f922a0fc246071ad8","image grid","p","","","","","Ontogenetic_Distractor_Nonthreat_target","2500","ongrid","p","6","Ontogenetic","true","experimental"
"","null","html-keyboard-response","243","433964","0.0-13.0-2.10","P9i5mIhWow","641e665144143d6ffe379ffe","6617fad957f7c6a12ea16e26","6622ce5f922a0fc246071ad8","
    <div id=""grid-container"">
        <!-- Grid items will be dynamically added here -->
    </div>    ","null","","","","","","","","","","","",""
"","null","html-keyboard-response","244","434686","0.0-13.0-0.11","P9i5mIhWow","641e665144143d6ffe379ffe","6617fad957f7c6a12ea16e26","6622ce5f922a0fc246071ad8","fixation cross","null","","","","","","","","","","","",""
"","1853","html-keyboard-response","245","436541","0.0-13.0-1.11","P9i5mIhWow","641e665144143d6ffe379ffe","6617fad957f7c6a12ea16e26","6622ce5f922a0fc246071ad8","image grid","p","","","","","Ontogenetic_Distractor_Nonthreat_target","2500","ongrid","p","8","Ontogenetic","true","experimental"
"","null","html-keyboard-response","246","436740","0.0-13.0-2.11","P9i5mIhWow","641e665144143d6ffe379ffe","6617fad957f7c6a12ea16e26","6622ce5f922a0fc246071ad8","
    <div id=""grid-container"">
        <!-- Grid items will be dynamically added here -->
    </div>    ","null","","","","","","","","","","","",""
"","null","html-keyboard-response","247","437456","0.0-13.0-0.12","P9i5mIhWow","641e665144143d6ffe379ffe","6617fad957f7c6a12ea16e26","6622ce5f922a0fc246071ad8","fixation cross","null","","","","","","","","","","","",""
"","1854","html-keyboard-response","248","439313","0.0-13.0-1.12","P9i5mIhWow","641e665144143d6ffe379ffe","6617fad957f7c6a12ea16e26","6622ce5f922a0fc246071ad8","image grid","q","","","","","Ontogenetic_Distractor_Threat_target","2500","ongrid","q","2","Ontogenetic","true","experimental"
"","null","html-keyboard-response","249","439514","0.0-13.0-2.12","P9i5mIhWow","641e665144143d6ffe379ffe","6617fad957f7c6a12ea16e26","6622ce5f922a0fc246071ad8","
    <div id=""grid-container"">
        <!-- Grid items will be dynamically added here -->
    </div>    ","null","","","","","","","","","","","",""
"","null","html-keyboard-response","250","440241","0.0-13.0-0.13","P9i5mIhWow","641e665144143d6ffe379ffe","6617fad957f7c6a12ea16e26","6622ce5f922a0fc246071ad8","fixation cross","null","","","","","","","","","","","",""
"","1263","html-keyboard-response","251","441507","0.0-13.0-1.13","P9i5mIhWow","641e665144143d6ffe379ffe","6617fad957f7c6a12ea16e26","6622ce5f922a0fc246071ad8","image grid","q","","","","","Ontogenetic_Distractor_Threat_target","2500","ongrid","q","4","Ontogenetic","true","experimental"
"","null","html-keyboard-response","252","441703","0.0-13.0-2.13","P9i5mIhWow","641e665144143d6ffe379ffe","6617fad957f7c6a12ea16e26","6622ce5f922a0fc246071ad8","
    <div id=""grid-container"">
        <!-- Grid items will be dynamically added here -->
    </div>    ","null","","","","","","","","","","","",""
"","null","html-keyboard-response","253","442418","0.0-13.0-0.14","P9i5mIhWow","641e665144143d6ffe379ffe","6617fad957f7c6a12ea16e26","6622ce5f922a0fc246071ad8","fixation cross","null","","","","","","","","","","","",""
"","1343","html-keyboard-response","254","443763","0.0-13.0-1.14","P9i5mIhWow","641e665144143d6ffe379ffe","6617fad957f7c6a12ea16e26","6622ce5f922a0fc246071ad8","image grid","q","","","","","Ontogenetic_Distractor_Threat_target","2500","ongrid","q","5","Ontogenetic","true","experimental"
"","null","html-keyboard-response","255","443962","0.0-13.0-2.14","P9i5mIhWow","641e665144143d6ffe379ffe","6617fad957f7c6a12ea16e26","6622ce5f922a0fc246071ad8","
    <div id=""grid-container"">
        <!-- Grid items will be dynamically added here -->
    </div>    ","null","","","","","","","","","","","",""
"","null","html-keyboard-response","256","444685","0.0-13.0-0.15","P9i5mIhWow","641e665144143d6ffe379ffe","6617fad957f7c6a12ea16e26","6622ce5f922a0fc246071ad8","fixation cross","null","","","","","","","","","","","",""
"","1671","html-keyboard-response","257","446360","0.0-13.0-1.15","P9i5mIhWow","641e665144143d6ffe379ffe","6617fad957f7c6a12ea16e26","6622ce5f922a0fc246071ad8","image grid"," ","","","","","Ontogenetic_Distractor_notarget","2500","ongrid"," ","5","Ontogenetic","true","experimental"
"","null","html-keyboard-response","258","446588","0.0-13.0-2.15","P9i5mIhWow","641e665144143d6ffe379ffe","6617fad957f7c6a12ea16e26","6622ce5f922a0fc246071ad8","
    <div id=""grid-container"">
        <!-- Grid items will be dynamically added here -->
    </div>    ","null","","","","","","","","","","","",""
"","null","html-keyboard-response","259","447296","0.0-13.0-0.16","P9i5mIhWow","641e665144143d6ffe379ffe","6617fad957f7c6a12ea16e26","6622ce5f922a0fc246071ad8","fixation cross","null","","","","","","","","","","","",""
"","1414","html-keyboard-response","260","448710","0.0-13.0-1.16","P9i5mIhWow","641e665144143d6ffe379ffe","6617fad957f7c6a12ea16e26","6622ce5f922a0fc246071ad8","image grid","q","","","","","Ontogenetic_Distractor_Threat_target","2500","ongrid","q","1","Ontogenetic","true","experimental"
"","null","html-keyboard-response","261","448907","0.0-13.0-2.16","P9i5mIhWow","641e665144143d6ffe379ffe","6617fad957f7c6a12ea16e26","6622ce5f922a0fc246071ad8","
    <div id=""grid-container"">
        <!-- Grid items will be dynamically added here -->
    </div>    ","null","","","","","","","","","","","",""
"","null","html-keyboard-response","262","449621","0.0-13.0-0.17","P9i5mIhWow","641e665144143d6ffe379ffe","6617fad957f7c6a12ea16e26","6622ce5f922a0fc246071ad8","fixation cross","null","","","","","","","","","","","",""
"","1438","html-keyboard-response","263","451060","0.0-13.0-1.17","P9i5mIhWow","641e665144143d6ffe379ffe","6617fad957f7c6a12ea16e26","6622ce5f922a0fc246071ad8","image grid","p","","","","","Ontogenetic_Distractor_Nonthreat_target","2500","ongrid","p","4","Ontogenetic","true","experimental"
"","null","html-keyboard-response","264","451289","0.0-13.0-2.17","P9i5mIhWow","641e665144143d6ffe379ffe","6617fad957f7c6a12ea16e26","6622ce5f922a0fc246071ad8","
    <div id=""grid-container"">
        <!-- Grid items will be dynamically added here -->
    </div>    ","null","","","","","","","","","","","",""
"","null","html-keyboard-response","265","452014","0.0-13.0-0.18","P9i5mIhWow","641e665144143d6ffe379ffe","6617fad957f7c6a12ea16e26","6622ce5f922a0fc246071ad8","fixation cross","null","","","","","","","","","","","",""
"","988","html-keyboard-response","266","453004","0.0-13.0-1.18","P9i5mIhWow","641e665144143d6ffe379ffe","6617fad957f7c6a12ea16e26","6622ce5f922a0fc246071ad8","image grid","p","","","","","Ontogenetic_Distractor_Nonthreat_target","2500","ongrid","p","8","Ontogenetic","true","experimental"
"","null","html-keyboard-response","267","453193","0.0-13.0-2.18","P9i5mIhWow","641e665144143d6ffe379ffe","6617fad957f7c6a12ea16e26","6622ce5f922a0fc246071ad8","
    <div id=""grid-container"">
        <!-- Grid items will be dynamically added here -->
    </div>    ","null","","","","","","","","","","","",""
"","null","html-keyboard-response","268","453918","0.0-13.0-0.19","P9i5mIhWow","641e665144143d6ffe379ffe","6617fad957f7c6a12ea16e26","6622ce5f922a0fc246071ad8","fixation cross","null","","","","","","","","","","","",""
"","1371","html-keyboard-response","269","455290","0.0-13.0-1.19","P9i5mIhWow","641e665144143d6ffe379ffe","6617fad957f7c6a12ea16e26","6622ce5f922a0fc246071ad8","image grid","q","","","","","Ontogenetic_Distractor_Threat_target","2500","ongrid","q","3","Ontogenetic","true","experimental"
"","null","html-keyboard-response","270","455489","0.0-13.0-2.19","P9i5mIhWow","641e665144143d6ffe379ffe","6617fad957f7c6a12ea16e26","6622ce5f922a0fc246071ad8","
    <div id=""grid-container"">
        <!-- Grid items will be dynamically added here -->
    </div>    ","null","","","","","","","","","","","",""
"","null","html-keyboard-response","271","456195","0.0-13.0-0.20","P9i5mIhWow","641e665144143d6ffe379ffe","6617fad957f7c6a12ea16e26","6622ce5f922a0fc246071ad8","fixation cross","null","","","","","","","","","","","",""
"","1325","html-keyboard-response","272","457522","0.0-13.0-1.20","P9i5mIhWow","641e665144143d6ffe379ffe","6617fad957f7c6a12ea16e26","6622ce5f922a0fc246071ad8","image grid","p","","","","","Ontogenetic_Distractor_Nonthreat_target","2500","ongrid","p","8","Ontogenetic","true","experimental"
"","null","html-keyboard-response","273","457761","0.0-13.0-2.20","P9i5mIhWow","641e665144143d6ffe379ffe","6617fad957f7c6a12ea16e26","6622ce5f922a0fc246071ad8","
    <div id=""grid-container"">
        <!-- Grid items will be dynamically added here -->
    </div>    ","null","","","","","","","","","","","",""
"","null","html-keyboard-response","274","458472","0.0-13.0-0.21","P9i5mIhWow","641e665144143d6ffe379ffe","6617fad957f7c6a12ea16e26","6622ce5f922a0fc246071ad8","fixation cross","null","","","","","","","","","","","",""
"","937","html-keyboard-response","275","459410","0.0-13.0-1.21","P9i5mIhWow","641e665144143d6ffe379ffe","6617fad957f7c6a12ea16e26","6622ce5f922a0fc246071ad8","image grid","p","","","","","Ontogenetic_Distractor_Nonthreat_target","2500","ongrid","p","7","Ontogenetic","true","experimental"
"","null","html-keyboard-response","276","459606","0.0-13.0-2.21","P9i5mIhWow","641e665144143d6ffe379ffe","6617fad957f7c6a12ea16e26","6622ce5f922a0fc246071ad8","
    <div id=""grid-container"">
        <!-- Grid items will be dynamically added here -->
    </div>    ","null","","","","","","","","","","","",""
"","null","html-keyboard-response","277","460326","0.0-13.0-0.22","P9i5mIhWow","641e665144143d6ffe379ffe","6617fad957f7c6a12ea16e26","6622ce5f922a0fc246071ad8","fixation cross","null","","","","","","","","","","","",""
"","1238","html-keyboard-response","278","461565","0.0-13.0-1.22","P9i5mIhWow","641e665144143d6ffe379ffe","6617fad957f7c6a12ea16e26","6622ce5f922a0fc246071ad8","image grid","q","","","","","Ontogenetic_Distractor_Threat_target","2500","ongrid","q","4","Ontogenetic","true","experimental"
"","null","html-keyboard-response","279","461754","0.0-13.0-2.22","P9i5mIhWow","641e665144143d6ffe379ffe","6617fad957f7c6a12ea16e26","6622ce5f922a0fc246071ad8","
    <div id=""grid-container"">
        <!-- Grid items will be dynamically added here -->
    </div>    ","null","","","","","","","","","","","",""
"","null","html-keyboard-response","280","462479","0.0-13.0-0.23","P9i5mIhWow","641e665144143d6ffe379ffe","6617fad957f7c6a12ea16e26","6622ce5f922a0fc246071ad8","fixation cross","null","","","","","","","","","","","",""
"","1271","html-keyboard-response","281","463751","0.0-13.0-1.23","P9i5mIhWow","641e665144143d6ffe379ffe","6617fad957f7c6a12ea16e26","6622ce5f922a0fc246071ad8","image grid","p","","","","","Ontogenetic_Distractor_Nonthreat_target","2500","ongrid","p","9","Ontogenetic","true","experimental"
"","null","html-keyboard-response","282","463948","0.0-13.0-2.23","P9i5mIhWow","641e665144143d6ffe379ffe","6617fad957f7c6a12ea16e26","6622ce5f922a0fc246071ad8","
    <div id=""grid-container"">
        <!-- Grid items will be dynamically added here -->
    </div>    ","null","","","","","","","","","","","",""
"","null","html-keyboard-response","283","464659","0.0-13.0-0.24","P9i5mIhWow","641e665144143d6ffe379ffe","6617fad957f7c6a12ea16e26","6622ce5f922a0fc246071ad8","fixation cross","null","","","","","","","","","","","",""
"","1511","html-keyboard-response","284","466171","0.0-13.0-1.24","P9i5mIhWow","641e665144143d6ffe379ffe","6617fad957f7c6a12ea16e26","6622ce5f922a0fc246071ad8","image grid"," ","","","","","Ontogenetic_Distractor_notarget","2500","ongrid"," ","8","Ontogenetic","true","experimental"
"","null","html-keyboard-response","285","466359","0.0-13.0-2.24","P9i5mIhWow","641e665144143d6ffe379ffe","6617fad957f7c6a12ea16e26","6622ce5f922a0fc246071ad8","
    <div id=""grid-container"">
        <!-- Grid items will be dynamically added here -->
    </div>    ","null","","","","","","","","","","","",""
"","null","html-keyboard-response","286","467072","0.0-13.0-0.25","P9i5mIhWow","641e665144143d6ffe379ffe","6617fad957f7c6a12ea16e26","6622ce5f922a0fc246071ad8","fixation cross","null","","","","","","","","","","","",""
"","1217","html-keyboard-response","287","468291","0.0-13.0-1.25","P9i5mIhWow","641e665144143d6ffe379ffe","6617fad957f7c6a12ea16e26","6622ce5f922a0fc246071ad8","image grid","p","","","","","Ontogenetic_Distractor_Nonthreat_target","2500","ongrid","p","4","Ontogenetic","true","experimental"
"","null","html-keyboard-response","288","468489","0.0-13.0-2.25","P9i5mIhWow","641e665144143d6ffe379ffe","6617fad957f7c6a12ea16e26","6622ce5f922a0fc246071ad8","
    <div id=""grid-container"">
        <!-- Grid items will be dynamically added here -->
    </div>    ","null","","","","","","","","","","","",""
"","null","html-keyboard-response","289","469192","0.0-13.0-0.26","P9i5mIhWow","641e665144143d6ffe379ffe","6617fad957f7c6a12ea16e26","6622ce5f922a0fc246071ad8","fixation cross","null","","","","","","","","","","","",""
"","675","html-keyboard-response","290","469870","0.0-13.0-1.26","P9i5mIhWow","641e665144143d6ffe379ffe","6617fad957f7c6a12ea16e26","6622ce5f922a0fc246071ad8","image grid","p","","","","","Ontogenetic_Distractor_Nonthreat_target","2500","ongrid","p","4","Ontogenetic","true","experimental"
"","null","html-keyboard-response","291","470071","0.0-13.0-2.26","P9i5mIhWow","641e665144143d6ffe379ffe","6617fad957f7c6a12ea16e26","6622ce5f922a0fc246071ad8","
    <div id=""grid-container"">
        <!-- Grid items will be dynamically added here -->
    </div>    ","null","","","","","","","","","","","",""
"","null","html-keyboard-response","292","470785","0.0-13.0-0.27","P9i5mIhWow","641e665144143d6ffe379ffe","6617fad957f7c6a12ea16e26","6622ce5f922a0fc246071ad8","fixation cross","null","","","","","","","","","","","",""
"","1444","html-keyboard-response","293","472231","0.0-13.0-1.27","P9i5mIhWow","641e665144143d6ffe379ffe","6617fad957f7c6a12ea16e26","6622ce5f922a0fc246071ad8","image grid","q","","","","","Ontogenetic_Distractor_Threat_target","2500","ongrid","q","9","Ontogenetic","true","experimental"
"","null","html-keyboard-response","294","472431","0.0-13.0-2.27","P9i5mIhWow","641e665144143d6ffe379ffe","6617fad957f7c6a12ea16e26","6622ce5f922a0fc246071ad8","
    <div id=""grid-container"">
        <!-- Grid items will be dynamically added here -->
    </div>    ","null","","","","","","","","","","","",""
"","null","html-keyboard-response","295","473144","0.0-13.0-0.28","P9i5mIhWow","641e665144143d6ffe379ffe","6617fad957f7c6a12ea16e26","6622ce5f922a0fc246071ad8","fixation cross","null","","","","","","","","","","","",""
"","774","html-keyboard-response","296","473921","0.0-13.0-1.28","P9i5mIhWow","641e665144143d6ffe379ffe","6617fad957f7c6a12ea16e26","6622ce5f922a0fc246071ad8","image grid","q","","","","","Ontogenetic_Distractor_Threat_target","2500","ongrid","q","1","Ontogenetic","true","experimental"
"","null","html-keyboard-response","297","474108","0.0-13.0-2.28","P9i5mIhWow","641e665144143d6ffe379ffe","6617fad957f7c6a12ea16e26","6622ce5f922a0fc246071ad8","
    <div id=""grid-container"">
        <!-- Grid items will be dynamically added here -->
    </div>    ","null","","","","","","","","","","","",""
"","null","html-keyboard-response","298","474833","0.0-13.0-0.29","P9i5mIhWow","641e665144143d6ffe379ffe","6617fad957f7c6a12ea16e26","6622ce5f922a0fc246071ad8","fixation cross","null","","","","","","","","","","","",""
"","769","html-keyboard-response","299","475604","0.0-13.0-1.29","P9i5mIhWow","641e665144143d6ffe379ffe","6617fad957f7c6a12ea16e26","6622ce5f922a0fc246071ad8","image grid","p","","","","","Ontogenetic_Distractor_Nonthreat_target","2500","ongrid","p","6","Ontogenetic","true","experimental"
"","null","html-keyboard-response","300","475800","0.0-13.0-2.29","P9i5mIhWow","641e665144143d6ffe379ffe","6617fad957f7c6a12ea16e26","6622ce5f922a0fc246071ad8","
    <div id=""grid-container"">
        <!-- Grid items will be dynamically added here -->
    </div>    ","null","","","","","","","","","","","",""
"","null","html-keyboard-response","301","476514","0.0-13.0-0.30","P9i5mIhWow","641e665144143d6ffe379ffe","6617fad957f7c6a12ea16e26","6622ce5f922a0fc246071ad8","fixation cross","null","","","","","","","","","","","",""
"","1500","html-keyboard-response","302","478015","0.0-13.0-1.30","P9i5mIhWow","641e665144143d6ffe379ffe","6617fad957f7c6a12ea16e26","6622ce5f922a0fc246071ad8","image grid","q","","","","","Ontogenetic_Distractor_Threat_target","2500","ongrid","q","8","Ontogenetic","true","experimental"
"","null","html-keyboard-response","303","478218","0.0-13.0-2.30","P9i5mIhWow","641e665144143d6ffe379ffe","6617fad957f7c6a12ea16e26","6622ce5f922a0fc246071ad8","
    <div id=""grid-container"">
        <!-- Grid items will be dynamically added here -->
    </div>    ","null","","","","","","","","","","","",""
"","null","html-keyboard-response","304","478938","0.0-13.0-0.31","P9i5mIhWow","641e665144143d6ffe379ffe","6617fad957f7c6a12ea16e26","6622ce5f922a0fc246071ad8","fixation cross","null","","","","","","","","","","","",""
"","1220","html-keyboard-response","305","480162","0.0-13.0-1.31","P9i5mIhWow","641e665144143d6ffe379ffe","6617fad957f7c6a12ea16e26","6622ce5f922a0fc246071ad8","image grid","q","","","","","Ontogenetic_Distractor_Threat_target","2500","ongrid","q","4","Ontogenetic","true","experimental"
"","null","html-keyboard-response","306","480410","0.0-13.0-2.31","P9i5mIhWow","641e665144143d6ffe379ffe","6617fad957f7c6a12ea16e26","6622ce5f922a0fc246071ad8","
    <div id=""grid-container"">
        <!-- Grid items will be dynamically added here -->
    </div>    ","null","","","","","","","","","","","",""
"","null","html-keyboard-response","307","481120","0.0-13.0-0.32","P9i5mIhWow","641e665144143d6ffe379ffe","6617fad957f7c6a12ea16e26","6622ce5f922a0fc246071ad8","fixation cross","null","","","","","","","","","","","",""
"","1237","html-keyboard-response","308","482361","0.0-13.0-1.32","P9i5mIhWow","641e665144143d6ffe379ffe","6617fad957f7c6a12ea16e26","6622ce5f922a0fc246071ad8","image grid","p","","","","","Ontogenetic_Distractor_Nonthreat_target","2500","ongrid","p","9","Ontogenetic","true","experimental"
"","null","html-keyboard-response","309","482554","0.0-13.0-2.32","P9i5mIhWow","641e665144143d6ffe379ffe","6617fad957f7c6a12ea16e26","6622ce5f922a0fc246071ad8","
    <div id=""grid-container"">
        <!-- Grid items will be dynamically added here -->
    </div>    ","null","","","","","","","","","","","",""
"","null","html-keyboard-response","310","483267","0.0-13.0-0.33","P9i5mIhWow","641e665144143d6ffe379ffe","6617fad957f7c6a12ea16e26","6622ce5f922a0fc246071ad8","fixation cross","null","","","","","","","","","","","",""
"","1539","html-keyboard-response","311","484810","0.0-13.0-1.33","P9i5mIhWow","641e665144143d6ffe379ffe","6617fad957f7c6a12ea16e26","6622ce5f922a0fc246071ad8","image grid","q","","","","","Ontogenetic_Distractor_Threat_target","2500","ongrid","q","8","Ontogenetic","true","experimental"
"","null","html-keyboard-response","312","485066","0.0-13.0-2.33","P9i5mIhWow","641e665144143d6ffe379ffe","6617fad957f7c6a12ea16e26","6622ce5f922a0fc246071ad8","
    <div id=""grid-container"">
        <!-- Grid items will be dynamically added here -->
    </div>    ","null","","","","","","","","","","","",""
"","null","html-keyboard-response","313","485797","0.0-13.0-0.34","P9i5mIhWow","641e665144143d6ffe379ffe","6617fad957f7c6a12ea16e26","6622ce5f922a0fc246071ad8","fixation cross","null","","","","","","","","","","","",""
"","1252","html-keyboard-response","314","487052","0.0-13.0-1.34","P9i5mIhWow","641e665144143d6ffe379ffe","6617fad957f7c6a12ea16e26","6622ce5f922a0fc246071ad8","image grid","p","","","","","Ontogenetic_Distractor_Nonthreat_target","2500","ongrid","p","9","Ontogenetic","true","experimental"
"","null","html-keyboard-response","315","487249","0.0-13.0-2.34","P9i5mIhWow","641e665144143d6ffe379ffe","6617fad957f7c6a12ea16e26","6622ce5f922a0fc246071ad8","
    <div id=""grid-container"">
        <!-- Grid items will be dynamically added here -->
    </div>    ","null","","","","","","","","","","","",""
"","null","html-keyboard-response","316","487971","0.0-13.0-0.35","P9i5mIhWow","641e665144143d6ffe379ffe","6617fad957f7c6a12ea16e26","6622ce5f922a0fc246071ad8","fixation cross","null","","","","","","","","","","","",""
"","1806","html-keyboard-response","317","489782","0.0-13.0-1.35","P9i5mIhWow","641e665144143d6ffe379ffe","6617fad957f7c6a12ea16e26","6622ce5f922a0fc246071ad8","image grid","q","","","","","Ontogenetic_Distractor_Threat_target","2500","ongrid","q","3","Ontogenetic","true","experimental"
"","null","html-keyboard-response","318","490018","0.0-13.0-2.35","P9i5mIhWow","641e665144143d6ffe379ffe","6617fad957f7c6a12ea16e26","6622ce5f922a0fc246071ad8","
    <div id=""grid-container"">
        <!-- Grid items will be dynamically added here -->
    </div>    ","null","","","","","","","","","","","",""
"","null","html-keyboard-response","319","490738","0.0-13.0-0.36","P9i5mIhWow","641e665144143d6ffe379ffe","6617fad957f7c6a12ea16e26","6622ce5f922a0fc246071ad8","fixation cross","null","","","","","","","","","","","",""
"","1117","html-keyboard-response","320","491859","0.0-13.0-1.36","P9i5mIhWow","641e665144143d6ffe379ffe","6617fad957f7c6a12ea16e26","6622ce5f922a0fc246071ad8","image grid","q","","","","","Ontogenetic_Distractor_Threat_target","2500","ongrid","q","6","Ontogenetic","true","experimental"
"","null","html-keyboard-response","321","492060","0.0-13.0-2.36","P9i5mIhWow","641e665144143d6ffe379ffe","6617fad957f7c6a12ea16e26","6622ce5f922a0fc246071ad8","
    <div id=""grid-container"">
        <!-- Grid items will be dynamically added here -->
    </div>    ","null","","","","","","","","","","","",""
"","null","html-keyboard-response","322","492787","0.0-13.0-0.37","P9i5mIhWow","641e665144143d6ffe379ffe","6617fad957f7c6a12ea16e26","6622ce5f922a0fc246071ad8","fixation cross","null","","","","","","","","","","","",""
"","953","html-keyboard-response","323","493742","0.0-13.0-1.37","P9i5mIhWow","641e665144143d6ffe379ffe","6617fad957f7c6a12ea16e26","6622ce5f922a0fc246071ad8","image grid","p","","","","","Ontogenetic_Distractor_Nonthreat_target","2500","ongrid","p","1","Ontogenetic","true","experimental"
"","null","html-keyboard-response","324","493940","0.0-13.0-2.37","P9i5mIhWow","641e665144143d6ffe379ffe","6617fad957f7c6a12ea16e26","6622ce5f922a0fc246071ad8","
    <div id=""grid-container"">
        <!-- Grid items will be dynamically added here -->
    </div>    ","null","","","","","","","","","","","",""
"","null","html-keyboard-response","325","494659","0.0-13.0-0.38","P9i5mIhWow","641e665144143d6ffe379ffe","6617fad957f7c6a12ea16e26","6622ce5f922a0fc246071ad8","fixation cross","null","","","","","","","","","","","",""
"","2114","html-keyboard-response","326","496775","0.0-13.0-1.38","P9i5mIhWow","641e665144143d6ffe379ffe","6617fad957f7c6a12ea16e26","6622ce5f922a0fc246071ad8","image grid"," ","","","","","Ontogenetic_Distractor_Nonthreat_target","2500","ongrid","p","8","Ontogenetic","false","experimental"
"","null","html-keyboard-response","327","496984","0.0-13.0-2.38","P9i5mIhWow","641e665144143d6ffe379ffe","6617fad957f7c6a12ea16e26","6622ce5f922a0fc246071ad8","
    <div id=""grid-container"">
        <!-- Grid items will be dynamically added here -->
    </div>    ","null","","","","","","","","","","","",""
"","null","html-keyboard-response","328","497688","0.0-13.0-0.39","P9i5mIhWow","641e665144143d6ffe379ffe","6617fad957f7c6a12ea16e26","6622ce5f922a0fc246071ad8","fixation cross","null","","","","","","","","","","","",""
"","1239","html-keyboard-response","329","498929","0.0-13.0-1.39","P9i5mIhWow","641e665144143d6ffe379ffe","6617fad957f7c6a12ea16e26","6622ce5f922a0fc246071ad8","image grid","q","","","","","Ontogenetic_Distractor_Threat_target","2500","ongrid","q","5","Ontogenetic","true","experimental"
"","null","html-keyboard-response","330","499114","0.0-13.0-2.39","P9i5mIhWow","641e665144143d6ffe379ffe","6617fad957f7c6a12ea16e26","6622ce5f922a0fc246071ad8","
    <div id=""grid-container"">
        <!-- Grid items will be dynamically added here -->
    </div>    ","null","","","","","","","","","","","",""
"","31994","html-keyboard-response","331","531323","0.0-14.0","P9i5mIhWow","641e665144143d6ffe379ffe","6617fad957f7c6a12ea16e26","6622ce5f922a0fc246071ad8","break screen"," ","","","","","","","","","","","",""
"","null","html-keyboard-response","332","533845","0.0-15.0-0.0","P9i5mIhWow","641e665144143d6ffe379ffe","6617fad957f7c6a12ea16e26","6622ce5f922a0fc246071ad8","fixation cross","null","","","","","","","","","","","",""
"","null","html-keyboard-response","333","534649","0.0-15.0-1.0","P9i5mIhWow","641e665144143d6ffe379ffe","6617fad957f7c6a12ea16e26","6622ce5f922a0fc246071ad8","
        <div id=""grid-container"">
        <!-- Grid items will be dynamically added here -->
    </div>    ","null","","","","","","","","","","","",""
"","2057","html-keyboard-response","334","535910","0.0-15.0-2.0","P9i5mIhWow","641e665144143d6ffe379ffe","6617fad957f7c6a12ea16e26","6622ce5f922a0fc246071ad8","mask grid"," ","","","","","Ontogenetic_Distractor_Nonthreat_target","800","onmask","p","3","Ontogenetic","false","experimental"
"","null","html-keyboard-response","335","536623","0.0-15.0-0.1","P9i5mIhWow","641e665144143d6ffe379ffe","6617fad957f7c6a12ea16e26","6622ce5f922a0fc246071ad8","fixation cross","null","","","","","","","","","","","",""
"","null","html-keyboard-response","336","537440","0.0-15.0-1.1","P9i5mIhWow","641e665144143d6ffe379ffe","6617fad957f7c6a12ea16e26","6622ce5f922a0fc246071ad8","
        <div id=""grid-container"">
        <!-- Grid items will be dynamically added here -->
    </div>    ","null","","","","","","","","","","","",""
"","2620","html-keyboard-response","337","539262","0.0-15.0-2.1","P9i5mIhWow","641e665144143d6ffe379ffe","6617fad957f7c6a12ea16e26","6622ce5f922a0fc246071ad8","mask grid"," ","","","","","Ontogenetic_Distractor_Nonthreat_target","800","onmask","p","9","Ontogenetic","false","experimental"
"","null","html-keyboard-response","338","539986","0.0-15.0-0.2","P9i5mIhWow","641e665144143d6ffe379ffe","6617fad957f7c6a12ea16e26","6622ce5f922a0fc246071ad8","fixation cross","null","","","","","","","","","","","",""
"","763","html-keyboard-response","339","540751","0.0-15.0-1.2","P9i5mIhWow","641e665144143d6ffe379ffe","6617fad957f7c6a12ea16e26","6622ce5f922a0fc246071ad8","image grid","q","","","","","Ontogenetic_Distractor_Threat_target","800","ongrid","q","4","Ontogenetic","true","experimental"
"","null","html-keyboard-response","340","540937","0.0-15.0-2.2","P9i5mIhWow","641e665144143d6ffe379ffe","6617fad957f7c6a12ea16e26","6622ce5f922a0fc246071ad8","
    <div id=""grid-container"">
        <!-- Grid items will be dynamically added here -->
    </div>    ","null","","","","","","","","","","","",""
"","null","html-keyboard-response","341","541650","0.0-15.0-0.3","P9i5mIhWow","641e665144143d6ffe379ffe","6617fad957f7c6a12ea16e26","6622ce5f922a0fc246071ad8","fixation cross","null","","","","","","","","","","","",""
"","708","html-keyboard-response","342","542359","0.0-15.0-1.3","P9i5mIhWow","641e665144143d6ffe379ffe","6617fad957f7c6a12ea16e26","6622ce5f922a0fc246071ad8","image grid","p","","","","","Ontogenetic_Distractor_Nonthreat_target","800","ongrid","p","6","Ontogenetic","true","experimental"
"","null","html-keyboard-response","343","542542","0.0-15.0-2.3","P9i5mIhWow","641e665144143d6ffe379ffe","6617fad957f7c6a12ea16e26","6622ce5f922a0fc246071ad8","
    <div id=""grid-container"">
        <!-- Grid items will be dynamically added here -->
    </div>    ","null","","","","","","","","","","","",""
"","null","html-keyboard-response","344","543252","0.0-15.0-0.4","P9i5mIhWow","641e665144143d6ffe379ffe","6617fad957f7c6a12ea16e26","6622ce5f922a0fc246071ad8","fixation cross","null","","","","","","","","","","","",""
"","null","html-keyboard-response","345","544066","0.0-15.0-1.4","P9i5mIhWow","641e665144143d6ffe379ffe","6617fad957f7c6a12ea16e26","6622ce5f922a0fc246071ad8","
        <div id=""grid-container"">
        <!-- Grid items will be dynamically added here -->
    </div>    ","null","","","","","","","","","","","",""
"","1304","html-keyboard-response","346","544574","0.0-15.0-2.4","P9i5mIhWow","641e665144143d6ffe379ffe","6617fad957f7c6a12ea16e26","6622ce5f922a0fc246071ad8","mask grid"," ","","","","","Ontogenetic_Distractor_notarget","800","onmask"," ","9","Ontogenetic","true","experimental"
"","null","html-keyboard-response","347","545308","0.0-15.0-0.5","P9i5mIhWow","641e665144143d6ffe379ffe","6617fad957f7c6a12ea16e26","6622ce5f922a0fc246071ad8","fixation cross","null","","","","","","","","","","","",""
"","809","html-keyboard-response","348","546120","0.0-15.0-1.5","P9i5mIhWow","641e665144143d6ffe379ffe","6617fad957f7c6a12ea16e26","6622ce5f922a0fc246071ad8","image grid","q","","","","","Ontogenetic_Distractor_Nonthreat_target","800","ongrid","p","4","Ontogenetic","false","experimental"
"","null","html-keyboard-response","349","546326","0.0-15.0-2.5","P9i5mIhWow","641e665144143d6ffe379ffe","6617fad957f7c6a12ea16e26","6622ce5f922a0fc246071ad8","
    <div id=""grid-container"">
        <!-- Grid items will be dynamically added here -->
    </div>    ","null","","","","","","","","","","","",""
"","null","html-keyboard-response","350","547047","0.0-15.0-0.6","P9i5mIhWow","641e665144143d6ffe379ffe","6617fad957f7c6a12ea16e26","6622ce5f922a0fc246071ad8","fixation cross","null","","","","","","","","","","","",""
"","null","html-keyboard-response","351","547856","0.0-15.0-1.6","P9i5mIhWow","641e665144143d6ffe379ffe","6617fad957f7c6a12ea16e26","6622ce5f922a0fc246071ad8","
        <div id=""grid-container"">
        <!-- Grid items will be dynamically added here -->
    </div>    ","null","","","","","","","","","","","",""
"","1271","html-keyboard-response","352","548331","0.0-15.0-2.6","P9i5mIhWow","641e665144143d6ffe379ffe","6617fad957f7c6a12ea16e26","6622ce5f922a0fc246071ad8","mask grid","p","","","","","Ontogenetic_Distractor_Nonthreat_target","800","onmask","p","4","Ontogenetic","true","experimental"
"","null","html-keyboard-response","353","549039","0.0-15.0-0.7","P9i5mIhWow","641e665144143d6ffe379ffe","6617fad957f7c6a12ea16e26","6622ce5f922a0fc246071ad8","fixation cross","null","","","","","","","","","","","",""
"","null","html-keyboard-response","354","549848","0.0-15.0-1.7","P9i5mIhWow","641e665144143d6ffe379ffe","6617fad957f7c6a12ea16e26","6622ce5f922a0fc246071ad8","
        <div id=""grid-container"">
        <!-- Grid items will be dynamically added here -->
    </div>    ","null","","","","","","","","","","","",""
"","1938","html-keyboard-response","355","551001","0.0-15.0-2.7","P9i5mIhWow","641e665144143d6ffe379ffe","6617fad957f7c6a12ea16e26","6622ce5f922a0fc246071ad8","mask grid","p","","","","","Ontogenetic_Distractor_Threat_target","800","onmask","q","4","Ontogenetic","false","experimental"
"","null","html-keyboard-response","356","551731","0.0-15.0-0.8","P9i5mIhWow","641e665144143d6ffe379ffe","6617fad957f7c6a12ea16e26","6622ce5f922a0fc246071ad8","fixation cross","null","","","","","","","","","","","",""
"","null","html-keyboard-response","357","552535","0.0-15.0-1.8","P9i5mIhWow","641e665144143d6ffe379ffe","6617fad957f7c6a12ea16e26","6622ce5f922a0fc246071ad8","
        <div id=""grid-container"">
        <!-- Grid items will be dynamically added here -->
    </div>    ","null","","","","","","","","","","","",""
"","1400","html-keyboard-response","358","553136","0.0-15.0-2.8","P9i5mIhWow","641e665144143d6ffe379ffe","6617fad957f7c6a12ea16e26","6622ce5f922a0fc246071ad8","mask grid","q","","","","","Ontogenetic_Distractor_Threat_target","800","onmask","q","6","Ontogenetic","true","experimental"
"","null","html-keyboard-response","359","553862","0.0-15.0-0.9","P9i5mIhWow","641e665144143d6ffe379ffe","6617fad957f7c6a12ea16e26","6622ce5f922a0fc246071ad8","fixation cross","null","","","","","","","","","","","",""
"","677","html-keyboard-response","360","554540","0.0-15.0-1.9","P9i5mIhWow","641e665144143d6ffe379ffe","6617fad957f7c6a12ea16e26","6622ce5f922a0fc246071ad8","image grid","p","","","","","Ontogenetic_Distractor_Nonthreat_target","800","ongrid","p","5","Ontogenetic","true","experimental"
"","null","html-keyboard-response","361","554753","0.0-15.0-2.9","P9i5mIhWow","641e665144143d6ffe379ffe","6617fad957f7c6a12ea16e26","6622ce5f922a0fc246071ad8","
    <div id=""grid-container"">
        <!-- Grid items will be dynamically added here -->
    </div>    ","null","","","","","","","","","","","",""
"","null","html-keyboard-response","362","555489","0.0-15.0-0.10","P9i5mIhWow","641e665144143d6ffe379ffe","6617fad957f7c6a12ea16e26","6622ce5f922a0fc246071ad8","fixation cross","null","","","","","","","","","","","",""
"","null","html-keyboard-response","363","556305","0.0-15.0-1.10","P9i5mIhWow","641e665144143d6ffe379ffe","6617fad957f7c6a12ea16e26","6622ce5f922a0fc246071ad8","
        <div id=""grid-container"">
        <!-- Grid items will be dynamically added here -->
    </div>    ","null","","","","","","","","","","","",""
"","1213","html-keyboard-response","364","556721","0.0-15.0-2.10","P9i5mIhWow","641e665144143d6ffe379ffe","6617fad957f7c6a12ea16e26","6622ce5f922a0fc246071ad8","mask grid"," ","","","","","Ontogenetic_Distractor_Nonthreat_target","800","onmask","p","1","Ontogenetic","false","experimental"
"","null","html-keyboard-response","365","557441","0.0-15.0-0.11","P9i5mIhWow","641e665144143d6ffe379ffe","6617fad957f7c6a12ea16e26","6622ce5f922a0fc246071ad8","fixation cross","null","","","","","","","","","","","",""
"","711","html-keyboard-response","366","558154","0.0-15.0-1.11","P9i5mIhWow","641e665144143d6ffe379ffe","6617fad957f7c6a12ea16e26","6622ce5f922a0fc246071ad8","image grid","q","","","","","Ontogenetic_Distractor_Threat_target","800","ongrid","q","6","Ontogenetic","true","experimental"
"","null","html-keyboard-response","367","558338","0.0-15.0-2.11","P9i5mIhWow","641e665144143d6ffe379ffe","6617fad957f7c6a12ea16e26","6622ce5f922a0fc246071ad8","
    <div id=""grid-container"">
        <!-- Grid items will be dynamically added here -->
    </div>    ","null","","","","","","","","","","","",""
"","null","html-keyboard-response","368","559056","0.0-15.0-0.12","P9i5mIhWow","641e665144143d6ffe379ffe","6617fad957f7c6a12ea16e26","6622ce5f922a0fc246071ad8","fixation cross","null","","","","","","","","","","","",""
"","null","html-keyboard-response","369","559862","0.0-15.0-1.12","P9i5mIhWow","641e665144143d6ffe379ffe","6617fad957f7c6a12ea16e26","6622ce5f922a0fc246071ad8","
        <div id=""grid-container"">
        <!-- Grid items will be dynamically added here -->
    </div>    ","null","","","","","","","","","","","",""
