"success","rt","trial_type","trial_index","time_elapsed","internal_node_id","unique_identifier","subject_id","study_id","session_id","stimulus","response","timeout","failed_images","failed_audio","failed_video","task","respondedwhen","time_manipulation","correctresponse","targetimagelocation","blocktype","correct","roundtype"
"true","2513","fullscreen","0","3516","0.0-0.0","HO5i88scua","58fd4bc1e219d00001ee5a55","6617fad957f7c6a12ea16e26","6622c9a4a711531c2c74fc6b","","","","","","","","","","","","","",""
"","8116","html-keyboard-response","1","11635","0.0-1.0","HO5i88scua","58fd4bc1e219d00001ee5a55","6617fad957f7c6a12ea16e26","6622c9a4a711531c2c74fc6b","instruction screen 0","enter","","","","","","","","","","","",""
"true","","preload","2","14118","0.0-2.0","HO5i88scua","58fd4bc1e219d00001ee5a55","6617fad957f7c6a12ea16e26","6622c9a4a711531c2c74fc6b","","","false","[]","[]","[]","","","","","","","",""
"","8852","html-keyboard-response","3","22970","0.0-3.0","HO5i88scua","58fd4bc1e219d00001ee5a55","6617fad957f7c6a12ea16e26","6622c9a4a711531c2c74fc6b","instruction screen 1","enter","","","","","","","","","","","",""
"","5775","html-keyboard-response","4","28748","0.0-4.0","HO5i88scua","58fd4bc1e219d00001ee5a55","6617fad957f7c6a12ea16e26","6622c9a4a711531c2c74fc6b","instruction screen 2","q","","","","","","","","","","","",""
"","4694","html-keyboard-response","5","33444","0.0-5.0","HO5i88scua","58fd4bc1e219d00001ee5a55","6617fad957f7c6a12ea16e26","6622c9a4a711531c2c74fc6b","instruction screen 3","p","","","","","","","","","","","",""
"","4862","html-keyboard-response","6","38311","0.0-6.0","HO5i88scua","58fd4bc1e219d00001ee5a55","6617fad957f7c6a12ea16e26","6622c9a4a711531c2c74fc6b","instruction screen 4"," ","","","","","","","","","","","",""
"","6424","html-keyboard-response","7","44738","0.0-7.0","HO5i88scua","58fd4bc1e219d00001ee5a55","6617fad957f7c6a12ea16e26","6622c9a4a711531c2c74fc6b","instruction screen 5"," ","","","","","","","","","","","",""
"","null","html-keyboard-response","8","45245","0.0-8.0","HO5i88scua","58fd4bc1e219d00001ee5a55","6617fad957f7c6a12ea16e26","6622c9a4a711531c2c74fc6b","fixation cross","null","","","","","","","","","","","",""
"","null","html-keyboard-response","9","45747","0.0-9.0-0.0","HO5i88scua","58fd4bc1e219d00001ee5a55","6617fad957f7c6a12ea16e26","6622c9a4a711531c2c74fc6b","fixation cross","null","","","","","","","","","","","",""
"","null","html-keyboard-response","10","48750","0.0-9.0-1.0","HO5i88scua","58fd4bc1e219d00001ee5a55","6617fad957f7c6a12ea16e26","6622c9a4a711531c2c74fc6b","
        <div id=""grid-container"">
        <!-- Grid items will be dynamically added here -->
    </div>    ","null","","","","","","","","","","","",""
"","4173","html-keyboard-response","11","49924","0.0-9.0-2.0","HO5i88scua","58fd4bc1e219d00001ee5a55","6617fad957f7c6a12ea16e26","6622c9a4a711531c2c74fc6b","mask grid","q","","","","","Ontogenetic_Distractor_Threat_target","onmask","3000","q","6","Ontogenetic","true","practice"
"","null","html-keyboard-response","12","51130","0.0-9.0-3.0","HO5i88scua","58fd4bc1e219d00001ee5a55","6617fad957f7c6a12ea16e26","6622c9a4a711531c2c74fc6b","feedback screen","null","","","","","","","","","","","",""
"","null","html-keyboard-response","13","51637","0.0-9.0-0.1","HO5i88scua","58fd4bc1e219d00001ee5a55","6617fad957f7c6a12ea16e26","6622c9a4a711531c2c74fc6b","fixation cross","null","","","","","","","","","","","",""
"","null","html-keyboard-response","14","54540","0.0-9.0-1.1","HO5i88scua","58fd4bc1e219d00001ee5a55","6617fad957f7c6a12ea16e26","6622c9a4a711531c2c74fc6b","
        <div id=""grid-container"">
        <!-- Grid items will be dynamically added here -->
    </div>    ","null","","","","","","","","","","","",""
"","3602","html-keyboard-response","15","55244","0.0-9.0-2.1","HO5i88scua","58fd4bc1e219d00001ee5a55","6617fad957f7c6a12ea16e26","6622c9a4a711531c2c74fc6b","mask grid","p","","","","","Phylogenetic_Distractor_Nonthreat_target","onmask","2900","p","5","Ontogenetic","true","practice"
"","null","html-keyboard-response","16","56448","0.0-9.0-3.1","HO5i88scua","58fd4bc1e219d00001ee5a55","6617fad957f7c6a12ea16e26","6622c9a4a711531c2c74fc6b","feedback screen","null","","","","","","","","","","","",""
"","null","html-keyboard-response","17","56954","0.0-9.0-0.2","HO5i88scua","58fd4bc1e219d00001ee5a55","6617fad957f7c6a12ea16e26","6622c9a4a711531c2c74fc6b","fixation cross","null","","","","","","","","","","","",""
"","null","html-keyboard-response","18","59756","0.0-9.0-1.2","HO5i88scua","58fd4bc1e219d00001ee5a55","6617fad957f7c6a12ea16e26","6622c9a4a711531c2c74fc6b","
        <div id=""grid-container"">
        <!-- Grid items will be dynamically added here -->
    </div>    ","null","","","","","","","","","","","",""
"","3255","html-keyboard-response","19","60211","0.0-9.0-2.2","HO5i88scua","58fd4bc1e219d00001ee5a55","6617fad957f7c6a12ea16e26","6622c9a4a711531c2c74fc6b","mask grid"," ","","","","","Ontogenetic_Distractor_notarget","onmask","2800"," ","5","Ontogenetic","true","practice"
"","null","html-keyboard-response","20","61416","0.0-9.0-3.2","HO5i88scua","58fd4bc1e219d00001ee5a55","6617fad957f7c6a12ea16e26","6622c9a4a711531c2c74fc6b","feedback screen","null","","","","","","","","","","","",""
"","null","html-keyboard-response","21","61921","0.0-9.0-0.3","HO5i88scua","58fd4bc1e219d00001ee5a55","6617fad957f7c6a12ea16e26","6622c9a4a711531c2c74fc6b","fixation cross","null","","","","","","","","","","","",""
"","null","html-keyboard-response","22","64624","0.0-9.0-1.3","HO5i88scua","58fd4bc1e219d00001ee5a55","6617fad957f7c6a12ea16e26","6622c9a4a711531c2c74fc6b","
        <div id=""grid-container"">
        <!-- Grid items will be dynamically added here -->
    </div>    ","null","","","","","","","","","","","",""
"","3263","html-keyboard-response","23","65188","0.0-9.0-2.3","HO5i88scua","58fd4bc1e219d00001ee5a55","6617fad957f7c6a12ea16e26","6622c9a4a711531c2c74fc6b","mask grid","q","","","","","Phylogenetic_Distractor_Threat_target","onmask","2700","q","4","Ontogenetic","true","practice"
"","null","html-keyboard-response","24","66394","0.0-9.0-3.3","HO5i88scua","58fd4bc1e219d00001ee5a55","6617fad957f7c6a12ea16e26","6622c9a4a711531c2c74fc6b","feedback screen","null","","","","","","","","","","","",""
"","null","html-keyboard-response","25","66902","0.0-9.0-0.4","HO5i88scua","58fd4bc1e219d00001ee5a55","6617fad957f7c6a12ea16e26","6622c9a4a711531c2c74fc6b","fixation cross","null","","","","","","","","","","","",""
"","null","html-keyboard-response","26","69504","0.0-9.0-1.4","HO5i88scua","58fd4bc1e219d00001ee5a55","6617fad957f7c6a12ea16e26","6622c9a4a711531c2c74fc6b","
        <div id=""grid-container"">
        <!-- Grid items will be dynamically added here -->
    </div>    ","null","","","","","","","","","","","",""
"","3288","html-keyboard-response","27","70193","0.0-9.0-2.4","HO5i88scua","58fd4bc1e219d00001ee5a55","6617fad957f7c6a12ea16e26","6622c9a4a711531c2c74fc6b","mask grid","p","","","","","Phylogenetic_Distractor_Nonthreat_target","onmask","2600","p","6","Ontogenetic","true","practice"
"","null","html-keyboard-response","28","71396","0.0-9.0-3.4","HO5i88scua","58fd4bc1e219d00001ee5a55","6617fad957f7c6a12ea16e26","6622c9a4a711531c2c74fc6b","feedback screen","null","","","","","","","","","","","",""
"","null","html-keyboard-response","29","71908","0.0-9.0-0.5","HO5i88scua","58fd4bc1e219d00001ee5a55","6617fad957f7c6a12ea16e26","6622c9a4a711531c2c74fc6b","fixation cross","null","","","","","","","","","","","",""
"","null","html-keyboard-response","30","74411","0.0-9.0-1.5","HO5i88scua","58fd4bc1e219d00001ee5a55","6617fad957f7c6a12ea16e26","6622c9a4a711531c2c74fc6b","
        <div id=""grid-container"">
        <!-- Grid items will be dynamically added here -->
    </div>    ","null","","","","","","","","","","","",""
"","3206","html-keyboard-response","31","75118","0.0-9.0-2.5","HO5i88scua","58fd4bc1e219d00001ee5a55","6617fad957f7c6a12ea16e26","6622c9a4a711531c2c74fc6b","mask grid","q","","","","","Ontogenetic_Distractor_Threat_target","onmask","2500","q","7","Ontogenetic","true","practice"
"","null","html-keyboard-response","32","76323","0.0-9.0-3.5","HO5i88scua","58fd4bc1e219d00001ee5a55","6617fad957f7c6a12ea16e26","6622c9a4a711531c2c74fc6b","feedback screen","null","","","","","","","","","","","",""
"","null","html-keyboard-response","33","76830","0.0-9.0-0.6","HO5i88scua","58fd4bc1e219d00001ee5a55","6617fad957f7c6a12ea16e26","6622c9a4a711531c2c74fc6b","fixation cross","null","","","","","","","","","","","",""
"","null","html-keyboard-response","34","79232","0.0-9.0-1.6","HO5i88scua","58fd4bc1e219d00001ee5a55","6617fad957f7c6a12ea16e26","6622c9a4a711531c2c74fc6b","
        <div id=""grid-container"">
        <!-- Grid items will be dynamically added here -->
    </div>    ","null","","","","","","","","","","","",""
"","2872","html-keyboard-response","35","79705","0.0-9.0-2.6","HO5i88scua","58fd4bc1e219d00001ee5a55","6617fad957f7c6a12ea16e26","6622c9a4a711531c2c74fc6b","mask grid"," ","","","","","Ontogenetic_Distractor_notarget","onmask","2400"," ","7","Ontogenetic","true","practice"
"","null","html-keyboard-response","36","80910","0.0-9.0-3.6","HO5i88scua","58fd4bc1e219d00001ee5a55","6617fad957f7c6a12ea16e26","6622c9a4a711531c2c74fc6b","feedback screen","null","","","","","","","","","","","",""
"","null","html-keyboard-response","37","81417","0.0-9.0-0.7","HO5i88scua","58fd4bc1e219d00001ee5a55","6617fad957f7c6a12ea16e26","6622c9a4a711531c2c74fc6b","fixation cross","null","","","","","","","","","","","",""
"","null","html-keyboard-response","38","83720","0.0-9.0-1.7","HO5i88scua","58fd4bc1e219d00001ee5a55","6617fad957f7c6a12ea16e26","6622c9a4a711531c2c74fc6b","
        <div id=""grid-container"">
        <!-- Grid items will be dynamically added here -->
    </div>    ","null","","","","","","","","","","","",""
"","2973","html-keyboard-response","39","84394","0.0-9.0-2.7","HO5i88scua","58fd4bc1e219d00001ee5a55","6617fad957f7c6a12ea16e26","6622c9a4a711531c2c74fc6b","mask grid","q","","","","","Ontogenetic_Distractor_Threat_target","onmask","2300","q","4","Ontogenetic","true","practice"
"","null","html-keyboard-response","40","85599","0.0-9.0-3.7","HO5i88scua","58fd4bc1e219d00001ee5a55","6617fad957f7c6a12ea16e26","6622c9a4a711531c2c74fc6b","feedback screen","null","","","","","","","","","","","",""
"","null","html-keyboard-response","41","86105","0.0-9.0-0.8","HO5i88scua","58fd4bc1e219d00001ee5a55","6617fad957f7c6a12ea16e26","6622c9a4a711531c2c74fc6b","fixation cross","null","","","","","","","","","","","",""
"","null","html-keyboard-response","42","88307","0.0-9.0-1.8","HO5i88scua","58fd4bc1e219d00001ee5a55","6617fad957f7c6a12ea16e26","6622c9a4a711531c2c74fc6b","
        <div id=""grid-container"">
        <!-- Grid items will be dynamically added here -->
    </div>    ","null","","","","","","","","","","","",""
"","3042","html-keyboard-response","43","89150","0.0-9.0-2.8","HO5i88scua","58fd4bc1e219d00001ee5a55","6617fad957f7c6a12ea16e26","6622c9a4a711531c2c74fc6b","mask grid","q","","","","","Ontogenetic_Distractor_Threat_target","onmask","2200","q","1","Ontogenetic","true","practice"
"","null","html-keyboard-response","44","90354","0.0-9.0-3.8","HO5i88scua","58fd4bc1e219d00001ee5a55","6617fad957f7c6a12ea16e26","6622c9a4a711531c2c74fc6b","feedback screen","null","","","","","","","","","","","",""
"","null","html-keyboard-response","45","90858","0.0-9.0-0.9","HO5i88scua","58fd4bc1e219d00001ee5a55","6617fad957f7c6a12ea16e26","6622c9a4a711531c2c74fc6b","fixation cross","null","","","","","","","","","","","",""
"","null","html-keyboard-response","46","92961","0.0-9.0-1.9","HO5i88scua","58fd4bc1e219d00001ee5a55","6617fad957f7c6a12ea16e26","6622c9a4a711531c2c74fc6b","
        <div id=""grid-container"">
        <!-- Grid items will be dynamically added here -->
    </div>    ","null","","","","","","","","","","","",""
"","2757","html-keyboard-response","47","93619","0.0-9.0-2.9","HO5i88scua","58fd4bc1e219d00001ee5a55","6617fad957f7c6a12ea16e26","6622c9a4a711531c2c74fc6b","mask grid","p","","","","","Ontogenetic_Distractor_Nonthreat_target","onmask","2100","p","9","Ontogenetic","true","practice"
"","null","html-keyboard-response","48","94823","0.0-9.0-3.9","HO5i88scua","58fd4bc1e219d00001ee5a55","6617fad957f7c6a12ea16e26","6622c9a4a711531c2c74fc6b","feedback screen","null","","","","","","","","","","","",""
"","null","html-keyboard-response","49","95329","0.0-9.0-0.10","HO5i88scua","58fd4bc1e219d00001ee5a55","6617fad957f7c6a12ea16e26","6622c9a4a711531c2c74fc6b","fixation cross","null","","","","","","","","","","","",""
"","null","html-keyboard-response","50","97332","0.0-9.0-1.10","HO5i88scua","58fd4bc1e219d00001ee5a55","6617fad957f7c6a12ea16e26","6622c9a4a711531c2c74fc6b","
        <div id=""grid-container"">
        <!-- Grid items will be dynamically added here -->
    </div>    ","null","","","","","","","","","","","",""
"","2630","html-keyboard-response","51","97962","0.0-9.0-2.10","HO5i88scua","58fd4bc1e219d00001ee5a55","6617fad957f7c6a12ea16e26","6622c9a4a711531c2c74fc6b","mask grid","p","","","","","Phylogenetic_Distractor_Nonthreat_target","onmask","2000","p","4","Ontogenetic","true","practice"
"","null","html-keyboard-response","52","99167","0.0-9.0-3.10","HO5i88scua","58fd4bc1e219d00001ee5a55","6617fad957f7c6a12ea16e26","6622c9a4a711531c2c74fc6b","feedback screen","null","","","","","","","","","","","",""
"","null","html-keyboard-response","53","99673","0.0-9.0-0.11","HO5i88scua","58fd4bc1e219d00001ee5a55","6617fad957f7c6a12ea16e26","6622c9a4a711531c2c74fc6b","fixation cross","null","","","","","","","","","","","",""
"","null","html-keyboard-response","54","101576","0.0-9.0-1.11","HO5i88scua","58fd4bc1e219d00001ee5a55","6617fad957f7c6a12ea16e26","6622c9a4a711531c2c74fc6b","
        <div id=""grid-container"">
        <!-- Grid items will be dynamically added here -->
    </div>    ","null","","","","","","","","","","","",""
"","2380","html-keyboard-response","55","102057","0.0-9.0-2.11","HO5i88scua","58fd4bc1e219d00001ee5a55","6617fad957f7c6a12ea16e26","6622c9a4a711531c2c74fc6b","mask grid","q","","","","","Phylogenetic_Distractor_Threat_target","onmask","1900","q","4","Ontogenetic","true","practice"
"","null","html-keyboard-response","56","103262","0.0-9.0-3.11","HO5i88scua","58fd4bc1e219d00001ee5a55","6617fad957f7c6a12ea16e26","6622c9a4a711531c2c74fc6b","feedback screen","null","","","","","","","","","","","",""
"","null","html-keyboard-response","57","103770","0.0-9.0-0.12","HO5i88scua","58fd4bc1e219d00001ee5a55","6617fad957f7c6a12ea16e26","6622c9a4a711531c2c74fc6b","fixation cross","null","","","","","","","","","","","",""
"","null","html-keyboard-response","58","105573","0.0-9.0-1.12","HO5i88scua","58fd4bc1e219d00001ee5a55","6617fad957f7c6a12ea16e26","6622c9a4a711531c2c74fc6b","
        <div id=""grid-container"">
        <!-- Grid items will be dynamically added here -->
    </div>    ","null","","","","","","","","","","","",""
"","2261","html-keyboard-response","59","106034","0.0-9.0-2.12","HO5i88scua","58fd4bc1e219d00001ee5a55","6617fad957f7c6a12ea16e26","6622c9a4a711531c2c74fc6b","mask grid","q","","","","","Phylogenetic_Distractor_Threat_target","onmask","1800","q","1","Ontogenetic","true","practice"
"","null","html-keyboard-response","60","107239","0.0-9.0-3.12","HO5i88scua","58fd4bc1e219d00001ee5a55","6617fad957f7c6a12ea16e26","6622c9a4a711531c2c74fc6b","feedback screen","null","","","","","","","","","","","",""
"","null","html-keyboard-response","61","107746","0.0-9.0-0.13","HO5i88scua","58fd4bc1e219d00001ee5a55","6617fad957f7c6a12ea16e26","6622c9a4a711531c2c74fc6b","fixation cross","null","","","","","","","","","","","",""
"","null","html-keyboard-response","62","109450","0.0-9.0-1.13","HO5i88scua","58fd4bc1e219d00001ee5a55","6617fad957f7c6a12ea16e26","6622c9a4a711531c2c74fc6b","
        <div id=""grid-container"">
        <!-- Grid items will be dynamically added here -->
    </div>    ","null","","","","","","","","","","","",""
"","2090","html-keyboard-response","63","109840","0.0-9.0-2.13","HO5i88scua","58fd4bc1e219d00001ee5a55","6617fad957f7c6a12ea16e26","6622c9a4a711531c2c74fc6b","mask grid","p","","","","","Phylogenetic_Distractor_Nonthreat_target","onmask","1700","p","8","Ontogenetic","true","practice"
"","null","html-keyboard-response","64","111046","0.0-9.0-3.13","HO5i88scua","58fd4bc1e219d00001ee5a55","6617fad957f7c6a12ea16e26","6622c9a4a711531c2c74fc6b","feedback screen","null","","","","","","","","","","","",""
"","null","html-keyboard-response","65","111553","0.0-9.0-0.14","HO5i88scua","58fd4bc1e219d00001ee5a55","6617fad957f7c6a12ea16e26","6622c9a4a711531c2c74fc6b","fixation cross","null","","","","","","","","","","","",""
"","null","html-keyboard-response","66","113155","0.0-9.0-1.14","HO5i88scua","58fd4bc1e219d00001ee5a55","6617fad957f7c6a12ea16e26","6622c9a4a711531c2c74fc6b","
        <div id=""grid-container"">
        <!-- Grid items will be dynamically added here -->
    </div>    ","null","","","","","","","","","","","",""
"","2029","html-keyboard-response","67","113585","0.0-9.0-2.14","HO5i88scua","58fd4bc1e219d00001ee5a55","6617fad957f7c6a12ea16e26","6622c9a4a711531c2c74fc6b","mask grid"," ","","","","","Phylogenetic_Distractor_notarget","onmask","1600"," ","7","Ontogenetic","true","practice"
"","null","html-keyboard-response","68","114790","0.0-9.0-3.14","HO5i88scua","58fd4bc1e219d00001ee5a55","6617fad957f7c6a12ea16e26","6622c9a4a711531c2c74fc6b","feedback screen","null","","","","","","","","","","","",""
"","null","html-keyboard-response","69","115297","0.0-9.0-0.15","HO5i88scua","58fd4bc1e219d00001ee5a55","6617fad957f7c6a12ea16e26","6622c9a4a711531c2c74fc6b","fixation cross","null","","","","","","","","","","","",""
"","null","html-keyboard-response","70","116800","0.0-9.0-1.15","HO5i88scua","58fd4bc1e219d00001ee5a55","6617fad957f7c6a12ea16e26","6622c9a4a711531c2c74fc6b","
        <div id=""grid-container"">
        <!-- Grid items will be dynamically added here -->
    </div>    ","null","","","","","","","","","","","",""
"","2191","html-keyboard-response","71","117492","0.0-9.0-2.15","HO5i88scua","58fd4bc1e219d00001ee5a55","6617fad957f7c6a12ea16e26","6622c9a4a711531c2c74fc6b","mask grid","p","","","","","Ontogenetic_Distractor_Nonthreat_target","onmask","1500","p","4","Ontogenetic","true","practice"
"","null","html-keyboard-response","72","118697","0.0-9.0-3.15","HO5i88scua","58fd4bc1e219d00001ee5a55","6617fad957f7c6a12ea16e26","6622c9a4a711531c2c74fc6b","feedback screen","null","","","","","","","","","","","",""
"","null","html-keyboard-response","73","119201","0.0-9.0-0.16","HO5i88scua","58fd4bc1e219d00001ee5a55","6617fad957f7c6a12ea16e26","6622c9a4a711531c2c74fc6b","fixation cross","null","","","","","","","","","","","",""
"","null","html-keyboard-response","74","120604","0.0-9.0-1.16","HO5i88scua","58fd4bc1e219d00001ee5a55","6617fad957f7c6a12ea16e26","6622c9a4a711531c2c74fc6b","
        <div id=""grid-container"">
        <!-- Grid items will be dynamically added here -->
    </div>    ","null","","","","","","","","","","","",""
"","2047","html-keyboard-response","75","121252","0.0-9.0-2.16","HO5i88scua","58fd4bc1e219d00001ee5a55","6617fad957f7c6a12ea16e26","6622c9a4a711531c2c74fc6b","mask grid","p","","","","","Ontogenetic_Distractor_Nonthreat_target","onmask","1400","p","1","Ontogenetic","true","practice"
"","null","html-keyboard-response","76","122456","0.0-9.0-3.16","HO5i88scua","58fd4bc1e219d00001ee5a55","6617fad957f7c6a12ea16e26","6622c9a4a711531c2c74fc6b","feedback screen","null","","","","","","","","","","","",""
"","null","html-keyboard-response","77","122962","0.0-9.0-0.17","HO5i88scua","58fd4bc1e219d00001ee5a55","6617fad957f7c6a12ea16e26","6622c9a4a711531c2c74fc6b","fixation cross","null","","","","","","","","","","","",""
"","null","html-keyboard-response","78","124265","0.0-9.0-1.17","HO5i88scua","58fd4bc1e219d00001ee5a55","6617fad957f7c6a12ea16e26","6622c9a4a711531c2c74fc6b","
        <div id=""grid-container"">
        <!-- Grid items will be dynamically added here -->
    </div>    ","null","","","","","","","","","","","",""
"","1733","html-keyboard-response","79","124699","0.0-9.0-2.17","HO5i88scua","58fd4bc1e219d00001ee5a55","6617fad957f7c6a12ea16e26","6622c9a4a711531c2c74fc6b","mask grid","q","","","","","Phylogenetic_Distractor_Threat_target","onmask","1300","q","9","Ontogenetic","true","practice"
"","null","html-keyboard-response","80","125906","0.0-9.0-3.17","HO5i88scua","58fd4bc1e219d00001ee5a55","6617fad957f7c6a12ea16e26","6622c9a4a711531c2c74fc6b","feedback screen","null","","","","","","","","","","","",""
"","null","html-keyboard-response","81","126413","0.0-9.0-0.18","HO5i88scua","58fd4bc1e219d00001ee5a55","6617fad957f7c6a12ea16e26","6622c9a4a711531c2c74fc6b","fixation cross","null","","","","","","","","","","","",""
"","null","html-keyboard-response","82","127616","0.0-9.0-1.18","HO5i88scua","58fd4bc1e219d00001ee5a55","6617fad957f7c6a12ea16e26","6622c9a4a711531c2c74fc6b","
        <div id=""grid-container"">
        <!-- Grid items will be dynamically added here -->
    </div>    ","null","","","","","","","","","","","",""
"","1755","html-keyboard-response","83","128171","0.0-9.0-2.18","HO5i88scua","58fd4bc1e219d00001ee5a55","6617fad957f7c6a12ea16e26","6622c9a4a711531c2c74fc6b","mask grid","q","","","","","Ontogenetic_Distractor_Nonthreat_target","onmask","1200","p","6","Ontogenetic","false","practice"
"","null","html-keyboard-response","84","129375","0.0-9.0-3.18","HO5i88scua","58fd4bc1e219d00001ee5a55","6617fad957f7c6a12ea16e26","6622c9a4a711531c2c74fc6b","feedback screen","null","","","","","","","","","","","",""
"","null","html-keyboard-response","85","129880","0.0-9.0-0.19","HO5i88scua","58fd4bc1e219d00001ee5a55","6617fad957f7c6a12ea16e26","6622c9a4a711531c2c74fc6b","fixation cross","null","","","","","","","","","","","",""
"","null","html-keyboard-response","86","130983","0.0-9.0-1.19","HO5i88scua","58fd4bc1e219d00001ee5a55","6617fad957f7c6a12ea16e26","6622c9a4a711531c2c74fc6b","
        <div id=""grid-container"">
        <!-- Grid items will be dynamically added here -->
    </div>    ","null","","","","","","","","","","","",""
"","1653","html-keyboard-response","87","131536","0.0-9.0-2.19","HO5i88scua","58fd4bc1e219d00001ee5a55","6617fad957f7c6a12ea16e26","6622c9a4a711531c2c74fc6b","mask grid"," ","","","","","Phylogenetic_Distractor_notarget","onmask","1100"," ","8","Ontogenetic","true","practice"
"","null","html-keyboard-response","88","132741","0.0-9.0-3.19","HO5i88scua","58fd4bc1e219d00001ee5a55","6617fad957f7c6a12ea16e26","6622c9a4a711531c2c74fc6b","feedback screen","null","","","","","","","","","","","",""
"","8135","html-keyboard-response","89","140883","0.0-10.0","HO5i88scua","58fd4bc1e219d00001ee5a55","6617fad957f7c6a12ea16e26","6622c9a4a711531c2c74fc6b","pre-experimental_briefing"," ","","","","","","","","","","","",""
"","null","html-keyboard-response","90","143388","0.0-11.0-0.0","HO5i88scua","58fd4bc1e219d00001ee5a55","6617fad957f7c6a12ea16e26","6622c9a4a711531c2c74fc6b","fixation cross","null","","","","","","","","","","","",""
"","2201","html-keyboard-response","91","145590","0.0-11.0-1.0","HO5i88scua","58fd4bc1e219d00001ee5a55","6617fad957f7c6a12ea16e26","6622c9a4a711531c2c74fc6b","image grid","q","","","","","Ontogenetic_Distractor_Threat_target","ongrid","2500","q","9","Ontogenetic","true","experimental"
"","null","html-keyboard-response","92","145742","0.0-11.0-2.0","HO5i88scua","58fd4bc1e219d00001ee5a55","6617fad957f7c6a12ea16e26","6622c9a4a711531c2c74fc6b","
    <div id=""grid-container"">
        <!-- Grid items will be dynamically added here -->
    </div>    ","null","","","","","","","","","","","",""
"","403","html-keyboard-response","93","146447","0.0-11.0-0.1","HO5i88scua","58fd4bc1e219d00001ee5a55","6617fad957f7c6a12ea16e26","6622c9a4a711531c2c74fc6b","fixation cross","q","","","","","","","","","","","",""
"","null","html-keyboard-response","94","148950","0.0-11.0-1.1","HO5i88scua","58fd4bc1e219d00001ee5a55","6617fad957f7c6a12ea16e26","6622c9a4a711531c2c74fc6b","
        <div id=""grid-container"">
        <!-- Grid items will be dynamically added here -->
    </div>    ","null","","","","","","","","","","","",""
"","2972","html-keyboard-response","95","149423","0.0-11.0-2.1","HO5i88scua","58fd4bc1e219d00001ee5a55","6617fad957f7c6a12ea16e26","6622c9a4a711531c2c74fc6b","mask grid","p","","","","","Ontogenetic_Distractor_Nonthreat_target","onmask","2500","p","6","Ontogenetic","true","experimental"
"","null","html-keyboard-response","96","150126","0.0-11.0-0.2","HO5i88scua","58fd4bc1e219d00001ee5a55","6617fad957f7c6a12ea16e26","6622c9a4a711531c2c74fc6b","fixation cross","null","","","","","","","","","","","",""
"","null","html-keyboard-response","97","152629","0.0-11.0-1.2","HO5i88scua","58fd4bc1e219d00001ee5a55","6617fad957f7c6a12ea16e26","6622c9a4a711531c2c74fc6b","
        <div id=""grid-container"">
        <!-- Grid items will be dynamically added here -->
    </div>    ","null","","","","","","","","","","","",""
"","2928","html-keyboard-response","98","153058","0.0-11.0-2.2","HO5i88scua","58fd4bc1e219d00001ee5a55","6617fad957f7c6a12ea16e26","6622c9a4a711531c2c74fc6b","mask grid","q","","","","","Ontogenetic_Distractor_Threat_target","onmask","2500","q","9","Ontogenetic","true","experimental"
"","null","html-keyboard-response","99","153763","0.0-11.0-0.3","HO5i88scua","58fd4bc1e219d00001ee5a55","6617fad957f7c6a12ea16e26","6622c9a4a711531c2c74fc6b","fixation cross","null","","","","","","","","","","","",""
"","null","html-keyboard-response","100","156266","0.0-11.0-1.3","HO5i88scua","58fd4bc1e219d00001ee5a55","6617fad957f7c6a12ea16e26","6622c9a4a711531c2c74fc6b","
        <div id=""grid-container"">
        <!-- Grid items will be dynamically added here -->
    </div>    ","null","","","","","","","","","","","",""
"","2860","html-keyboard-response","101","156626","0.0-11.0-2.3","HO5i88scua","58fd4bc1e219d00001ee5a55","6617fad957f7c6a12ea16e26","6622c9a4a711531c2c74fc6b","mask grid","p","","","","","Ontogenetic_Distractor_Nonthreat_target","onmask","2500","p","7","Ontogenetic","true","experimental"
"","null","html-keyboard-response","102","157331","0.0-11.0-0.4","HO5i88scua","58fd4bc1e219d00001ee5a55","6617fad957f7c6a12ea16e26","6622c9a4a711531c2c74fc6b","fixation cross","null","","","","","","","","","","","",""
"","null","html-keyboard-response","103","159833","0.0-11.0-1.4","HO5i88scua","58fd4bc1e219d00001ee5a55","6617fad957f7c6a12ea16e26","6622c9a4a711531c2c74fc6b","
        <div id=""grid-container"">
        <!-- Grid items will be dynamically added here -->
    </div>    ","null","","","","","","","","","","","",""
"","2853","html-keyboard-response","104","160187","0.0-11.0-2.4","HO5i88scua","58fd4bc1e219d00001ee5a55","6617fad957f7c6a12ea16e26","6622c9a4a711531c2c74fc6b","mask grid"," ","","","","","Ontogenetic_Distractor_notarget","onmask","2500"," ","8","Ontogenetic","true","experimental"
"","null","html-keyboard-response","105","160891","0.0-11.0-0.5","HO5i88scua","58fd4bc1e219d00001ee5a55","6617fad957f7c6a12ea16e26","6622c9a4a711531c2c74fc6b","fixation cross","null","","","","","","","","","","","",""
"","null","html-keyboard-response","106","163393","0.0-11.0-1.5","HO5i88scua","58fd4bc1e219d00001ee5a55","6617fad957f7c6a12ea16e26","6622c9a4a711531c2c74fc6b","
        <div id=""grid-container"">
        <!-- Grid items will be dynamically added here -->
    </div>    ","null","","","","","","","","","","","",""
"","2975","html-keyboard-response","107","163869","0.0-11.0-2.5","HO5i88scua","58fd4bc1e219d00001ee5a55","6617fad957f7c6a12ea16e26","6622c9a4a711531c2c74fc6b","mask grid","q","","","","","Ontogenetic_Distractor_Threat_target","onmask","2500","q","3","Ontogenetic","true","experimental"
"","null","html-keyboard-response","108","164572","0.0-11.0-0.6","HO5i88scua","58fd4bc1e219d00001ee5a55","6617fad957f7c6a12ea16e26","6622c9a4a711531c2c74fc6b","fixation cross","null","","","","","","","","","","","",""
"","null","html-keyboard-response","109","167075","0.0-11.0-1.6","HO5i88scua","58fd4bc1e219d00001ee5a55","6617fad957f7c6a12ea16e26","6622c9a4a711531c2c74fc6b","
        <div id=""grid-container"">
        <!-- Grid items will be dynamically added here -->
    </div>    ","null","","","","","","","","","","","",""
"","2774","html-keyboard-response","110","167350","0.0-11.0-2.6","HO5i88scua","58fd4bc1e219d00001ee5a55","6617fad957f7c6a12ea16e26","6622c9a4a711531c2c74fc6b","mask grid","q","","","","","Ontogenetic_Distractor_Threat_target","onmask","2500","q","2","Ontogenetic","true","experimental"
"","null","html-keyboard-response","111","168054","0.0-11.0-0.7","HO5i88scua","58fd4bc1e219d00001ee5a55","6617fad957f7c6a12ea16e26","6622c9a4a711531c2c74fc6b","fixation cross","null","","","","","","","","","","","",""
"","null","html-keyboard-response","112","170557","0.0-11.0-1.7","HO5i88scua","58fd4bc1e219d00001ee5a55","6617fad957f7c6a12ea16e26","6622c9a4a711531c2c74fc6b","
        <div id=""grid-container"">
        <!-- Grid items will be dynamically added here -->
    </div>    ","null","","","","","","","","","","","",""
"","2876","html-keyboard-response","113","170934","0.0-11.0-2.7","HO5i88scua","58fd4bc1e219d00001ee5a55","6617fad957f7c6a12ea16e26","6622c9a4a711531c2c74fc6b","mask grid","p","","","","","Ontogenetic_Distractor_Nonthreat_target","onmask","2500","p","3","Ontogenetic","true","experimental"
"","null","html-keyboard-response","114","171639","0.0-11.0-0.8","HO5i88scua","58fd4bc1e219d00001ee5a55","6617fad957f7c6a12ea16e26","6622c9a4a711531c2c74fc6b","fixation cross","null","","","","","","","","","","","",""
"","null","html-keyboard-response","115","174141","0.0-11.0-1.8","HO5i88scua","58fd4bc1e219d00001ee5a55","6617fad957f7c6a12ea16e26","6622c9a4a711531c2c74fc6b","
        <div id=""grid-container"">
        <!-- Grid items will be dynamically added here -->
    </div>    ","null","","","","","","","","","","","",""
"","2757","html-keyboard-response","116","174399","0.0-11.0-2.8","HO5i88scua","58fd4bc1e219d00001ee5a55","6617fad957f7c6a12ea16e26","6622c9a4a711531c2c74fc6b","mask grid","q","","","","","Ontogenetic_Distractor_Threat_target","onmask","2500","q","1","Ontogenetic","true","experimental"
"","null","html-keyboard-response","117","175103","0.0-11.0-0.9","HO5i88scua","58fd4bc1e219d00001ee5a55","6617fad957f7c6a12ea16e26","6622c9a4a711531c2c74fc6b","fixation cross","null","","","","","","","","","","","",""
"","null","html-keyboard-response","118","177606","0.0-11.0-1.9","HO5i88scua","58fd4bc1e219d00001ee5a55","6617fad957f7c6a12ea16e26","6622c9a4a711531c2c74fc6b","
        <div id=""grid-container"">
        <!-- Grid items will be dynamically added here -->
    </div>    ","null","","","","","","","","","","","",""
"","2840","html-keyboard-response","119","177947","0.0-11.0-2.9","HO5i88scua","58fd4bc1e219d00001ee5a55","6617fad957f7c6a12ea16e26","6622c9a4a711531c2c74fc6b","mask grid"," ","","","","","Ontogenetic_Distractor_notarget","onmask","2500"," ","7","Ontogenetic","true","experimental"
"","null","html-keyboard-response","120","178650","0.0-11.0-0.10","HO5i88scua","58fd4bc1e219d00001ee5a55","6617fad957f7c6a12ea16e26","6622c9a4a711531c2c74fc6b","fixation cross","null","","","","","","","","","","","",""
"","null","html-keyboard-response","121","181154","0.0-11.0-1.10","HO5i88scua","58fd4bc1e219d00001ee5a55","6617fad957f7c6a12ea16e26","6622c9a4a711531c2c74fc6b","
        <div id=""grid-container"">
        <!-- Grid items will be dynamically added here -->
    </div>    ","null","","","","","","","","","","","",""
"","2915","html-keyboard-response","122","181570","0.0-11.0-2.10","HO5i88scua","58fd4bc1e219d00001ee5a55","6617fad957f7c6a12ea16e26","6622c9a4a711531c2c74fc6b","mask grid","p","","","","","Ontogenetic_Distractor_Nonthreat_target","onmask","2500","p","9","Ontogenetic","true","experimental"
"","null","html-keyboard-response","123","182274","0.0-11.0-0.11","HO5i88scua","58fd4bc1e219d00001ee5a55","6617fad957f7c6a12ea16e26","6622c9a4a711531c2c74fc6b","fixation cross","null","","","","","","","","","","","",""
"","null","html-keyboard-response","124","184778","0.0-11.0-1.11","HO5i88scua","58fd4bc1e219d00001ee5a55","6617fad957f7c6a12ea16e26","6622c9a4a711531c2c74fc6b","
        <div id=""grid-container"">
        <!-- Grid items will be dynamically added here -->
    </div>    ","null","","","","","","","","","","","",""
"","2849","html-keyboard-response","125","185129","0.0-11.0-2.11","HO5i88scua","58fd4bc1e219d00001ee5a55","6617fad957f7c6a12ea16e26","6622c9a4a711531c2c74fc6b","mask grid","p","","","","","Ontogenetic_Distractor_Nonthreat_target","onmask","2500","p","5","Ontogenetic","true","experimental"
"","null","html-keyboard-response","126","185832","0.0-11.0-0.12","HO5i88scua","58fd4bc1e219d00001ee5a55","6617fad957f7c6a12ea16e26","6622c9a4a711531c2c74fc6b","fixation cross","null","","","","","","","","","","","",""
"","null","html-keyboard-response","127","188336","0.0-11.0-1.12","HO5i88scua","58fd4bc1e219d00001ee5a55","6617fad957f7c6a12ea16e26","6622c9a4a711531c2c74fc6b","
        <div id=""grid-container"">
        <!-- Grid items will be dynamically added here -->
    </div>    ","null","","","","","","","","","","","",""
"","2864","html-keyboard-response","128","188700","0.0-11.0-2.12","HO5i88scua","58fd4bc1e219d00001ee5a55","6617fad957f7c6a12ea16e26","6622c9a4a711531c2c74fc6b","mask grid","p","","","","","Ontogenetic_Distractor_Nonthreat_target","onmask","2500","p","3","Ontogenetic","true","experimental"
"","null","html-keyboard-response","129","189404","0.0-11.0-0.13","HO5i88scua","58fd4bc1e219d00001ee5a55","6617fad957f7c6a12ea16e26","6622c9a4a711531c2c74fc6b","fixation cross","null","","","","","","","","","","","",""
"","null","html-keyboard-response","130","191907","0.0-11.0-1.13","HO5i88scua","58fd4bc1e219d00001ee5a55","6617fad957f7c6a12ea16e26","6622c9a4a711531c2c74fc6b","
        <div id=""grid-container"">
        <!-- Grid items will be dynamically added here -->
    </div>    ","null","","","","","","","","","","","",""
"","2775","html-keyboard-response","131","192183","0.0-11.0-2.13","HO5i88scua","58fd4bc1e219d00001ee5a55","6617fad957f7c6a12ea16e26","6622c9a4a711531c2c74fc6b","mask grid","q","","","","","Ontogenetic_Distractor_Threat_target","onmask","2500","q","9","Ontogenetic","true","experimental"
"","null","html-keyboard-response","132","192887","0.0-11.0-0.14","HO5i88scua","58fd4bc1e219d00001ee5a55","6617fad957f7c6a12ea16e26","6622c9a4a711531c2c74fc6b","fixation cross","null","","","","","","","","","","","",""
"","null","html-keyboard-response","133","195389","0.0-11.0-1.14","HO5i88scua","58fd4bc1e219d00001ee5a55","6617fad957f7c6a12ea16e26","6622c9a4a711531c2c74fc6b","
        <div id=""grid-container"">
        <!-- Grid items will be dynamically added here -->
    </div>    ","null","","","","","","","","","","","",""
"","2755","html-keyboard-response","134","195645","0.0-11.0-2.14","HO5i88scua","58fd4bc1e219d00001ee5a55","6617fad957f7c6a12ea16e26","6622c9a4a711531c2c74fc6b","mask grid","p","","","","","Ontogenetic_Distractor_Nonthreat_target","onmask","2500","p","3","Ontogenetic","true","experimental"
"","null","html-keyboard-response","135","196350","0.0-11.0-0.15","HO5i88scua","58fd4bc1e219d00001ee5a55","6617fad957f7c6a12ea16e26","6622c9a4a711531c2c74fc6b","fixation cross","null","","","","","","","","","","","",""
"","null","html-keyboard-response","136","198852","0.0-11.0-1.15","HO5i88scua","58fd4bc1e219d00001ee5a55","6617fad957f7c6a12ea16e26","6622c9a4a711531c2c74fc6b","
        <div id=""grid-container"">
        <!-- Grid items will be dynamically added here -->
    </div>    ","null","","","","","","","","","","","",""
"","2735","html-keyboard-response","137","199088","0.0-11.0-2.15","HO5i88scua","58fd4bc1e219d00001ee5a55","6617fad957f7c6a12ea16e26","6622c9a4a711531c2c74fc6b","mask grid","q","","","","","Ontogenetic_Distractor_Threat_target","onmask","2500","q","1","Ontogenetic","true","experimental"
"","null","html-keyboard-response","138","199791","0.0-11.0-0.16","HO5i88scua","58fd4bc1e219d00001ee5a55","6617fad957f7c6a12ea16e26","6622c9a4a711531c2c74fc6b","fixation cross","null","","","","","","","","","","","",""
"","null","html-keyboard-response","139","202293","0.0-11.0-1.16","HO5i88scua","58fd4bc1e219d00001ee5a55","6617fad957f7c6a12ea16e26","6622c9a4a711531c2c74fc6b","
        <div id=""grid-container"">
        <!-- Grid items will be dynamically added here -->
    </div>    ","null","","","","","","","","","","","",""
"","2776","html-keyboard-response","140","202570","0.0-11.0-2.16","HO5i88scua","58fd4bc1e219d00001ee5a55","6617fad957f7c6a12ea16e26","6622c9a4a711531c2c74fc6b","mask grid","p","","","","","Ontogenetic_Distractor_Nonthreat_target","onmask","2500","p","2","Ontogenetic","true","experimental"
"","null","html-keyboard-response","141","203274","0.0-11.0-0.17","HO5i88scua","58fd4bc1e219d00001ee5a55","6617fad957f7c6a12ea16e26","6622c9a4a711531c2c74fc6b","fixation cross","null","","","","","","","","","","","",""
"","null","html-keyboard-response","142","205776","0.0-11.0-1.17","HO5i88scua","58fd4bc1e219d00001ee5a55","6617fad957f7c6a12ea16e26","6622c9a4a711531c2c74fc6b","
        <div id=""grid-container"">
        <!-- Grid items will be dynamically added here -->
    </div>    ","null","","","","","","","","","","","",""
"","2929","html-keyboard-response","143","206206","0.0-11.0-2.17","HO5i88scua","58fd4bc1e219d00001ee5a55","6617fad957f7c6a12ea16e26","6622c9a4a711531c2c74fc6b","mask grid","p","","","","","Ontogenetic_Distractor_Nonthreat_target","onmask","2500","p","9","Ontogenetic","true","experimental"
"","null","html-keyboard-response","144","206910","0.0-11.0-0.18","HO5i88scua","58fd4bc1e219d00001ee5a55","6617fad957f7c6a12ea16e26","6622c9a4a711531c2c74fc6b","fixation cross","null","","","","","","","","","","","",""
"","null","html-keyboard-response","145","209412","0.0-11.0-1.18","HO5i88scua","58fd4bc1e219d00001ee5a55","6617fad957f7c6a12ea16e26","6622c9a4a711531c2c74fc6b","
        <div id=""grid-container"">
        <!-- Grid items will be dynamically added here -->
    </div>    ","null","","","","","","","","","","","",""
"","2770","html-keyboard-response","146","209683","0.0-11.0-2.18","HO5i88scua","58fd4bc1e219d00001ee5a55","6617fad957f7c6a12ea16e26","6622c9a4a711531c2c74fc6b","mask grid","p","","","","","Ontogenetic_Distractor_Nonthreat_target","onmask","2500","p","2","Ontogenetic","true","experimental"
"","null","html-keyboard-response","147","210388","0.0-11.0-0.19","HO5i88scua","58fd4bc1e219d00001ee5a55","6617fad957f7c6a12ea16e26","6622c9a4a711531c2c74fc6b","fixation cross","null","","","","","","","","","","","",""
"","null","html-keyboard-response","148","212891","0.0-11.0-1.19","HO5i88scua","58fd4bc1e219d00001ee5a55","6617fad957f7c6a12ea16e26","6622c9a4a711531c2c74fc6b","
        <div id=""grid-container"">
        <!-- Grid items will be dynamically added here -->
    </div>    ","null","","","","","","","","","","","",""
"","2803","html-keyboard-response","149","213195","0.0-11.0-2.19","HO5i88scua","58fd4bc1e219d00001ee5a55","6617fad957f7c6a12ea16e26","6622c9a4a711531c2c74fc6b","mask grid"," ","","","","","Ontogenetic_Distractor_notarget","onmask","2500"," ","9","Ontogenetic","true","experimental"
"","null","html-keyboard-response","150","213899","0.0-11.0-0.20","HO5i88scua","58fd4bc1e219d00001ee5a55","6617fad957f7c6a12ea16e26","6622c9a4a711531c2c74fc6b","fixation cross","null","","","","","","","","","","","",""
"","null","html-keyboard-response","151","216402","0.0-11.0-1.20","HO5i88scua","58fd4bc1e219d00001ee5a55","6617fad957f7c6a12ea16e26","6622c9a4a711531c2c74fc6b","
        <div id=""grid-container"">
        <!-- Grid items will be dynamically added here -->
    </div>    ","null","","","","","","","","","","","",""
"","2963","html-keyboard-response","152","216865","0.0-11.0-2.20","HO5i88scua","58fd4bc1e219d00001ee5a55","6617fad957f7c6a12ea16e26","6622c9a4a711531c2c74fc6b","mask grid","p","","","","","Ontogenetic_Distractor_Nonthreat_target","onmask","2500","p","3","Ontogenetic","true","experimental"
"","null","html-keyboard-response","153","217570","0.0-11.0-0.21","HO5i88scua","58fd4bc1e219d00001ee5a55","6617fad957f7c6a12ea16e26","6622c9a4a711531c2c74fc6b","fixation cross","null","","","","","","","","","","","",""
"","null","html-keyboard-response","154","220073","0.0-11.0-1.21","HO5i88scua","58fd4bc1e219d00001ee5a55","6617fad957f7c6a12ea16e26","6622c9a4a711531c2c74fc6b","
        <div id=""grid-container"">
        <!-- Grid items will be dynamically added here -->
    </div>    ","null","","","","","","","","","","","",""
"","2743","html-keyboard-response","155","220316","0.0-11.0-2.21","HO5i88scua","58fd4bc1e219d00001ee5a55","6617fad957f7c6a12ea16e26","6622c9a4a711531c2c74fc6b","mask grid","q","","","","","Ontogenetic_Distractor_Threat_target","onmask","2500","q","4","Ontogenetic","true","experimental"
"","null","html-keyboard-response","156","221019","0.0-11.0-0.22","HO5i88scua","58fd4bc1e219d00001ee5a55","6617fad957f7c6a12ea16e26","6622c9a4a711531c2c74fc6b","fixation cross","null","","","","","","","","","","","",""
"","null","html-keyboard-response","157","223522","0.0-11.0-1.22","HO5i88scua","58fd4bc1e219d00001ee5a55","6617fad957f7c6a12ea16e26","6622c9a4a711531c2c74fc6b","
        <div id=""grid-container"">
        <!-- Grid items will be dynamically added here -->
    </div>    ","null","","","","","","","","","","","",""
"","2796","html-keyboard-response","158","223818","0.0-11.0-2.22","HO5i88scua","58fd4bc1e219d00001ee5a55","6617fad957f7c6a12ea16e26","6622c9a4a711531c2c74fc6b","mask grid","q","","","","","Ontogenetic_Distractor_Threat_target","onmask","2500","q","8","Ontogenetic","true","experimental"
"","null","html-keyboard-response","159","224522","0.0-11.0-0.23","HO5i88scua","58fd4bc1e219d00001ee5a55","6617fad957f7c6a12ea16e26","6622c9a4a711531c2c74fc6b","fixation cross","null","","","","","","","","","","","",""
"","null","html-keyboard-response","160","227024","0.0-11.0-1.23","HO5i88scua","58fd4bc1e219d00001ee5a55","6617fad957f7c6a12ea16e26","6622c9a4a711531c2c74fc6b","
        <div id=""grid-container"">
        <!-- Grid items will be dynamically added here -->
    </div>    ","null","","","","","","","","","","","",""
"","2884","html-keyboard-response","161","227409","0.0-11.0-2.23","HO5i88scua","58fd4bc1e219d00001ee5a55","6617fad957f7c6a12ea16e26","6622c9a4a711531c2c74fc6b","mask grid","p","","","","","Ontogenetic_Distractor_Nonthreat_target","onmask","2500","p","7","Ontogenetic","true","experimental"
"","null","html-keyboard-response","162","228113","0.0-11.0-0.24","HO5i88scua","58fd4bc1e219d00001ee5a55","6617fad957f7c6a12ea16e26","6622c9a4a711531c2c74fc6b","fixation cross","null","","","","","","","","","","","",""
"","null","html-keyboard-response","163","230615","0.0-11.0-1.24","HO5i88scua","58fd4bc1e219d00001ee5a55","6617fad957f7c6a12ea16e26","6622c9a4a711531c2c74fc6b","
        <div id=""grid-container"">
        <!-- Grid items will be dynamically added here -->
    </div>    ","null","","","","","","","","","","","",""
"","3022","html-keyboard-response","164","231138","0.0-11.0-2.24","HO5i88scua","58fd4bc1e219d00001ee5a55","6617fad957f7c6a12ea16e26","6622c9a4a711531c2c74fc6b","mask grid","p","","","","","Ontogenetic_Distractor_Nonthreat_target","onmask","2500","p","2","Ontogenetic","true","experimental"
"","null","html-keyboard-response","165","231842","0.0-11.0-0.25","HO5i88scua","58fd4bc1e219d00001ee5a55","6617fad957f7c6a12ea16e26","6622c9a4a711531c2c74fc6b","fixation cross","null","","","","","","","","","","","",""
"","null","html-keyboard-response","166","234346","0.0-11.0-1.25","HO5i88scua","58fd4bc1e219d00001ee5a55","6617fad957f7c6a12ea16e26","6622c9a4a711531c2c74fc6b","
        <div id=""grid-container"">
        <!-- Grid items will be dynamically added here -->
    </div>    ","null","","","","","","","","","","","",""
"","2989","html-keyboard-response","167","234836","0.0-11.0-2.25","HO5i88scua","58fd4bc1e219d00001ee5a55","6617fad957f7c6a12ea16e26","6622c9a4a711531c2c74fc6b","mask grid","p","","","","","Ontogenetic_Distractor_Nonthreat_target","onmask","2500","p","7","Ontogenetic","true","experimental"
"","null","html-keyboard-response","168","235541","0.0-11.0-0.26","HO5i88scua","58fd4bc1e219d00001ee5a55","6617fad957f7c6a12ea16e26","6622c9a4a711531c2c74fc6b","fixation cross","null","","","","","","","","","","","",""
"","null","html-keyboard-response","169","238044","0.0-11.0-1.26","HO5i88scua","58fd4bc1e219d00001ee5a55","6617fad957f7c6a12ea16e26","6622c9a4a711531c2c74fc6b","
        <div id=""grid-container"">
        <!-- Grid items will be dynamically added here -->
    </div>    ","null","","","","","","","","","","","",""
"","2834","html-keyboard-response","170","238378","0.0-11.0-2.26","HO5i88scua","58fd4bc1e219d00001ee5a55","6617fad957f7c6a12ea16e26","6622c9a4a711531c2c74fc6b","mask grid","p","","","","","Ontogenetic_Distractor_Nonthreat_target","onmask","2500","p","8","Ontogenetic","true","experimental"
"","null","html-keyboard-response","171","239082","0.0-11.0-0.27","HO5i88scua","58fd4bc1e219d00001ee5a55","6617fad957f7c6a12ea16e26","6622c9a4a711531c2c74fc6b","fixation cross","null","","","","","","","","","","","",""
"","null","html-keyboard-response","172","241584","0.0-11.0-1.27","HO5i88scua","58fd4bc1e219d00001ee5a55","6617fad957f7c6a12ea16e26","6622c9a4a711531c2c74fc6b","
        <div id=""grid-container"">
        <!-- Grid items will be dynamically added here -->
    </div>    ","null","","","","","","","","","","","",""
"","2937","html-keyboard-response","173","242022","0.0-11.0-2.27","HO5i88scua","58fd4bc1e219d00001ee5a55","6617fad957f7c6a12ea16e26","6622c9a4a711531c2c74fc6b","mask grid","q","","","","","Ontogenetic_Distractor_Threat_target","onmask","2500","q","8","Ontogenetic","true","experimental"
"","null","html-keyboard-response","174","242727","0.0-11.0-0.28","HO5i88scua","58fd4bc1e219d00001ee5a55","6617fad957f7c6a12ea16e26","6622c9a4a711531c2c74fc6b","fixation cross","null","","","","","","","","","","","",""
"","null","html-keyboard-response","175","245231","0.0-11.0-1.28","HO5i88scua","58fd4bc1e219d00001ee5a55","6617fad957f7c6a12ea16e26","6622c9a4a711531c2c74fc6b","
        <div id=""grid-container"">
        <!-- Grid items will be dynamically added here -->
    </div>    ","null","","","","","","","","","","","",""
"","2957","html-keyboard-response","176","245687","0.0-11.0-2.28","HO5i88scua","58fd4bc1e219d00001ee5a55","6617fad957f7c6a12ea16e26","6622c9a4a711531c2c74fc6b","mask grid","q","","","","","Ontogenetic_Distractor_Threat_target","onmask","2500","q","4","Ontogenetic","true","experimental"
"","null","html-keyboard-response","177","246392","0.0-11.0-0.29","HO5i88scua","58fd4bc1e219d00001ee5a55","6617fad957f7c6a12ea16e26","6622c9a4a711531c2c74fc6b","fixation cross","null","","","","","","","","","","","",""
"","null","html-keyboard-response","178","248895","0.0-11.0-1.29","HO5i88scua","58fd4bc1e219d00001ee5a55","6617fad957f7c6a12ea16e26","6622c9a4a711531c2c74fc6b","
        <div id=""grid-container"">
        <!-- Grid items will be dynamically added here -->
    </div>    ","null","","","","","","","","","","","",""
"","2899","html-keyboard-response","179","249295","0.0-11.0-2.29","HO5i88scua","58fd4bc1e219d00001ee5a55","6617fad957f7c6a12ea16e26","6622c9a4a711531c2c74fc6b","mask grid","q","","","","","Ontogenetic_Distractor_Threat_target","onmask","2500","q","1","Ontogenetic","true","experimental"
"","null","html-keyboard-response","180","249999","0.0-11.0-0.30","HO5i88scua","58fd4bc1e219d00001ee5a55","6617fad957f7c6a12ea16e26","6622c9a4a711531c2c74fc6b","fixation cross","null","","","","","","","","","","","",""
"","null","html-keyboard-response","181","252501","0.0-11.0-1.30","HO5i88scua","58fd4bc1e219d00001ee5a55","6617fad957f7c6a12ea16e26","6622c9a4a711531c2c74fc6b","
        <div id=""grid-container"">
        <!-- Grid items will be dynamically added here -->
    </div>    ","null","","","","","","","","","","","",""
"","2781","html-keyboard-response","182","252782","0.0-11.0-2.30","HO5i88scua","58fd4bc1e219d00001ee5a55","6617fad957f7c6a12ea16e26","6622c9a4a711531c2c74fc6b","mask grid","q","","","","","Ontogenetic_Distractor_Threat_target","onmask","2500","q","1","Ontogenetic","true","experimental"
"","null","html-keyboard-response","183","253486","0.0-11.0-0.31","HO5i88scua","58fd4bc1e219d00001ee5a55","6617fad957f7c6a12ea16e26","6622c9a4a711531c2c74fc6b","fixation cross","null","","","","","","","","","","","",""
"","null","html-keyboard-response","184","255988","0.0-11.0-1.31","HO5i88scua","58fd4bc1e219d00001ee5a55","6617fad957f7c6a12ea16e26","6622c9a4a711531c2c74fc6b","
        <div id=""grid-container"">
        <!-- Grid items will be dynamically added here -->
    </div>    ","null","","","","","","","","","","","",""
"","2796","html-keyboard-response","185","256286","0.0-11.0-2.31","HO5i88scua","58fd4bc1e219d00001ee5a55","6617fad957f7c6a12ea16e26","6622c9a4a711531c2c74fc6b","mask grid"," ","","","","","Ontogenetic_Distractor_notarget","onmask","2500"," ","3","Ontogenetic","true","experimental"
"","null","html-keyboard-response","186","256991","0.0-11.0-0.32","HO5i88scua","58fd4bc1e219d00001ee5a55","6617fad957f7c6a12ea16e26","6622c9a4a711531c2c74fc6b","fixation cross","null","","","","","","","","","","","",""
"","null","html-keyboard-response","187","259494","0.0-11.0-1.32","HO5i88scua","58fd4bc1e219d00001ee5a55","6617fad957f7c6a12ea16e26","6622c9a4a711531c2c74fc6b","
        <div id=""grid-container"">
        <!-- Grid items will be dynamically added here -->
    </div>    ","null","","","","","","","","","","","",""
"","2850","html-keyboard-response","188","259844","0.0-11.0-2.32","HO5i88scua","58fd4bc1e219d00001ee5a55","6617fad957f7c6a12ea16e26","6622c9a4a711531c2c74fc6b","mask grid","p","","","","","Ontogenetic_Distractor_Nonthreat_target","onmask","2500","p","1","Ontogenetic","true","experimental"
"","null","html-keyboard-response","189","260549","0.0-11.0-0.33","HO5i88scua","58fd4bc1e219d00001ee5a55","6617fad957f7c6a12ea16e26","6622c9a4a711531c2c74fc6b","fixation cross","null","","","","","","","","","","","",""
"","2400","html-keyboard-response","190","262949","0.0-11.0-1.33","HO5i88scua","58fd4bc1e219d00001ee5a55","6617fad957f7c6a12ea16e26","6622c9a4a711531c2c74fc6b","image grid","q","","","","","Ontogenetic_Distractor_Threat_target","ongrid","2500","q","3","Ontogenetic","true","experimental"
"","null","html-keyboard-response","191","263102","0.0-11.0-2.33","HO5i88scua","58fd4bc1e219d00001ee5a55","6617fad957f7c6a12ea16e26","6622c9a4a711531c2c74fc6b","
    <div id=""grid-container"">
        <!-- Grid items will be dynamically added here -->
    </div>    ","null","","","","","","","","","","","",""
"","null","html-keyboard-response","192","263806","0.0-11.0-0.34","HO5i88scua","58fd4bc1e219d00001ee5a55","6617fad957f7c6a12ea16e26","6622c9a4a711531c2c74fc6b","fixation cross","null","","","","","","","","","","","",""
"","null","html-keyboard-response","193","266308","0.0-11.0-1.34","HO5i88scua","58fd4bc1e219d00001ee5a55","6617fad957f7c6a12ea16e26","6622c9a4a711531c2c74fc6b","
        <div id=""grid-container"">
        <!-- Grid items will be dynamically added here -->
    </div>    ","null","","","","","","","","","","","",""
"","2789","html-keyboard-response","194","266599","0.0-11.0-2.34","HO5i88scua","58fd4bc1e219d00001ee5a55","6617fad957f7c6a12ea16e26","6622c9a4a711531c2c74fc6b","mask grid","q","","","","","Ontogenetic_Distractor_Threat_target","onmask","2500","q","3","Ontogenetic","true","experimental"
"","null","html-keyboard-response","195","267303","0.0-11.0-0.35","HO5i88scua","58fd4bc1e219d00001ee5a55","6617fad957f7c6a12ea16e26","6622c9a4a711531c2c74fc6b","fixation cross","null","","","","","","","","","","","",""
"","null","html-keyboard-response","196","269806","0.0-11.0-1.35","HO5i88scua","58fd4bc1e219d00001ee5a55","6617fad957f7c6a12ea16e26","6622c9a4a711531c2c74fc6b","
        <div id=""grid-container"">
        <!-- Grid items will be dynamically added here -->
    </div>    ","null","","","","","","","","","","","",""
"","2839","html-keyboard-response","197","270146","0.0-11.0-2.35","HO5i88scua","58fd4bc1e219d00001ee5a55","6617fad957f7c6a12ea16e26","6622c9a4a711531c2c74fc6b","mask grid","q","","","","","Ontogenetic_Distractor_Threat_target","onmask","2500","q","8","Ontogenetic","true","experimental"
"","null","html-keyboard-response","198","270850","0.0-11.0-0.36","HO5i88scua","58fd4bc1e219d00001ee5a55","6617fad957f7c6a12ea16e26","6622c9a4a711531c2c74fc6b","fixation cross","null","","","","","","","","","","","",""
"","null","html-keyboard-response","199","273352","0.0-11.0-1.36","HO5i88scua","58fd4bc1e219d00001ee5a55","6617fad957f7c6a12ea16e26","6622c9a4a711531c2c74fc6b","
        <div id=""grid-container"">
        <!-- Grid items will be dynamically added here -->
    </div>    ","null","","","","","","","","","","","",""
"","2769","html-keyboard-response","200","273622","0.0-11.0-2.36","HO5i88scua","58fd4bc1e219d00001ee5a55","6617fad957f7c6a12ea16e26","6622c9a4a711531c2c74fc6b","mask grid","p","","","","","Ontogenetic_Distractor_Nonthreat_target","onmask","2500","p","6","Ontogenetic","true","experimental"
"","null","html-keyboard-response","201","274326","0.0-11.0-0.37","HO5i88scua","58fd4bc1e219d00001ee5a55","6617fad957f7c6a12ea16e26","6622c9a4a711531c2c74fc6b","fixation cross","null","","","","","","","","","","","",""
"","null","html-keyboard-response","202","276829","0.0-11.0-1.37","HO5i88scua","58fd4bc1e219d00001ee5a55","6617fad957f7c6a12ea16e26","6622c9a4a711531c2c74fc6b","
        <div id=""grid-container"">
        <!-- Grid items will be dynamically added here -->
    </div>    ","null","","","","","","","","","","","",""
"","2757","html-keyboard-response","203","277086","0.0-11.0-2.37","HO5i88scua","58fd4bc1e219d00001ee5a55","6617fad957f7c6a12ea16e26","6622c9a4a711531c2c74fc6b","mask grid","p","","","","","Ontogenetic_Distractor_Nonthreat_target","onmask","2500","p","4","Ontogenetic","true","experimental"
"","null","html-keyboard-response","204","277791","0.0-11.0-0.38","HO5i88scua","58fd4bc1e219d00001ee5a55","6617fad957f7c6a12ea16e26","6622c9a4a711531c2c74fc6b","fixation cross","null","","","","","","","","","","","",""
"","null","html-keyboard-response","205","280294","0.0-11.0-1.38","HO5i88scua","58fd4bc1e219d00001ee5a55","6617fad957f7c6a12ea16e26","6622c9a4a711531c2c74fc6b","
        <div id=""grid-container"">
        <!-- Grid items will be dynamically added here -->
    </div>    ","null","","","","","","","","","","","",""
"","2724","html-keyboard-response","206","280518","0.0-11.0-2.38","HO5i88scua","58fd4bc1e219d00001ee5a55","6617fad957f7c6a12ea16e26","6622c9a4a711531c2c74fc6b","mask grid","q","","","","","Ontogenetic_Distractor_Threat_target","onmask","2500","q","4","Ontogenetic","true","experimental"
"","null","html-keyboard-response","207","281223","0.0-11.0-0.39","HO5i88scua","58fd4bc1e219d00001ee5a55","6617fad957f7c6a12ea16e26","6622c9a4a711531c2c74fc6b","fixation cross","null","","","","","","","","","","","",""
"","null","html-keyboard-response","208","283725","0.0-11.0-1.39","HO5i88scua","58fd4bc1e219d00001ee5a55","6617fad957f7c6a12ea16e26","6622c9a4a711531c2c74fc6b","
        <div id=""grid-container"">
        <!-- Grid items will be dynamically added here -->
    </div>    ","null","","","","","","","","","","","",""
"","2724","html-keyboard-response","209","283951","0.0-11.0-2.39","HO5i88scua","58fd4bc1e219d00001ee5a55","6617fad957f7c6a12ea16e26","6622c9a4a711531c2c74fc6b","mask grid","q","","","","","Ontogenetic_Distractor_Threat_target","onmask","2500","q","6","Ontogenetic","true","experimental"
"","6175","html-keyboard-response","210","290330","0.0-12.0","HO5i88scua","58fd4bc1e219d00001ee5a55","6617fad957f7c6a12ea16e26","6622c9a4a711531c2c74fc6b","break screen"," ","","","","","","","","","","","",""
"","null","html-keyboard-response","211","292834","0.0-13.0-0.0","HO5i88scua","58fd4bc1e219d00001ee5a55","6617fad957f7c6a12ea16e26","6622c9a4a711531c2c74fc6b","fixation cross","null","","","","","","","","","","","",""
"","null","html-keyboard-response","212","293637","0.0-13.0-1.0","HO5i88scua","58fd4bc1e219d00001ee5a55","6617fad957f7c6a12ea16e26","6622c9a4a711531c2c74fc6b","
        <div id=""grid-container"">
        <!-- Grid items will be dynamically added here -->
    </div>    ","null","","","","","","","","","","","",""
"","1403","html-keyboard-response","213","294241","0.0-13.0-2.0","HO5i88scua","58fd4bc1e219d00001ee5a55","6617fad957f7c6a12ea16e26","6622c9a4a711531c2c74fc6b","mask grid","p","","","","","Phylogenetic_Distractor_Nonthreat_target","onmask","800","p","4","Phylogenetic","true","experimental"
"","null","html-keyboard-response","214","294945","0.0-13.0-0.1","HO5i88scua","58fd4bc1e219d00001ee5a55","6617fad957f7c6a12ea16e26","6622c9a4a711531c2c74fc6b","fixation cross","null","","","","","","","","","","","",""
"","null","html-keyboard-response","215","295748","0.0-13.0-1.1","HO5i88scua","58fd4bc1e219d00001ee5a55","6617fad957f7c6a12ea16e26","6622c9a4a711531c2c74fc6b","
        <div id=""grid-container"">
        <!-- Grid items will be dynamically added here -->
    </div>    ","null","","","","","","","","","","","",""
"","1241","html-keyboard-response","216","296189","0.0-13.0-2.1","HO5i88scua","58fd4bc1e219d00001ee5a55","6617fad957f7c6a12ea16e26","6622c9a4a711531c2c74fc6b","mask grid","p","","","","","Phylogenetic_Distractor_Nonthreat_target","onmask","800","p","5","Phylogenetic","true","experimental"
"","null","html-keyboard-response","217","296894","0.0-13.0-0.2","HO5i88scua","58fd4bc1e219d00001ee5a55","6617fad957f7c6a12ea16e26","6622c9a4a711531c2c74fc6b","fixation cross","null","","","","","","","","","","","",""
"","null","html-keyboard-response","218","297696","0.0-13.0-1.2","HO5i88scua","58fd4bc1e219d00001ee5a55","6617fad957f7c6a12ea16e26","6622c9a4a711531c2c74fc6b","
        <div id=""grid-container"">
        <!-- Grid items will be dynamically added here -->
    </div>    ","null","","","","","","","","","","","",""
"","1345","html-keyboard-response","219","298242","0.0-13.0-2.2","HO5i88scua","58fd4bc1e219d00001ee5a55","6617fad957f7c6a12ea16e26","6622c9a4a711531c2c74fc6b","mask grid","q","","","","","Phylogenetic_Distractor_Threat_target","onmask","800","q","5","Phylogenetic","true","experimental"
"","null","html-keyboard-response","220","298947","0.0-13.0-0.3","HO5i88scua","58fd4bc1e219d00001ee5a55","6617fad957f7c6a12ea16e26","6622c9a4a711531c2c74fc6b","fixation cross","null","","","","","","","","","","","",""
"","null","html-keyboard-response","221","299749","0.0-13.0-1.3","HO5i88scua","58fd4bc1e219d00001ee5a55","6617fad957f7c6a12ea16e26","6622c9a4a711531c2c74fc6b","
        <div id=""grid-container"">
        <!-- Grid items will be dynamically added here -->
    </div>    ","null","","","","","","","","","","","",""
"","1222","html-keyboard-response","222","300172","0.0-13.0-2.3","HO5i88scua","58fd4bc1e219d00001ee5a55","6617fad957f7c6a12ea16e26","6622c9a4a711531c2c74fc6b","mask grid"," ","","","","","Phylogenetic_Distractor_notarget","onmask","800"," ","5","Phylogenetic","true","experimental"
"","null","html-keyboard-response","223","300877","0.0-13.0-0.4","HO5i88scua","58fd4bc1e219d00001ee5a55","6617fad957f7c6a12ea16e26","6622c9a4a711531c2c74fc6b","fixation cross","null","","","","","","","","","","","",""
"","null","html-keyboard-response","224","301679","0.0-13.0-1.4","HO5i88scua","58fd4bc1e219d00001ee5a55","6617fad957f7c6a12ea16e26","6622c9a4a711531c2c74fc6b","
        <div id=""grid-container"">
        <!-- Grid items will be dynamically added here -->
    </div>    ","null","","","","","","","","","","","",""
"","1263","html-keyboard-response","225","302143","0.0-13.0-2.4","HO5i88scua","58fd4bc1e219d00001ee5a55","6617fad957f7c6a12ea16e26","6622c9a4a711531c2c74fc6b","mask grid","p","","","","","Phylogenetic_Distractor_Nonthreat_target","onmask","800","p","5","Phylogenetic","true","experimental"
"","null","html-keyboard-response","226","302847","0.0-13.0-0.5","HO5i88scua","58fd4bc1e219d00001ee5a55","6617fad957f7c6a12ea16e26","6622c9a4a711531c2c74fc6b","fixation cross","null","","","","","","","","","","","",""
"","null","html-keyboard-response","227","303650","0.0-13.0-1.5","HO5i88scua","58fd4bc1e219d00001ee5a55","6617fad957f7c6a12ea16e26","6622c9a4a711531c2c74fc6b","
        <div id=""grid-container"">
        <!-- Grid items will be dynamically added here -->
    </div>    ","null","","","","","","","","","","","",""
"","1085","html-keyboard-response","228","303935","0.0-13.0-2.5","HO5i88scua","58fd4bc1e219d00001ee5a55","6617fad957f7c6a12ea16e26","6622c9a4a711531c2c74fc6b","mask grid","q","","","","","Phylogenetic_Distractor_Threat_target","onmask","800","q","7","Phylogenetic","true","experimental"
"","null","html-keyboard-response","229","304640","0.0-13.0-0.6","HO5i88scua","58fd4bc1e219d00001ee5a55","6617fad957f7c6a12ea16e26","6622c9a4a711531c2c74fc6b","fixation cross","null","","","","","","","","","","","",""
"","null","html-keyboard-response","230","305442","0.0-13.0-1.6","HO5i88scua","58fd4bc1e219d00001ee5a55","6617fad957f7c6a12ea16e26","6622c9a4a711531c2c74fc6b","
        <div id=""grid-container"">
        <!-- Grid items will be dynamically added here -->
    </div>    ","null","","","","","","","","","","","",""
"","1170","html-keyboard-response","231","305813","0.0-13.0-2.6","HO5i88scua","58fd4bc1e219d00001ee5a55","6617fad957f7c6a12ea16e26","6622c9a4a711531c2c74fc6b","mask grid","q","","","","","Phylogenetic_Distractor_Threat_target","onmask","800","q","6","Phylogenetic","true","experimental"
"","null","html-keyboard-response","232","306518","0.0-13.0-0.7","HO5i88scua","58fd4bc1e219d00001ee5a55","6617fad957f7c6a12ea16e26","6622c9a4a711531c2c74fc6b","fixation cross","null","","","","","","","","","","","",""
"","null","html-keyboard-response","233","307321","0.0-13.0-1.7","HO5i88scua","58fd4bc1e219d00001ee5a55","6617fad957f7c6a12ea16e26","6622c9a4a711531c2c74fc6b","
        <div id=""grid-container"">
        <!-- Grid items will be dynamically added here -->
    </div>    ","null","","","","","","","","","","","",""
"","1111","html-keyboard-response","234","307633","0.0-13.0-2.7","HO5i88scua","58fd4bc1e219d00001ee5a55","6617fad957f7c6a12ea16e26","6622c9a4a711531c2c74fc6b","mask grid","p","","","","","Phylogenetic_Distractor_Nonthreat_target","onmask","800","p","7","Phylogenetic","true","experimental"
"","null","html-keyboard-response","235","308337","0.0-13.0-0.8","HO5i88scua","58fd4bc1e219d00001ee5a55","6617fad957f7c6a12ea16e26","6622c9a4a711531c2c74fc6b","fixation cross","null","","","","","","","","","","","",""
"","null","html-keyboard-response","236","309140","0.0-13.0-1.8","HO5i88scua","58fd4bc1e219d00001ee5a55","6617fad957f7c6a12ea16e26","6622c9a4a711531c2c74fc6b","
        <div id=""grid-container"">
        <!-- Grid items will be dynamically added here -->
    </div>    ","null","","","","","","","","","","","",""
"","1125","html-keyboard-response","237","309466","0.0-13.0-2.8","HO5i88scua","58fd4bc1e219d00001ee5a55","6617fad957f7c6a12ea16e26","6622c9a4a711531c2c74fc6b","mask grid"," ","","","","","Phylogenetic_Distractor_notarget","onmask","800"," ","6","Phylogenetic","true","experimental"
"","null","html-keyboard-response","238","310170","0.0-13.0-0.9","HO5i88scua","58fd4bc1e219d00001ee5a55","6617fad957f7c6a12ea16e26","6622c9a4a711531c2c74fc6b","fixation cross","null","","","","","","","","","","","",""
"","null","html-keyboard-response","239","310973","0.0-13.0-1.9","HO5i88scua","58fd4bc1e219d00001ee5a55","6617fad957f7c6a12ea16e26","6622c9a4a711531c2c74fc6b","
        <div id=""grid-container"">
        <!-- Grid items will be dynamically added here -->
    </div>    ","null","","","","","","","","","","","",""
"","1198","html-keyboard-response","240","311372","0.0-13.0-2.9","HO5i88scua","58fd4bc1e219d00001ee5a55","6617fad957f7c6a12ea16e26","6622c9a4a711531c2c74fc6b","mask grid","p","","","","","Phylogenetic_Distractor_Nonthreat_target","onmask","800","p","9","Phylogenetic","true","experimental"
"","null","html-keyboard-response","241","312076","0.0-13.0-0.10","HO5i88scua","58fd4bc1e219d00001ee5a55","6617fad957f7c6a12ea16e26","6622c9a4a711531c2c74fc6b","fixation cross","null","","","","","","","","","","","",""
"","null","html-keyboard-response","242","312879","0.0-13.0-1.10","HO5i88scua","58fd4bc1e219d00001ee5a55","6617fad957f7c6a12ea16e26","6622c9a4a711531c2c74fc6b","
        <div id=""grid-container"">
        <!-- Grid items will be dynamically added here -->
    </div>    ","null","","","","","","","","","","","",""
"","1144","html-keyboard-response","243","313223","0.0-13.0-2.10","HO5i88scua","58fd4bc1e219d00001ee5a55","6617fad957f7c6a12ea16e26","6622c9a4a711531c2c74fc6b","mask grid","q","","","","","Phylogenetic_Distractor_Threat_target","onmask","800","q","4","Phylogenetic","true","experimental"
"","null","html-keyboard-response","244","313926","0.0-13.0-0.11","HO5i88scua","58fd4bc1e219d00001ee5a55","6617fad957f7c6a12ea16e26","6622c9a4a711531c2c74fc6b","fixation cross","null","","","","","","","","","","","",""
"","null","html-keyboard-response","245","314728","0.0-13.0-1.11","HO5i88scua","58fd4bc1e219d00001ee5a55","6617fad957f7c6a12ea16e26","6622c9a4a711531c2c74fc6b","
        <div id=""grid-container"">
        <!-- Grid items will be dynamically added here -->
    </div>    ","null","","","","","","","","","","","",""
"","1225","html-keyboard-response","246","315154","0.0-13.0-2.11","HO5i88scua","58fd4bc1e219d00001ee5a55","6617fad957f7c6a12ea16e26","6622c9a4a711531c2c74fc6b","mask grid"," ","","","","","Phylogenetic_Distractor_Nonthreat_target","onmask","800","p","3","Phylogenetic","false","experimental"
"","null","html-keyboard-response","247","315858","0.0-13.0-0.12","HO5i88scua","58fd4bc1e219d00001ee5a55","6617fad957f7c6a12ea16e26","6622c9a4a711531c2c74fc6b","fixation cross","null","","","","","","","","","","","",""
"","null","html-keyboard-response","248","316661","0.0-13.0-1.12","HO5i88scua","58fd4bc1e219d00001ee5a55","6617fad957f7c6a12ea16e26","6622c9a4a711531c2c74fc6b","
        <div id=""grid-container"">
        <!-- Grid items will be dynamically added here -->
    </div>    ","null","","","","","","","","","","","",""
"","1268","html-keyboard-response","249","317130","0.0-13.0-2.12","HO5i88scua","58fd4bc1e219d00001ee5a55","6617fad957f7c6a12ea16e26","6622c9a4a711531c2c74fc6b","mask grid"," ","","","","","Phylogenetic_Distractor_notarget","onmask","800"," ","8","Phylogenetic","true","experimental"
"","null","html-keyboard-response","250","317834","0.0-13.0-0.13","HO5i88scua","58fd4bc1e219d00001ee5a55","6617fad957f7c6a12ea16e26","6622c9a4a711531c2c74fc6b","fixation cross","null","","","","","","","","","","","",""
"","null","html-keyboard-response","251","318636","0.0-13.0-1.13","HO5i88scua","58fd4bc1e219d00001ee5a55","6617fad957f7c6a12ea16e26","6622c9a4a711531c2c74fc6b","
        <div id=""grid-container"">
        <!-- Grid items will be dynamically added here -->
    </div>    ","null","","","","","","","","","","","",""
"","1243","html-keyboard-response","252","319080","0.0-13.0-2.13","HO5i88scua","58fd4bc1e219d00001ee5a55","6617fad957f7c6a12ea16e26","6622c9a4a711531c2c74fc6b","mask grid","p","","","","","Phylogenetic_Distractor_Nonthreat_target","onmask","800","p","7","Phylogenetic","true","experimental"
"","null","html-keyboard-response","253","319785","0.0-13.0-0.14","HO5i88scua","58fd4bc1e219d00001ee5a55","6617fad957f7c6a12ea16e26","6622c9a4a711531c2c74fc6b","fixation cross","null","","","","","","","","","","","",""
"","null","html-keyboard-response","254","320587","0.0-13.0-1.14","HO5i88scua","58fd4bc1e219d00001ee5a55","6617fad957f7c6a12ea16e26","6622c9a4a711531c2c74fc6b","
        <div id=""grid-container"">
        <!-- Grid items will be dynamically added here -->
    </div>    ","null","","","","","","","","","","","",""
"","1161","html-keyboard-response","255","320949","0.0-13.0-2.14","HO5i88scua","58fd4bc1e219d00001ee5a55","6617fad957f7c6a12ea16e26","6622c9a4a711531c2c74fc6b","mask grid","q","","","","","Phylogenetic_Distractor_Threat_target","onmask","800","q","4","Phylogenetic","true","experimental"
"","null","html-keyboard-response","256","321653","0.0-13.0-0.15","HO5i88scua","58fd4bc1e219d00001ee5a55","6617fad957f7c6a12ea16e26","6622c9a4a711531c2c74fc6b","fixation cross","null","","","","","","","","","","","",""
"","null","html-keyboard-response","257","322456","0.0-13.0-1.15","HO5i88scua","58fd4bc1e219d00001ee5a55","6617fad957f7c6a12ea16e26","6622c9a4a711531c2c74fc6b","
        <div id=""grid-container"">
        <!-- Grid items will be dynamically added here -->
    </div>    ","null","","","","","","","","","","","",""
"","1125","html-keyboard-response","258","322797","0.0-13.0-2.15","HO5i88scua","58fd4bc1e219d00001ee5a55","6617fad957f7c6a12ea16e26","6622c9a4a711531c2c74fc6b","mask grid"," ","","","","","Phylogenetic_Distractor_Threat_target","onmask","800","q","9","Phylogenetic","false","experimental"
"","null","html-keyboard-response","259","323503","0.0-13.0-0.16","HO5i88scua","58fd4bc1e219d00001ee5a55","6617fad957f7c6a12ea16e26","6622c9a4a711531c2c74fc6b","fixation cross","null","","","","","","","","","","","",""
"","null","html-keyboard-response","260","324306","0.0-13.0-1.16","HO5i88scua","58fd4bc1e219d00001ee5a55","6617fad957f7c6a12ea16e26","6622c9a4a711531c2c74fc6b","
        <div id=""grid-container"">
        <!-- Grid items will be dynamically added here -->
    </div>    ","null","","","","","","","","","","","",""
"","1216","html-keyboard-response","261","324722","0.0-13.0-2.16","HO5i88scua","58fd4bc1e219d00001ee5a55","6617fad957f7c6a12ea16e26","6622c9a4a711531c2c74fc6b","mask grid"," ","","","","","Phylogenetic_Distractor_Threat_target","onmask","800","q","3","Phylogenetic","false","experimental"
"","null","html-keyboard-response","262","325426","0.0-13.0-0.17","HO5i88scua","58fd4bc1e219d00001ee5a55","6617fad957f7c6a12ea16e26","6622c9a4a711531c2c74fc6b","fixation cross","null","","","","","","","","","","","",""
"","null","html-keyboard-response","263","326228","0.0-13.0-1.17","HO5i88scua","58fd4bc1e219d00001ee5a55","6617fad957f7c6a12ea16e26","6622c9a4a711531c2c74fc6b","
        <div id=""grid-container"">
        <!-- Grid items will be dynamically added here -->
    </div>    ","null","","","","","","","","","","","",""
"","1056","html-keyboard-response","264","326485","0.0-13.0-2.17","HO5i88scua","58fd4bc1e219d00001ee5a55","6617fad957f7c6a12ea16e26","6622c9a4a711531c2c74fc6b","mask grid","p","","","","","Phylogenetic_Distractor_Nonthreat_target","onmask","800","p","8","Phylogenetic","true","experimental"
"","null","html-keyboard-response","265","327189","0.0-13.0-0.18","HO5i88scua","58fd4bc1e219d00001ee5a55","6617fad957f7c6a12ea16e26","6622c9a4a711531c2c74fc6b","fixation cross","null","","","","","","","","","","","",""
"","null","html-keyboard-response","266","327991","0.0-13.0-1.18","HO5i88scua","58fd4bc1e219d00001ee5a55","6617fad957f7c6a12ea16e26","6622c9a4a711531c2c74fc6b","
        <div id=""grid-container"">
        <!-- Grid items will be dynamically added here -->
    </div>    ","null","","","","","","","","","","","",""
"","1015","html-keyboard-response","267","328206","0.0-13.0-2.18","HO5i88scua","58fd4bc1e219d00001ee5a55","6617fad957f7c6a12ea16e26","6622c9a4a711531c2c74fc6b","mask grid","q","","","","","Phylogenetic_Distractor_Threat_target","onmask","800","q","9","Phylogenetic","true","experimental"
"","null","html-keyboard-response","268","328910","0.0-13.0-0.19","HO5i88scua","58fd4bc1e219d00001ee5a55","6617fad957f7c6a12ea16e26","6622c9a4a711531c2c74fc6b","fixation cross","null","","","","","","","","","","","",""
"","null","html-keyboard-response","269","329713","0.0-13.0-1.19","HO5i88scua","58fd4bc1e219d00001ee5a55","6617fad957f7c6a12ea16e26","6622c9a4a711531c2c74fc6b","
        <div id=""grid-container"">
        <!-- Grid items will be dynamically added here -->
    </div>    ","null","","","","","","","","","","","",""
"","1362","html-keyboard-response","270","330275","0.0-13.0-2.19","HO5i88scua","58fd4bc1e219d00001ee5a55","6617fad957f7c6a12ea16e26","6622c9a4a711531c2c74fc6b","mask grid","p","","","","","Phylogenetic_Distractor_Nonthreat_target","onmask","800","p","8","Phylogenetic","true","experimental"
"","null","html-keyboard-response","271","330979","0.0-13.0-0.20","HO5i88scua","58fd4bc1e219d00001ee5a55","6617fad957f7c6a12ea16e26","6622c9a4a711531c2c74fc6b","fixation cross","null","","","","","","","","","","","",""
"","null","html-keyboard-response","272","331782","0.0-13.0-1.20","HO5i88scua","58fd4bc1e219d00001ee5a55","6617fad957f7c6a12ea16e26","6622c9a4a711531c2c74fc6b","
        <div id=""grid-container"">
        <!-- Grid items will be dynamically added here -->
    </div>    ","null","","","","","","","","","","","",""
"","1098","html-keyboard-response","273","332081","0.0-13.0-2.20","HO5i88scua","58fd4bc1e219d00001ee5a55","6617fad957f7c6a12ea16e26","6622c9a4a711531c2c74fc6b","mask grid","p","","","","","Phylogenetic_Distractor_Nonthreat_target","onmask","800","p","3","Phylogenetic","true","experimental"
"","null","html-keyboard-response","274","332785","0.0-13.0-0.21","HO5i88scua","58fd4bc1e219d00001ee5a55","6617fad957f7c6a12ea16e26","6622c9a4a711531c2c74fc6b","fixation cross","null","","","","","","","","","","","",""
"","null","html-keyboard-response","275","333588","0.0-13.0-1.21","HO5i88scua","58fd4bc1e219d00001ee5a55","6617fad957f7c6a12ea16e26","6622c9a4a711531c2c74fc6b","
        <div id=""grid-container"">
        <!-- Grid items will be dynamically added here -->
    </div>    ","null","","","","","","","","","","","",""
"","1081","html-keyboard-response","276","333869","0.0-13.0-2.21","HO5i88scua","58fd4bc1e219d00001ee5a55","6617fad957f7c6a12ea16e26","6622c9a4a711531c2c74fc6b","mask grid","p","","","","","Phylogenetic_Distractor_Nonthreat_target","onmask","800","p","7","Phylogenetic","true","experimental"
"","null","html-keyboard-response","277","334574","0.0-13.0-0.22","HO5i88scua","58fd4bc1e219d00001ee5a55","6617fad957f7c6a12ea16e26","6622c9a4a711531c2c74fc6b","fixation cross","null","","","","","","","","","","","",""
"","null","html-keyboard-response","278","335377","0.0-13.0-1.22","HO5i88scua","58fd4bc1e219d00001ee5a55","6617fad957f7c6a12ea16e26","6622c9a4a711531c2c74fc6b","
        <div id=""grid-container"">
        <!-- Grid items will be dynamically added here -->
    </div>    ","null","","","","","","","","","","","",""
"","1027","html-keyboard-response","279","335605","0.0-13.0-2.22","HO5i88scua","58fd4bc1e219d00001ee5a55","6617fad957f7c6a12ea16e26","6622c9a4a711531c2c74fc6b","mask grid","p","","","","","Phylogenetic_Distractor_Nonthreat_target","onmask","800","p","3","Phylogenetic","true","experimental"
"","null","html-keyboard-response","280","336310","0.0-13.0-0.23","HO5i88scua","58fd4bc1e219d00001ee5a55","6617fad957f7c6a12ea16e26","6622c9a4a711531c2c74fc6b","fixation cross","null","","","","","","","","","","","",""
"","null","html-keyboard-response","281","337113","0.0-13.0-1.23","HO5i88scua","58fd4bc1e219d00001ee5a55","6617fad957f7c6a12ea16e26","6622c9a4a711531c2c74fc6b","
        <div id=""grid-container"">
        <!-- Grid items will be dynamically added here -->
    </div>    ","null","","","","","","","","","","","",""
"","1162","html-keyboard-response","282","337476","0.0-13.0-2.23","HO5i88scua","58fd4bc1e219d00001ee5a55","6617fad957f7c6a12ea16e26","6622c9a4a711531c2c74fc6b","mask grid","p","","","","","Phylogenetic_Distractor_Nonthreat_target","onmask","800","p","7","Phylogenetic","true","experimental"
"","null","html-keyboard-response","283","338181","0.0-13.0-0.24","HO5i88scua","58fd4bc1e219d00001ee5a55","6617fad957f7c6a12ea16e26","6622c9a4a711531c2c74fc6b","fixation cross","null","","","","","","","","","","","",""
"","null","html-keyboard-response","284","338983","0.0-13.0-1.24","HO5i88scua","58fd4bc1e219d00001ee5a55","6617fad957f7c6a12ea16e26","6622c9a4a711531c2c74fc6b","
        <div id=""grid-container"">
        <!-- Grid items will be dynamically added here -->
    </div>    ","null","","","","","","","","","","","",""
"","1035","html-keyboard-response","285","339219","0.0-13.0-2.24","HO5i88scua","58fd4bc1e219d00001ee5a55","6617fad957f7c6a12ea16e26","6622c9a4a711531c2c74fc6b","mask grid","p","","","","","Phylogenetic_Distractor_Nonthreat_target","onmask","800","p","9","Phylogenetic","true","experimental"
"","null","html-keyboard-response","286","339923","0.0-13.0-0.25","HO5i88scua","58fd4bc1e219d00001ee5a55","6617fad957f7c6a12ea16e26","6622c9a4a711531c2c74fc6b","fixation cross","null","","","","","","","","","","","",""
"","null","html-keyboard-response","287","340726","0.0-13.0-1.25","HO5i88scua","58fd4bc1e219d00001ee5a55","6617fad957f7c6a12ea16e26","6622c9a4a711531c2c74fc6b","
        <div id=""grid-container"">
        <!-- Grid items will be dynamically added here -->
    </div>    ","null","","","","","","","","","","","",""
"","1031","html-keyboard-response","288","340958","0.0-13.0-2.25","HO5i88scua","58fd4bc1e219d00001ee5a55","6617fad957f7c6a12ea16e26","6622c9a4a711531c2c74fc6b","mask grid","q","","","","","Phylogenetic_Distractor_Threat_target","onmask","800","q","5","Phylogenetic","true","experimental"
"","null","html-keyboard-response","289","341663","0.0-13.0-0.26","HO5i88scua","58fd4bc1e219d00001ee5a55","6617fad957f7c6a12ea16e26","6622c9a4a711531c2c74fc6b","fixation cross","null","","","","","","","","","","","",""
"","null","html-keyboard-response","290","342465","0.0-13.0-1.26","HO5i88scua","58fd4bc1e219d00001ee5a55","6617fad957f7c6a12ea16e26","6622c9a4a711531c2c74fc6b","
        <div id=""grid-container"">
        <!-- Grid items will be dynamically added here -->
    </div>    ","null","","","","","","","","","","","",""
"","1130","html-keyboard-response","291","342796","0.0-13.0-2.26","HO5i88scua","58fd4bc1e219d00001ee5a55","6617fad957f7c6a12ea16e26","6622c9a4a711531c2c74fc6b","mask grid","q","","","","","Phylogenetic_Distractor_Threat_target","onmask","800","q","6","Phylogenetic","true","experimental"
"","null","html-keyboard-response","292","343500","0.0-13.0-0.27","HO5i88scua","58fd4bc1e219d00001ee5a55","6617fad957f7c6a12ea16e26","6622c9a4a711531c2c74fc6b","fixation cross","null","","","","","","","","","","","",""
"","null","html-keyboard-response","293","344303","0.0-13.0-1.27","HO5i88scua","58fd4bc1e219d00001ee5a55","6617fad957f7c6a12ea16e26","6622c9a4a711531c2c74fc6b","
        <div id=""grid-container"">
        <!-- Grid items will be dynamically added here -->
    </div>    ","null","","","","","","","","","","","",""
"","1239","html-keyboard-response","294","344742","0.0-13.0-2.27","HO5i88scua","58fd4bc1e219d00001ee5a55","6617fad957f7c6a12ea16e26","6622c9a4a711531c2c74fc6b","mask grid"," ","","","","","Phylogenetic_Distractor_Nonthreat_target","onmask","800","p","3","Phylogenetic","false","experimental"
"","null","html-keyboard-response","295","345447","0.0-13.0-0.28","HO5i88scua","58fd4bc1e219d00001ee5a55","6617fad957f7c6a12ea16e26","6622c9a4a711531c2c74fc6b","fixation cross","null","","","","","","","","","","","",""
"","null","html-keyboard-response","296","346249","0.0-13.0-1.28","HO5i88scua","58fd4bc1e219d00001ee5a55","6617fad957f7c6a12ea16e26","6622c9a4a711531c2c74fc6b","
        <div id=""grid-container"">
        <!-- Grid items will be dynamically added here -->
    </div>    ","null","","","","","","","","","","","",""
"","1220","html-keyboard-response","297","346669","0.0-13.0-2.28","HO5i88scua","58fd4bc1e219d00001ee5a55","6617fad957f7c6a12ea16e26","6622c9a4a711531c2c74fc6b","mask grid","p","","","","","Phylogenetic_Distractor_Nonthreat_target","onmask","800","p","7","Phylogenetic","true","experimental"
"","null","html-keyboard-response","298","347373","0.0-13.0-0.29","HO5i88scua","58fd4bc1e219d00001ee5a55","6617fad957f7c6a12ea16e26","6622c9a4a711531c2c74fc6b","fixation cross","null","","","","","","","","","","","",""
"","null","html-keyboard-response","299","348176","0.0-13.0-1.29","HO5i88scua","58fd4bc1e219d00001ee5a55","6617fad957f7c6a12ea16e26","6622c9a4a711531c2c74fc6b","
        <div id=""grid-container"">
        <!-- Grid items will be dynamically added here -->
    </div>    ","null","","","","","","","","","","","",""
"","1051","html-keyboard-response","300","348427","0.0-13.0-2.29","HO5i88scua","58fd4bc1e219d00001ee5a55","6617fad957f7c6a12ea16e26","6622c9a4a711531c2c74fc6b","mask grid","q","","","","","Phylogenetic_Distractor_Threat_target","onmask","800","q","7","Phylogenetic","true","experimental"
"","null","html-keyboard-response","301","349132","0.0-13.0-0.30","HO5i88scua","58fd4bc1e219d00001ee5a55","6617fad957f7c6a12ea16e26","6622c9a4a711531c2c74fc6b","fixation cross","null","","","","","","","","","","","",""
"","null","html-keyboard-response","302","349935","0.0-13.0-1.30","HO5i88scua","58fd4bc1e219d00001ee5a55","6617fad957f7c6a12ea16e26","6622c9a4a711531c2c74fc6b","
        <div id=""grid-container"">
        <!-- Grid items will be dynamically added here -->
    </div>    ","null","","","","","","","","","","","",""
"","1583","html-keyboard-response","303","350719","0.0-13.0-2.30","HO5i88scua","58fd4bc1e219d00001ee5a55","6617fad957f7c6a12ea16e26","6622c9a4a711531c2c74fc6b","mask grid","p","","","","","Phylogenetic_Distractor_Threat_target","onmask","800","q","2","Phylogenetic","false","experimental"
"","null","html-keyboard-response","304","351423","0.0-13.0-0.31","HO5i88scua","58fd4bc1e219d00001ee5a55","6617fad957f7c6a12ea16e26","6622c9a4a711531c2c74fc6b","fixation cross","null","","","","","","","","","","","",""
"","null","html-keyboard-response","305","352226","0.0-13.0-1.31","HO5i88scua","58fd4bc1e219d00001ee5a55","6617fad957f7c6a12ea16e26","6622c9a4a711531c2c74fc6b","
        <div id=""grid-container"">
        <!-- Grid items will be dynamically added here -->
    </div>    ","null","","","","","","","","","","","",""
"","1265","html-keyboard-response","306","352692","0.0-13.0-2.31","HO5i88scua","58fd4bc1e219d00001ee5a55","6617fad957f7c6a12ea16e26","6622c9a4a711531c2c74fc6b","mask grid","p","","","","","Phylogenetic_Distractor_Nonthreat_target","onmask","800","p","5","Phylogenetic","true","experimental"
"","null","html-keyboard-response","307","353397","0.0-13.0-0.32","HO5i88scua","58fd4bc1e219d00001ee5a55","6617fad957f7c6a12ea16e26","6622c9a4a711531c2c74fc6b","fixation cross","null","","","","","","","","","","","",""
"","null","html-keyboard-response","308","354200","0.0-13.0-1.32","HO5i88scua","58fd4bc1e219d00001ee5a55","6617fad957f7c6a12ea16e26","6622c9a4a711531c2c74fc6b","
        <div id=""grid-container"">
        <!-- Grid items will be dynamically added here -->
    </div>    ","null","","","","","","","","","","","",""
"","2011","html-keyboard-response","309","355411","0.0-13.0-2.32","HO5i88scua","58fd4bc1e219d00001ee5a55","6617fad957f7c6a12ea16e26","6622c9a4a711531c2c74fc6b","mask grid","q","","","","","Phylogenetic_Distractor_Nonthreat_target","onmask","800","p","1","Phylogenetic","false","experimental"
"","null","html-keyboard-response","310","356115","0.0-13.0-0.33","HO5i88scua","58fd4bc1e219d00001ee5a55","6617fad957f7c6a12ea16e26","6622c9a4a711531c2c74fc6b","fixation cross","null","","","","","","","","","","","",""
"","null","html-keyboard-response","311","356918","0.0-13.0-1.33","HO5i88scua","58fd4bc1e219d00001ee5a55","6617fad957f7c6a12ea16e26","6622c9a4a711531c2c74fc6b","
        <div id=""grid-container"">
        <!-- Grid items will be dynamically added here -->
    </div>    ","null","","","","","","","","","","","",""
"","1666","html-keyboard-response","312","357785","0.0-13.0-2.33","HO5i88scua","58fd4bc1e219d00001ee5a55","6617fad957f7c6a12ea16e26","6622c9a4a711531c2c74fc6b","mask grid","q","","","","","Phylogenetic_Distractor_Threat_target","onmask","800","q","7","Phylogenetic","true","experimental"
"","null","html-keyboard-response","313","358489","0.0-13.0-0.34","HO5i88scua","58fd4bc1e219d00001ee5a55","6617fad957f7c6a12ea16e26","6622c9a4a711531c2c74fc6b","fixation cross","null","","","","","","","","","","","",""
"","null","html-keyboard-response","314","359291","0.0-13.0-1.34","HO5i88scua","58fd4bc1e219d00001ee5a55","6617fad957f7c6a12ea16e26","6622c9a4a711531c2c74fc6b","
        <div id=""grid-container"">
        <!-- Grid items will be dynamically added here -->
    </div>    ","null","","","","","","","","","","","",""
"","1917","html-keyboard-response","315","360409","0.0-13.0-2.34","HO5i88scua","58fd4bc1e219d00001ee5a55","6617fad957f7c6a12ea16e26","6622c9a4a711531c2c74fc6b","mask grid","p","","","","","Phylogenetic_Distractor_notarget","onmask","800"," ","6","Phylogenetic","false","experimental"
"","null","html-keyboard-response","316","361113","0.0-13.0-0.35","HO5i88scua","58fd4bc1e219d00001ee5a55","6617fad957f7c6a12ea16e26","6622c9a4a711531c2c74fc6b","fixation cross","null","","","","","","","","","","","",""
"","null","html-keyboard-response","317","361915","0.0-13.0-1.35","HO5i88scua","58fd4bc1e219d00001ee5a55","6617fad957f7c6a12ea16e26","6622c9a4a711531c2c74fc6b","
        <div id=""grid-container"">
        <!-- Grid items will be dynamically added here -->
    </div>    ","null","","","","","","","","","","","",""
"","1530","html-keyboard-response","318","362647","0.0-13.0-2.35","HO5i88scua","58fd4bc1e219d00001ee5a55","6617fad957f7c6a12ea16e26","6622c9a4a711531c2c74fc6b","mask grid","q","","","","","Phylogenetic_Distractor_Threat_target","onmask","800","q","2","Phylogenetic","true","experimental"
"","null","html-keyboard-response","319","363353","0.0-13.0-0.36","HO5i88scua","58fd4bc1e219d00001ee5a55","6617fad957f7c6a12ea16e26","6622c9a4a711531c2c74fc6b","fixation cross","null","","","","","","","","","","","",""
"","null","html-keyboard-response","320","364156","0.0-13.0-1.36","HO5i88scua","58fd4bc1e219d00001ee5a55","6617fad957f7c6a12ea16e26","6622c9a4a711531c2c74fc6b","
        <div id=""grid-container"">
        <!-- Grid items will be dynamically added here -->
    </div>    ","null","","","","","","","","","","","",""
"","1450","html-keyboard-response","321","364806","0.0-13.0-2.36","HO5i88scua","58fd4bc1e219d00001ee5a55","6617fad957f7c6a12ea16e26","6622c9a4a711531c2c74fc6b","mask grid","q","","","","","Phylogenetic_Distractor_Threat_target","onmask","800","q","5","Phylogenetic","true","experimental"
"","null","html-keyboard-response","322","365511","0.0-13.0-0.37","HO5i88scua","58fd4bc1e219d00001ee5a55","6617fad957f7c6a12ea16e26","6622c9a4a711531c2c74fc6b","fixation cross","null","","","","","","","","","","","",""
"","null","html-keyboard-response","323","366315","0.0-13.0-1.37","HO5i88scua","58fd4bc1e219d00001ee5a55","6617fad957f7c6a12ea16e26","6622c9a4a711531c2c74fc6b","
        <div id=""grid-container"">
        <!-- Grid items will be dynamically added here -->
    </div>    ","null","","","","","","","","","","","",""
"","1395","html-keyboard-response","324","366911","0.0-13.0-2.37","HO5i88scua","58fd4bc1e219d00001ee5a55","6617fad957f7c6a12ea16e26","6622c9a4a711531c2c74fc6b","mask grid","q","","","","","Phylogenetic_Distractor_Threat_target","onmask","800","q","9","Phylogenetic","true","experimental"
"","null","html-keyboard-response","325","367616","0.0-13.0-0.38","HO5i88scua","58fd4bc1e219d00001ee5a55","6617fad957f7c6a12ea16e26","6622c9a4a711531c2c74fc6b","fixation cross","null","","","","","","","","","","","",""
"","null","html-keyboard-response","326","368418","0.0-13.0-1.38","HO5i88scua","58fd4bc1e219d00001ee5a55","6617fad957f7c6a12ea16e26","6622c9a4a711531c2c74fc6b","
        <div id=""grid-container"">
        <!-- Grid items will be dynamically added here -->
    </div>    ","null","","","","","","","","","","","",""
"","1347","html-keyboard-response","327","368966","0.0-13.0-2.38","HO5i88scua","58fd4bc1e219d00001ee5a55","6617fad957f7c6a12ea16e26","6622c9a4a711531c2c74fc6b","mask grid","q","","","","","Phylogenetic_Distractor_Threat_target","onmask","800","q","4","Phylogenetic","true","experimental"
"","null","html-keyboard-response","328","369671","0.0-13.0-0.39","HO5i88scua","58fd4bc1e219d00001ee5a55","6617fad957f7c6a12ea16e26","6622c9a4a711531c2c74fc6b","fixation cross","null","","","","","","","","","","","",""
"","null","html-keyboard-response","329","370473","0.0-13.0-1.39","HO5i88scua","58fd4bc1e219d00001ee5a55","6617fad957f7c6a12ea16e26","6622c9a4a711531c2c74fc6b","
        <div id=""grid-container"">
        <!-- Grid items will be dynamically added here -->
    </div>    ","null","","","","","","","","","","","",""
"","1576","html-keyboard-response","330","371251","0.0-13.0-2.39","HO5i88scua","58fd4bc1e219d00001ee5a55","6617fad957f7c6a12ea16e26","6622c9a4a711531c2c74fc6b","mask grid","q","","","","","Phylogenetic_Distractor_Threat_target","onmask","800","q","5","Phylogenetic","true","experimental"
"","2700","html-keyboard-response","331","374154","0.0-14.0","HO5i88scua","58fd4bc1e219d00001ee5a55","6617fad957f7c6a12ea16e26","6622c9a4a711531c2c74fc6b","break screen"," ","","","","","","","","","","","",""
"","null","html-keyboard-response","332","376659","0.0-15.0-0.0","HO5i88scua","58fd4bc1e219d00001ee5a55","6617fad957f7c6a12ea16e26","6622c9a4a711531c2c74fc6b","fixation cross","null","","","","","","","","","","","",""
"","null","html-keyboard-response","333","377462","0.0-15.0-1.0","HO5i88scua","58fd4bc1e219d00001ee5a55","6617fad957f7c6a12ea16e26","6622c9a4a711531c2c74fc6b","
        <div id=""grid-container"">
        <!-- Grid items will be dynamically added here -->
    </div>    ","null","","","","","","","","","","","",""
"","1514","html-keyboard-response","334","378176","0.0-15.0-2.0","HO5i88scua","58fd4bc1e219d00001ee5a55","6617fad957f7c6a12ea16e26","6622c9a4a711531c2c74fc6b","mask grid","p","","","","","Phylogenetic_Distractor_Nonthreat_target","onmask","800","p","4","Phylogenetic","true","experimental"
"","null","html-keyboard-response","335","378881","0.0-15.0-0.1","HO5i88scua","58fd4bc1e219d00001ee5a55","6617fad957f7c6a12ea16e26","6622c9a4a711531c2c74fc6b","fixation cross","null","","","","","","","","","","","",""
"","null","html-keyboard-response","336","379684","0.0-15.0-1.1","HO5i88scua","58fd4bc1e219d00001ee5a55","6617fad957f7c6a12ea16e26","6622c9a4a711531c2c74fc6b","
        <div id=""grid-container"">
        <!-- Grid items will be dynamically added here -->
    </div>    ","null","","","","","","","","","","","",""
"","1559","html-keyboard-response","337","380444","0.0-15.0-2.1","HO5i88scua","58fd4bc1e219d00001ee5a55","6617fad957f7c6a12ea16e26","6622c9a4a711531c2c74fc6b","mask grid","p","","","","","Phylogenetic_Distractor_Nonthreat_target","onmask","800","p","1","Phylogenetic","true","experimental"
"","null","html-keyboard-response","338","381149","0.0-15.0-0.2","HO5i88scua","58fd4bc1e219d00001ee5a55","6617fad957f7c6a12ea16e26","6622c9a4a711531c2c74fc6b","fixation cross","null","","","","","","","","","","","",""
"","null","html-keyboard-response","339","381952","0.0-15.0-1.2","HO5i88scua","58fd4bc1e219d00001ee5a55","6617fad957f7c6a12ea16e26","6622c9a4a711531c2c74fc6b","
        <div id=""grid-container"">
        <!-- Grid items will be dynamically added here -->
    </div>    ","null","","","","","","","","","","","",""
"","1264","html-keyboard-response","340","382416","0.0-15.0-2.2","HO5i88scua","58fd4bc1e219d00001ee5a55","6617fad957f7c6a12ea16e26","6622c9a4a711531c2c74fc6b","mask grid","p","","","","","Phylogenetic_Distractor_Nonthreat_target","onmask","800","p","2","Phylogenetic","true","experimental"
"","null","html-keyboard-response","341","383120","0.0-15.0-0.3","HO5i88scua","58fd4bc1e219d00001ee5a55","6617fad957f7c6a12ea16e26","6622c9a4a711531c2c74fc6b","fixation cross","null","","","","","","","","","","","",""
"","null","html-keyboard-response","342","383923","0.0-15.0-1.3","HO5i88scua","58fd4bc1e219d00001ee5a55","6617fad957f7c6a12ea16e26","6622c9a4a711531c2c74fc6b","
        <div id=""grid-container"">
        <!-- Grid items will be dynamically added here -->
    </div>    ","null","","","","","","","","","","","",""
"","1136","html-keyboard-response","343","384260","0.0-15.0-2.3","HO5i88scua","58fd4bc1e219d00001ee5a55","6617fad957f7c6a12ea16e26","6622c9a4a711531c2c74fc6b","mask grid","q","","","","","Phylogenetic_Distractor_Threat_target","onmask","800","q","6","Phylogenetic","true","experimental"
"","null","html-keyboard-response","344","384965","0.0-15.0-0.4","HO5i88scua","58fd4bc1e219d00001ee5a55","6617fad957f7c6a12ea16e26","6622c9a4a711531c2c74fc6b","fixation cross","null","","","","","","","","","","","",""
"","null","html-keyboard-response","345","385767","0.0-15.0-1.4","HO5i88scua","58fd4bc1e219d00001ee5a55","6617fad957f7c6a12ea16e26","6622c9a4a711531c2c74fc6b","
        <div id=""grid-container"">
        <!-- Grid items will be dynamically added here -->
    </div>    ","null","","","","","","","","","","","",""
"","1094","html-keyboard-response","346","386062","0.0-15.0-2.4","HO5i88scua","58fd4bc1e219d00001ee5a55","6617fad957f7c6a12ea16e26","6622c9a4a711531c2c74fc6b","mask grid","p","","","","","Phylogenetic_Distractor_Nonthreat_target","onmask","800","p","7","Phylogenetic","true","experimental"
"","null","html-keyboard-response","347","386767","0.0-15.0-0.5","HO5i88scua","58fd4bc1e219d00001ee5a55","6617fad957f7c6a12ea16e26","6622c9a4a711531c2c74fc6b","fixation cross","null","","","","","","","","","","","",""
"","null","html-keyboard-response","348","387569","0.0-15.0-1.5","HO5i88scua","58fd4bc1e219d00001ee5a55","6617fad957f7c6a12ea16e26","6622c9a4a711531c2c74fc6b","
        <div id=""grid-container"">
        <!-- Grid items will be dynamically added here -->
    </div>    ","null","","","","","","","","","","","",""
"","1471","html-keyboard-response","349","388241","0.0-15.0-2.5","HO5i88scua","58fd4bc1e219d00001ee5a55","6617fad957f7c6a12ea16e26","6622c9a4a711531c2c74fc6b","mask grid"," ","","","","","Phylogenetic_Distractor_Nonthreat_target","onmask","800","p","9","Phylogenetic","false","experimental"
"","null","html-keyboard-response","350","388946","0.0-15.0-0.6","HO5i88scua","58fd4bc1e219d00001ee5a55","6617fad957f7c6a12ea16e26","6622c9a4a711531c2c74fc6b","fixation cross","null","","","","","","","","","","","",""
"","null","html-keyboard-response","351","389748","0.0-15.0-1.6","HO5i88scua","58fd4bc1e219d00001ee5a55","6617fad957f7c6a12ea16e26","6622c9a4a711531c2c74fc6b","
        <div id=""grid-container"">
        <!-- Grid items will be dynamically added here -->
    </div>    ","null","","","","","","","","","","","",""
"","1086","html-keyboard-response","352","390034","0.0-15.0-2.6","HO5i88scua","58fd4bc1e219d00001ee5a55","6617fad957f7c6a12ea16e26","6622c9a4a711531c2c74fc6b","mask grid","q","","","","","Phylogenetic_Distractor_Threat_target","onmask","800","q","7","Phylogenetic","true","experimental"
"","null","html-keyboard-response","353","390738","0.0-15.0-0.7","HO5i88scua","58fd4bc1e219d00001ee5a55","6617fad957f7c6a12ea16e26","6622c9a4a711531c2c74fc6b","fixation cross","null","","","","","","","","","","","",""
"","null","html-keyboard-response","354","391540","0.0-15.0-1.7","HO5i88scua","58fd4bc1e219d00001ee5a55","6617fad957f7c6a12ea16e26","6622c9a4a711531c2c74fc6b","
        <div id=""grid-container"">
        <!-- Grid items will be dynamically added here -->
    </div>    ","null","","","","","","","","","","","",""
"","1641","html-keyboard-response","355","392382","0.0-15.0-2.7","HO5i88scua","58fd4bc1e219d00001ee5a55","6617fad957f7c6a12ea16e26","6622c9a4a711531c2c74fc6b","mask grid","q","","","","","Phylogenetic_Distractor_Nonthreat_target","onmask","800","p","4","Phylogenetic","false","experimental"
"","null","html-keyboard-response","356","393085","0.0-15.0-0.8","HO5i88scua","58fd4bc1e219d00001ee5a55","6617fad957f7c6a12ea16e26","6622c9a4a711531c2c74fc6b","fixation cross","null","","","","","","","","","","","",""
"","null","html-keyboard-response","357","393888","0.0-15.0-1.8","HO5i88scua","58fd4bc1e219d00001ee5a55","6617fad957f7c6a12ea16e26","6622c9a4a711531c2c74fc6b","
        <div id=""grid-container"">
        <!-- Grid items will be dynamically added here -->
    </div>    ","null","","","","","","","","","","","",""
"","1554","html-keyboard-response","358","394642","0.0-15.0-2.8","HO5i88scua","58fd4bc1e219d00001ee5a55","6617fad957f7c6a12ea16e26","6622c9a4a711531c2c74fc6b","mask grid","q","","","","","Phylogenetic_Distractor_Threat_target","onmask","800","q","9","Phylogenetic","true","experimental"
"","null","html-keyboard-response","359","395347","0.0-15.0-0.9","HO5i88scua","58fd4bc1e219d00001ee5a55","6617fad957f7c6a12ea16e26","6622c9a4a711531c2c74fc6b","fixation cross","null","","","","","","","","","","","",""
"","null","html-keyboard-response","360","396149","0.0-15.0-1.9","HO5i88scua","58fd4bc1e219d00001ee5a55","6617fad957f7c6a12ea16e26","6622c9a4a711531c2c74fc6b","
        <div id=""grid-container"">
        <!-- Grid items will be dynamically added here -->
    </div>    ","null","","","","","","","","","","","",""
"","1343","html-keyboard-response","361","396692","0.0-15.0-2.9","HO5i88scua","58fd4bc1e219d00001ee5a55","6617fad957f7c6a12ea16e26","6622c9a4a711531c2c74fc6b","mask grid","p","","","","","Phylogenetic_Distractor_Nonthreat_target","onmask","800","p","6","Phylogenetic","true","experimental"
"","null","html-keyboard-response","362","397397","0.0-15.0-0.10","HO5i88scua","58fd4bc1e219d00001ee5a55","6617fad957f7c6a12ea16e26","6622c9a4a711531c2c74fc6b","fixation cross","null","","","","","","","","","","","",""
"","null","html-keyboard-response","363","398200","0.0-15.0-1.10","HO5i88scua","58fd4bc1e219d00001ee5a55","6617fad957f7c6a12ea16e26","6622c9a4a711531c2c74fc6b","
        <div id=""grid-container"">
        <!-- Grid items will be dynamically added here -->
    </div>    ","null","","","","","","","","","","","",""
"","1547","html-keyboard-response","364","398947","0.0-15.0-2.10","HO5i88scua","58fd4bc1e219d00001ee5a55","6617fad957f7c6a12ea16e26","6622c9a4a711531c2c74fc6b","mask grid"," ","","","","","Phylogenetic_Distractor_notarget","onmask","800"," ","1","Phylogenetic","true","experimental"
"","null","html-keyboard-response","365","399652","0.0-15.0-0.11","HO5i88scua","58fd4bc1e219d00001ee5a55","6617fad957f7c6a12ea16e26","6622c9a4a711531c2c74fc6b","fixation cross","null","","","","","","","","","","","",""
"","null","html-keyboard-response","366","400454","0.0-15.0-1.11","HO5i88scua","58fd4bc1e219d00001ee5a55","6617fad957f7c6a12ea16e26","6622c9a4a711531c2c74fc6b","
        <div id=""grid-container"">
        <!-- Grid items will be dynamically added here -->
    </div>    ","null","","","","","","","","","","","",""
"","1254","html-keyboard-response","367","400909","0.0-15.0-2.11","HO5i88scua","58fd4bc1e219d00001ee5a55","6617fad957f7c6a12ea16e26","6622c9a4a711531c2c74fc6b","mask grid"," ","","","","","Phylogenetic_Distractor_notarget","onmask","800"," ","1","Phylogenetic","true","experimental"
"","null","html-keyboard-response","368","401614","0.0-15.0-0.12","HO5i88scua","58fd4bc1e219d00001ee5a55","6617fad957f7c6a12ea16e26","6622c9a4a711531c2c74fc6b","fixation cross","null","","","","","","","","","","","",""
"","null","html-keyboard-response","369","402416","0.0-15.0-1.12","HO5i88scua","58fd4bc1e219d00001ee5a55","6617fad957f7c6a12ea16e26","6622c9a4a711531c2c74fc6b","
        <div id=""grid-container"">
