"success","rt","trial_type","trial_index","time_elapsed","internal_node_id","unique_identifier","subject_id","study_id","session_id","stimulus","response","timeout","failed_images","failed_audio","failed_video","task","respondedwhen","time_manipulation","correctresponse","targetimagelocation","blocktype","correct","roundtype"
"true","2058","fullscreen","0","3061","0.0-0.0","mlJvFaZ9w4","65cb9e5b65630107b7fbb44b","6617fad957f7c6a12ea16e26","6622ccc3febdbed9ad279717","","","","","","","","","","","","","",""
"","11927","html-keyboard-response","1","14990","0.0-1.0","mlJvFaZ9w4","65cb9e5b65630107b7fbb44b","6617fad957f7c6a12ea16e26","6622ccc3febdbed9ad279717","instruction screen 0"," ","","","","","","","","","","","",""
"true","","preload","2","18569","0.0-2.0","mlJvFaZ9w4","65cb9e5b65630107b7fbb44b","6617fad957f7c6a12ea16e26","6622ccc3febdbed9ad279717","","","false","[]","[]","[]","","","","","","","",""
"","15590","html-keyboard-response","3","34161","0.0-3.0","mlJvFaZ9w4","65cb9e5b65630107b7fbb44b","6617fad957f7c6a12ea16e26","6622ccc3febdbed9ad279717","instruction screen 1"," ","","","","","","","","","","","",""
"","17545","html-keyboard-response","4","51711","0.0-4.0","mlJvFaZ9w4","65cb9e5b65630107b7fbb44b","6617fad957f7c6a12ea16e26","6622ccc3febdbed9ad279717","instruction screen 2","q","","","","","","","","","","","",""
"","5587","html-keyboard-response","5","57303","0.0-5.0","mlJvFaZ9w4","65cb9e5b65630107b7fbb44b","6617fad957f7c6a12ea16e26","6622ccc3febdbed9ad279717","instruction screen 3","p","","","","","","","","","","","",""
"","6578","html-keyboard-response","6","63888","0.0-6.0","mlJvFaZ9w4","65cb9e5b65630107b7fbb44b","6617fad957f7c6a12ea16e26","6622ccc3febdbed9ad279717","instruction screen 4"," ","","","","","","","","","","","",""
"","7839","html-keyboard-response","7","71763","0.0-7.0","mlJvFaZ9w4","65cb9e5b65630107b7fbb44b","6617fad957f7c6a12ea16e26","6622ccc3febdbed9ad279717","instruction screen 5"," ","","","","","","","","","","","",""
"","null","html-keyboard-response","8","72301","0.0-8.0","mlJvFaZ9w4","65cb9e5b65630107b7fbb44b","6617fad957f7c6a12ea16e26","6622ccc3febdbed9ad279717","fixation cross","null","","","","","","","","","","","",""
"","null","html-keyboard-response","9","72804","0.0-9.0-0.0","mlJvFaZ9w4","65cb9e5b65630107b7fbb44b","6617fad957f7c6a12ea16e26","6622ccc3febdbed9ad279717","fixation cross","null","","","","","","","","","","","",""
"","null","html-keyboard-response","10","75807","0.0-9.0-1.0","mlJvFaZ9w4","65cb9e5b65630107b7fbb44b","6617fad957f7c6a12ea16e26","6622ccc3febdbed9ad279717","
        <div id=""grid-container"">
        <!-- Grid items will be dynamically added here -->
    </div>    ","null","","","","","","","","","","","",""
"","3000","html-keyboard-response","11","80810","0.0-9.0-2.0","mlJvFaZ9w4","65cb9e5b65630107b7fbb44b","6617fad957f7c6a12ea16e26","6622ccc3febdbed9ad279717","mask grid","null","","","","","Ontogenetic_Distractor_Nonthreat_target","onmask","3000","p","7","Phylogenetic","false","practice"
"","null","html-keyboard-response","12","82051","0.0-9.0-3.0","mlJvFaZ9w4","65cb9e5b65630107b7fbb44b","6617fad957f7c6a12ea16e26","6622ccc3febdbed9ad279717","feedback screen","null","","","","","","","","","","","",""
"","null","html-keyboard-response","13","82557","0.0-9.0-0.1","mlJvFaZ9w4","65cb9e5b65630107b7fbb44b","6617fad957f7c6a12ea16e26","6622ccc3febdbed9ad279717","fixation cross","null","","","","","","","","","","","",""
"","null","html-keyboard-response","14","85460","0.0-9.0-1.1","mlJvFaZ9w4","65cb9e5b65630107b7fbb44b","6617fad957f7c6a12ea16e26","6622ccc3febdbed9ad279717","
        <div id=""grid-container"">
        <!-- Grid items will be dynamically added here -->
    </div>    ","null","","","","","","","","","","","",""
"","4373","html-keyboard-response","15","86934","0.0-9.0-2.1","mlJvFaZ9w4","65cb9e5b65630107b7fbb44b","6617fad957f7c6a12ea16e26","6622ccc3febdbed9ad279717","mask grid","p","","","","","Ontogenetic_Distractor_Nonthreat_target","onmask","2900","p","3","Phylogenetic","true","practice"
"","null","html-keyboard-response","16","88138","0.0-9.0-3.1","mlJvFaZ9w4","65cb9e5b65630107b7fbb44b","6617fad957f7c6a12ea16e26","6622ccc3febdbed9ad279717","feedback screen","null","","","","","","","","","","","",""
"","null","html-keyboard-response","17","88645","0.0-9.0-0.2","mlJvFaZ9w4","65cb9e5b65630107b7fbb44b","6617fad957f7c6a12ea16e26","6622ccc3febdbed9ad279717","fixation cross","null","","","","","","","","","","","",""
"","1058","html-keyboard-response","18","89704","0.0-9.0-1.2","mlJvFaZ9w4","65cb9e5b65630107b7fbb44b","6617fad957f7c6a12ea16e26","6622ccc3febdbed9ad279717","image grid","q","","","","","Ontogenetic_Distractor_Threat_target","ongrid","2800","q","1","Phylogenetic","true","practice"
"","null","html-keyboard-response","19","89856","0.0-9.0-2.2","mlJvFaZ9w4","65cb9e5b65630107b7fbb44b","6617fad957f7c6a12ea16e26","6622ccc3febdbed9ad279717","
    <div id=""grid-container"">
        <!-- Grid items will be dynamically added here -->
    </div>    ","null","","","","","","","","","","","",""
"","null","html-keyboard-response","20","91060","0.0-9.0-3.2","mlJvFaZ9w4","65cb9e5b65630107b7fbb44b","6617fad957f7c6a12ea16e26","6622ccc3febdbed9ad279717","feedback screen","null","","","","","","","","","","","",""
"","null","html-keyboard-response","21","91568","0.0-9.0-0.3","mlJvFaZ9w4","65cb9e5b65630107b7fbb44b","6617fad957f7c6a12ea16e26","6622ccc3febdbed9ad279717","fixation cross","null","","","","","","","","","","","",""
"","2173","html-keyboard-response","22","93742","0.0-9.0-1.3","mlJvFaZ9w4","65cb9e5b65630107b7fbb44b","6617fad957f7c6a12ea16e26","6622ccc3febdbed9ad279717","image grid"," ","","","","","Phylogenetic_Distractor_notarget","ongrid","2700"," ","7","Phylogenetic","true","practice"
"","null","html-keyboard-response","23","93894","0.0-9.0-2.3","mlJvFaZ9w4","65cb9e5b65630107b7fbb44b","6617fad957f7c6a12ea16e26","6622ccc3febdbed9ad279717","
    <div id=""grid-container"">
        <!-- Grid items will be dynamically added here -->
    </div>    ","null","","","","","","","","","","","",""
"","null","html-keyboard-response","24","95098","0.0-9.0-3.3","mlJvFaZ9w4","65cb9e5b65630107b7fbb44b","6617fad957f7c6a12ea16e26","6622ccc3febdbed9ad279717","feedback screen","null","","","","","","","","","","","",""
"","null","html-keyboard-response","25","95604","0.0-9.0-0.4","mlJvFaZ9w4","65cb9e5b65630107b7fbb44b","6617fad957f7c6a12ea16e26","6622ccc3febdbed9ad279717","fixation cross","null","","","","","","","","","","","",""
"","null","html-keyboard-response","26","98206","0.0-9.0-1.4","mlJvFaZ9w4","65cb9e5b65630107b7fbb44b","6617fad957f7c6a12ea16e26","6622ccc3febdbed9ad279717","
        <div id=""grid-container"">
        <!-- Grid items will be dynamically added here -->
    </div>    ","null","","","","","","","","","","","",""
"","3010","html-keyboard-response","27","98617","0.0-9.0-2.4","mlJvFaZ9w4","65cb9e5b65630107b7fbb44b","6617fad957f7c6a12ea16e26","6622ccc3febdbed9ad279717","mask grid","p","","","","","Phylogenetic_Distractor_Nonthreat_target","onmask","2600","p","9","Phylogenetic","true","practice"
"","null","html-keyboard-response","28","99822","0.0-9.0-3.4","mlJvFaZ9w4","65cb9e5b65630107b7fbb44b","6617fad957f7c6a12ea16e26","6622ccc3febdbed9ad279717","feedback screen","null","","","","","","","","","","","",""
"","null","html-keyboard-response","29","100329","0.0-9.0-0.5","mlJvFaZ9w4","65cb9e5b65630107b7fbb44b","6617fad957f7c6a12ea16e26","6622ccc3febdbed9ad279717","fixation cross","null","","","","","","","","","","","",""
"","1842","html-keyboard-response","30","102173","0.0-9.0-1.5","mlJvFaZ9w4","65cb9e5b65630107b7fbb44b","6617fad957f7c6a12ea16e26","6622ccc3febdbed9ad279717","image grid"," ","","","","","Phylogenetic_Distractor_Nonthreat_target","ongrid","2500","p","2","Phylogenetic","false","practice"
"","null","html-keyboard-response","31","102325","0.0-9.0-2.5","mlJvFaZ9w4","65cb9e5b65630107b7fbb44b","6617fad957f7c6a12ea16e26","6622ccc3febdbed9ad279717","
    <div id=""grid-container"">
        <!-- Grid items will be dynamically added here -->
    </div>    ","null","","","","","","","","","","","",""
"","null","html-keyboard-response","32","103529","0.0-9.0-3.5","mlJvFaZ9w4","65cb9e5b65630107b7fbb44b","6617fad957f7c6a12ea16e26","6622ccc3febdbed9ad279717","feedback screen","null","","","","","","","","","","","",""
"","null","html-keyboard-response","33","104035","0.0-9.0-0.6","mlJvFaZ9w4","65cb9e5b65630107b7fbb44b","6617fad957f7c6a12ea16e26","6622ccc3febdbed9ad279717","fixation cross","null","","","","","","","","","","","",""
"","null","html-keyboard-response","34","106437","0.0-9.0-1.6","mlJvFaZ9w4","65cb9e5b65630107b7fbb44b","6617fad957f7c6a12ea16e26","6622ccc3febdbed9ad279717","
        <div id=""grid-container"">
        <!-- Grid items will be dynamically added here -->
    </div>    ","null","","","","","","","","","","","",""
"","2450","html-keyboard-response","35","106488","0.0-9.0-2.6","mlJvFaZ9w4","65cb9e5b65630107b7fbb44b","6617fad957f7c6a12ea16e26","6622ccc3febdbed9ad279717","mask grid"," ","","","","","Ontogenetic_Distractor_notarget","onmask","2400"," ","1","Phylogenetic","true","practice"
"","null","html-keyboard-response","36","107693","0.0-9.0-3.6","mlJvFaZ9w4","65cb9e5b65630107b7fbb44b","6617fad957f7c6a12ea16e26","6622ccc3febdbed9ad279717","feedback screen","null","","","","","","","","","","","",""
"","null","html-keyboard-response","37","108199","0.0-9.0-0.7","mlJvFaZ9w4","65cb9e5b65630107b7fbb44b","6617fad957f7c6a12ea16e26","6622ccc3febdbed9ad279717","fixation cross","null","","","","","","","","","","","",""
"","1430","html-keyboard-response","38","109630","0.0-9.0-1.7","mlJvFaZ9w4","65cb9e5b65630107b7fbb44b","6617fad957f7c6a12ea16e26","6622ccc3febdbed9ad279717","image grid","q","","","","","Ontogenetic_Distractor_Threat_target","ongrid","2300","q","2","Phylogenetic","true","practice"
"","null","html-keyboard-response","39","109783","0.0-9.0-2.7","mlJvFaZ9w4","65cb9e5b65630107b7fbb44b","6617fad957f7c6a12ea16e26","6622ccc3febdbed9ad279717","
    <div id=""grid-container"">
        <!-- Grid items will be dynamically added here -->
    </div>    ","null","","","","","","","","","","","",""
"","null","html-keyboard-response","40","110987","0.0-9.0-3.7","mlJvFaZ9w4","65cb9e5b65630107b7fbb44b","6617fad957f7c6a12ea16e26","6622ccc3febdbed9ad279717","feedback screen","null","","","","","","","","","","","",""
"","null","html-keyboard-response","41","111493","0.0-9.0-0.8","mlJvFaZ9w4","65cb9e5b65630107b7fbb44b","6617fad957f7c6a12ea16e26","6622ccc3febdbed9ad279717","fixation cross","null","","","","","","","","","","","",""
"","null","html-keyboard-response","42","113695","0.0-9.0-1.8","mlJvFaZ9w4","65cb9e5b65630107b7fbb44b","6617fad957f7c6a12ea16e26","6622ccc3febdbed9ad279717","
        <div id=""grid-container"">
        <!-- Grid items will be dynamically added here -->
    </div>    ","null","","","","","","","","","","","",""
"","2805","html-keyboard-response","43","114301","0.0-9.0-2.8","mlJvFaZ9w4","65cb9e5b65630107b7fbb44b","6617fad957f7c6a12ea16e26","6622ccc3febdbed9ad279717","mask grid","p","","","","","Ontogenetic_Distractor_notarget","onmask","2200"," ","1","Phylogenetic","false","practice"
"","null","html-keyboard-response","44","115506","0.0-9.0-3.8","mlJvFaZ9w4","65cb9e5b65630107b7fbb44b","6617fad957f7c6a12ea16e26","6622ccc3febdbed9ad279717","feedback screen","null","","","","","","","","","","","",""
"","null","html-keyboard-response","45","116011","0.0-9.0-0.9","mlJvFaZ9w4","65cb9e5b65630107b7fbb44b","6617fad957f7c6a12ea16e26","6622ccc3febdbed9ad279717","fixation cross","null","","","","","","","","","","","",""
"","1635","html-keyboard-response","46","117647","0.0-9.0-1.9","mlJvFaZ9w4","65cb9e5b65630107b7fbb44b","6617fad957f7c6a12ea16e26","6622ccc3febdbed9ad279717","image grid","q","","","","","Ontogenetic_Distractor_Threat_target","ongrid","2100","q","2","Phylogenetic","true","practice"
"","null","html-keyboard-response","47","117800","0.0-9.0-2.9","mlJvFaZ9w4","65cb9e5b65630107b7fbb44b","6617fad957f7c6a12ea16e26","6622ccc3febdbed9ad279717","
    <div id=""grid-container"">
        <!-- Grid items will be dynamically added here -->
    </div>    ","null","","","","","","","","","","","",""
"","null","html-keyboard-response","48","119004","0.0-9.0-3.9","mlJvFaZ9w4","65cb9e5b65630107b7fbb44b","6617fad957f7c6a12ea16e26","6622ccc3febdbed9ad279717","feedback screen","null","","","","","","","","","","","",""
"","null","html-keyboard-response","49","119510","0.0-9.0-0.10","mlJvFaZ9w4","65cb9e5b65630107b7fbb44b","6617fad957f7c6a12ea16e26","6622ccc3febdbed9ad279717","fixation cross","null","","","","","","","","","","","",""
"","1118","html-keyboard-response","50","120629","0.0-9.0-1.10","mlJvFaZ9w4","65cb9e5b65630107b7fbb44b","6617fad957f7c6a12ea16e26","6622ccc3febdbed9ad279717","image grid","p","","","","","Ontogenetic_Distractor_Nonthreat_target","ongrid","2000","p","2","Phylogenetic","true","practice"
"","null","html-keyboard-response","51","120782","0.0-9.0-2.10","mlJvFaZ9w4","65cb9e5b65630107b7fbb44b","6617fad957f7c6a12ea16e26","6622ccc3febdbed9ad279717","
    <div id=""grid-container"">
        <!-- Grid items will be dynamically added here -->
    </div>    ","null","","","","","","","","","","","",""
"","null","html-keyboard-response","52","121986","0.0-9.0-3.10","mlJvFaZ9w4","65cb9e5b65630107b7fbb44b","6617fad957f7c6a12ea16e26","6622ccc3febdbed9ad279717","feedback screen","null","","","","","","","","","","","",""
"","null","html-keyboard-response","53","122493","0.0-9.0-0.11","mlJvFaZ9w4","65cb9e5b65630107b7fbb44b","6617fad957f7c6a12ea16e26","6622ccc3febdbed9ad279717","fixation cross","null","","","","","","","","","","","",""
"","null","html-keyboard-response","54","124395","0.0-9.0-1.11","mlJvFaZ9w4","65cb9e5b65630107b7fbb44b","6617fad957f7c6a12ea16e26","6622ccc3febdbed9ad279717","
        <div id=""grid-container"">
        <!-- Grid items will be dynamically added here -->
    </div>    ","null","","","","","","","","","","","",""
"","2271","html-keyboard-response","55","124767","0.0-9.0-2.11","mlJvFaZ9w4","65cb9e5b65630107b7fbb44b","6617fad957f7c6a12ea16e26","6622ccc3febdbed9ad279717","mask grid","p","","","","","Phylogenetic_Distractor_Nonthreat_target","onmask","1900","p","7","Phylogenetic","true","practice"
"","null","html-keyboard-response","56","125972","0.0-9.0-3.11","mlJvFaZ9w4","65cb9e5b65630107b7fbb44b","6617fad957f7c6a12ea16e26","6622ccc3febdbed9ad279717","feedback screen","null","","","","","","","","","","","",""
"","null","html-keyboard-response","57","126478","0.0-9.0-0.12","mlJvFaZ9w4","65cb9e5b65630107b7fbb44b","6617fad957f7c6a12ea16e26","6622ccc3febdbed9ad279717","fixation cross","null","","","","","","","","","","","",""
"","null","html-keyboard-response","58","128280","0.0-9.0-1.12","mlJvFaZ9w4","65cb9e5b65630107b7fbb44b","6617fad957f7c6a12ea16e26","6622ccc3febdbed9ad279717","
        <div id=""grid-container"">
        <!-- Grid items will be dynamically added here -->
    </div>    ","null","","","","","","","","","","","",""
"","2208","html-keyboard-response","59","128688","0.0-9.0-2.12","mlJvFaZ9w4","65cb9e5b65630107b7fbb44b","6617fad957f7c6a12ea16e26","6622ccc3febdbed9ad279717","mask grid","q","","","","","Phylogenetic_Distractor_Threat_target","onmask","1800","q","4","Phylogenetic","true","practice"
"","null","html-keyboard-response","60","129893","0.0-9.0-3.12","mlJvFaZ9w4","65cb9e5b65630107b7fbb44b","6617fad957f7c6a12ea16e26","6622ccc3febdbed9ad279717","feedback screen","null","","","","","","","","","","","",""
"","null","html-keyboard-response","61","130400","0.0-9.0-0.13","mlJvFaZ9w4","65cb9e5b65630107b7fbb44b","6617fad957f7c6a12ea16e26","6622ccc3febdbed9ad279717","fixation cross","null","","","","","","","","","","","",""
"","null","html-keyboard-response","62","132102","0.0-9.0-1.13","mlJvFaZ9w4","65cb9e5b65630107b7fbb44b","6617fad957f7c6a12ea16e26","6622ccc3febdbed9ad279717","
        <div id=""grid-container"">
        <!-- Grid items will be dynamically added here -->
    </div>    ","null","","","","","","","","","","","",""
"","2751","html-keyboard-response","63","133154","0.0-9.0-2.13","mlJvFaZ9w4","65cb9e5b65630107b7fbb44b","6617fad957f7c6a12ea16e26","6622ccc3febdbed9ad279717","mask grid","p","","","","","Phylogenetic_Distractor_Nonthreat_target","onmask","1700","p","5","Phylogenetic","true","practice"
"","null","html-keyboard-response","64","134359","0.0-9.0-3.13","mlJvFaZ9w4","65cb9e5b65630107b7fbb44b","6617fad957f7c6a12ea16e26","6622ccc3febdbed9ad279717","feedback screen","null","","","","","","","","","","","",""
"","null","html-keyboard-response","65","134866","0.0-9.0-0.14","mlJvFaZ9w4","65cb9e5b65630107b7fbb44b","6617fad957f7c6a12ea16e26","6622ccc3febdbed9ad279717","fixation cross","null","","","","","","","","","","","",""
"","null","html-keyboard-response","66","136469","0.0-9.0-1.14","mlJvFaZ9w4","65cb9e5b65630107b7fbb44b","6617fad957f7c6a12ea16e26","6622ccc3febdbed9ad279717","
        <div id=""grid-container"">
        <!-- Grid items will be dynamically added here -->
    </div>    ","null","","","","","","","","","","","",""
"","2518","html-keyboard-response","67","137388","0.0-9.0-2.14","mlJvFaZ9w4","65cb9e5b65630107b7fbb44b","6617fad957f7c6a12ea16e26","6622ccc3febdbed9ad279717","mask grid"," ","","","","","Phylogenetic_Distractor_notarget","onmask","1600"," ","8","Phylogenetic","true","practice"
"","null","html-keyboard-response","68","138593","0.0-9.0-3.14","mlJvFaZ9w4","65cb9e5b65630107b7fbb44b","6617fad957f7c6a12ea16e26","6622ccc3febdbed9ad279717","feedback screen","null","","","","","","","","","","","",""
"","null","html-keyboard-response","69","139100","0.0-9.0-0.15","mlJvFaZ9w4","65cb9e5b65630107b7fbb44b","6617fad957f7c6a12ea16e26","6622ccc3febdbed9ad279717","fixation cross","null","","","","","","","","","","","",""
"","null","html-keyboard-response","70","140602","0.0-9.0-1.15","mlJvFaZ9w4","65cb9e5b65630107b7fbb44b","6617fad957f7c6a12ea16e26","6622ccc3febdbed9ad279717","
        <div id=""grid-container"">
        <!-- Grid items will be dynamically added here -->
    </div>    ","null","","","","","","","","","","","",""
"","1771","html-keyboard-response","71","140874","0.0-9.0-2.15","mlJvFaZ9w4","65cb9e5b65630107b7fbb44b","6617fad957f7c6a12ea16e26","6622ccc3febdbed9ad279717","mask grid","p","","","","","Ontogenetic_Distractor_Nonthreat_target","onmask","1500","p","3","Phylogenetic","true","practice"
"","null","html-keyboard-response","72","142078","0.0-9.0-3.15","mlJvFaZ9w4","65cb9e5b65630107b7fbb44b","6617fad957f7c6a12ea16e26","6622ccc3febdbed9ad279717","feedback screen","null","","","","","","","","","","","",""
"","null","html-keyboard-response","73","142585","0.0-9.0-0.16","mlJvFaZ9w4","65cb9e5b65630107b7fbb44b","6617fad957f7c6a12ea16e26","6622ccc3febdbed9ad279717","fixation cross","null","","","","","","","","","","","",""
"","null","html-keyboard-response","74","143988","0.0-9.0-1.16","mlJvFaZ9w4","65cb9e5b65630107b7fbb44b","6617fad957f7c6a12ea16e26","6622ccc3febdbed9ad279717","
        <div id=""grid-container"">
        <!-- Grid items will be dynamically added here -->
    </div>    ","null","","","","","","","","","","","",""
"","1543","html-keyboard-response","75","144131","0.0-9.0-2.16","mlJvFaZ9w4","65cb9e5b65630107b7fbb44b","6617fad957f7c6a12ea16e26","6622ccc3febdbed9ad279717","mask grid","q","","","","","Phylogenetic_Distractor_Threat_target","onmask","1400","q","3","Phylogenetic","true","practice"
"","null","html-keyboard-response","76","145337","0.0-9.0-3.16","mlJvFaZ9w4","65cb9e5b65630107b7fbb44b","6617fad957f7c6a12ea16e26","6622ccc3febdbed9ad279717","feedback screen","null","","","","","","","","","","","",""
"","null","html-keyboard-response","77","145844","0.0-9.0-0.17","mlJvFaZ9w4","65cb9e5b65630107b7fbb44b","6617fad957f7c6a12ea16e26","6622ccc3febdbed9ad279717","fixation cross","null","","","","","","","","","","","",""
"","1277","html-keyboard-response","78","147122","0.0-9.0-1.17","mlJvFaZ9w4","65cb9e5b65630107b7fbb44b","6617fad957f7c6a12ea16e26","6622ccc3febdbed9ad279717","image grid","q","","","","","Ontogenetic_Distractor_Threat_target","ongrid","1300","q","1","Phylogenetic","true","practice"
"","null","html-keyboard-response","79","147274","0.0-9.0-2.17","mlJvFaZ9w4","65cb9e5b65630107b7fbb44b","6617fad957f7c6a12ea16e26","6622ccc3febdbed9ad279717","
    <div id=""grid-container"">
        <!-- Grid items will be dynamically added here -->
    </div>    ","null","","","","","","","","","","","",""
"","null","html-keyboard-response","80","148478","0.0-9.0-3.17","mlJvFaZ9w4","65cb9e5b65630107b7fbb44b","6617fad957f7c6a12ea16e26","6622ccc3febdbed9ad279717","feedback screen","null","","","","","","","","","","","",""
"","null","html-keyboard-response","81","148984","0.0-9.0-0.18","mlJvFaZ9w4","65cb9e5b65630107b7fbb44b","6617fad957f7c6a12ea16e26","6622ccc3febdbed9ad279717","fixation cross","null","","","","","","","","","","","",""
"","null","html-keyboard-response","82","150187","0.0-9.0-1.18","mlJvFaZ9w4","65cb9e5b65630107b7fbb44b","6617fad957f7c6a12ea16e26","6622ccc3febdbed9ad279717","
        <div id=""grid-container"">
        <!-- Grid items will be dynamically added here -->
    </div>    ","null","","","","","","","","","","","",""
"","1636","html-keyboard-response","83","150623","0.0-9.0-2.18","mlJvFaZ9w4","65cb9e5b65630107b7fbb44b","6617fad957f7c6a12ea16e26","6622ccc3febdbed9ad279717","mask grid","q","","","","","Phylogenetic_Distractor_Threat_target","onmask","1200","q","5","Phylogenetic","true","practice"
"","null","html-keyboard-response","84","151827","0.0-9.0-3.18","mlJvFaZ9w4","65cb9e5b65630107b7fbb44b","6617fad957f7c6a12ea16e26","6622ccc3febdbed9ad279717","feedback screen","null","","","","","","","","","","","",""
"","null","html-keyboard-response","85","152334","0.0-9.0-0.19","mlJvFaZ9w4","65cb9e5b65630107b7fbb44b","6617fad957f7c6a12ea16e26","6622ccc3febdbed9ad279717","fixation cross","null","","","","","","","","","","","",""
"","null","html-keyboard-response","86","153436","0.0-9.0-1.19","mlJvFaZ9w4","65cb9e5b65630107b7fbb44b","6617fad957f7c6a12ea16e26","6622ccc3febdbed9ad279717","
        <div id=""grid-container"">
        <!-- Grid items will be dynamically added here -->
    </div>    ","null","","","","","","","","","","","",""
"","1251","html-keyboard-response","87","153588","0.0-9.0-2.19","mlJvFaZ9w4","65cb9e5b65630107b7fbb44b","6617fad957f7c6a12ea16e26","6622ccc3febdbed9ad279717","mask grid","q","","","","","Phylogenetic_Distractor_Threat_target","onmask","1100","q","7","Phylogenetic","true","practice"
"","null","html-keyboard-response","88","154793","0.0-9.0-3.19","mlJvFaZ9w4","65cb9e5b65630107b7fbb44b","6617fad957f7c6a12ea16e26","6622ccc3febdbed9ad279717","feedback screen","null","","","","","","","","","","","",""
"","5440","html-keyboard-response","89","160268","0.0-10.0","mlJvFaZ9w4","65cb9e5b65630107b7fbb44b","6617fad957f7c6a12ea16e26","6622ccc3febdbed9ad279717","pre-experimental_briefing","q","","","","","","","","","","","",""
"","null","html-keyboard-response","90","162805","0.0-11.0-0.0","mlJvFaZ9w4","65cb9e5b65630107b7fbb44b","6617fad957f7c6a12ea16e26","6622ccc3febdbed9ad279717","fixation cross","null","","","","","","","","","","","",""
"","2136","html-keyboard-response","91","164942","0.0-11.0-1.0","mlJvFaZ9w4","65cb9e5b65630107b7fbb44b","6617fad957f7c6a12ea16e26","6622ccc3febdbed9ad279717","image grid","p","","","","","Phylogenetic_Distractor_Nonthreat_target","ongrid","2500","p","8","Phylogenetic","true","experimental"
"","null","html-keyboard-response","92","165094","0.0-11.0-2.0","mlJvFaZ9w4","65cb9e5b65630107b7fbb44b","6617fad957f7c6a12ea16e26","6622ccc3febdbed9ad279717","
    <div id=""grid-container"">
        <!-- Grid items will be dynamically added here -->
    </div>    ","null","","","","","","","","","","","",""
"","null","html-keyboard-response","93","165798","0.0-11.0-0.1","mlJvFaZ9w4","65cb9e5b65630107b7fbb44b","6617fad957f7c6a12ea16e26","6622ccc3febdbed9ad279717","fixation cross","null","","","","","","","","","","","",""
"","1653","html-keyboard-response","94","167452","0.0-11.0-1.1","mlJvFaZ9w4","65cb9e5b65630107b7fbb44b","6617fad957f7c6a12ea16e26","6622ccc3febdbed9ad279717","image grid","q","","","","","Phylogenetic_Distractor_Threat_target","ongrid","2500","q","7","Phylogenetic","true","experimental"
"","null","html-keyboard-response","95","167605","0.0-11.0-2.1","mlJvFaZ9w4","65cb9e5b65630107b7fbb44b","6617fad957f7c6a12ea16e26","6622ccc3febdbed9ad279717","
    <div id=""grid-container"">
        <!-- Grid items will be dynamically added here -->
    </div>    ","null","","","","","","","","","","","",""
"","null","html-keyboard-response","96","168309","0.0-11.0-0.2","mlJvFaZ9w4","65cb9e5b65630107b7fbb44b","6617fad957f7c6a12ea16e26","6622ccc3febdbed9ad279717","fixation cross","null","","","","","","","","","","","",""
"","null","html-keyboard-response","97","170812","0.0-11.0-1.2","mlJvFaZ9w4","65cb9e5b65630107b7fbb44b","6617fad957f7c6a12ea16e26","6622ccc3febdbed9ad279717","
        <div id=""grid-container"">
        <!-- Grid items will be dynamically added here -->
    </div>    ","null","","","","","","","","","","","",""
"","2767","html-keyboard-response","98","171080","0.0-11.0-2.2","mlJvFaZ9w4","65cb9e5b65630107b7fbb44b","6617fad957f7c6a12ea16e26","6622ccc3febdbed9ad279717","mask grid","p","","","","","Phylogenetic_Distractor_Nonthreat_target","onmask","2500","p","4","Phylogenetic","true","experimental"
"","null","html-keyboard-response","99","171784","0.0-11.0-0.3","mlJvFaZ9w4","65cb9e5b65630107b7fbb44b","6617fad957f7c6a12ea16e26","6622ccc3febdbed9ad279717","fixation cross","null","","","","","","","","","","","",""
"","1395","html-keyboard-response","100","173179","0.0-11.0-1.3","mlJvFaZ9w4","65cb9e5b65630107b7fbb44b","6617fad957f7c6a12ea16e26","6622ccc3febdbed9ad279717","image grid","q","","","","","Phylogenetic_Distractor_Threat_target","ongrid","2500","q","1","Phylogenetic","true","experimental"
"","null","html-keyboard-response","101","173332","0.0-11.0-2.3","mlJvFaZ9w4","65cb9e5b65630107b7fbb44b","6617fad957f7c6a12ea16e26","6622ccc3febdbed9ad279717","
    <div id=""grid-container"">
        <!-- Grid items will be dynamically added here -->
    </div>    ","null","","","","","","","","","","","",""
"","null","html-keyboard-response","102","174037","0.0-11.0-0.4","mlJvFaZ9w4","65cb9e5b65630107b7fbb44b","6617fad957f7c6a12ea16e26","6622ccc3febdbed9ad279717","fixation cross","null","","","","","","","","","","","",""
"","1345","html-keyboard-response","103","175383","0.0-11.0-1.4","mlJvFaZ9w4","65cb9e5b65630107b7fbb44b","6617fad957f7c6a12ea16e26","6622ccc3febdbed9ad279717","image grid","q","","","","","Phylogenetic_Distractor_Threat_target","ongrid","2500","q","9","Phylogenetic","true","experimental"
"","null","html-keyboard-response","104","175536","0.0-11.0-2.4","mlJvFaZ9w4","65cb9e5b65630107b7fbb44b","6617fad957f7c6a12ea16e26","6622ccc3febdbed9ad279717","
    <div id=""grid-container"">
        <!-- Grid items will be dynamically added here -->
    </div>    ","null","","","","","","","","","","","",""
"","null","html-keyboard-response","105","176239","0.0-11.0-0.5","mlJvFaZ9w4","65cb9e5b65630107b7fbb44b","6617fad957f7c6a12ea16e26","6622ccc3febdbed9ad279717","fixation cross","null","","","","","","","","","","","",""
"","1524","html-keyboard-response","106","177763","0.0-11.0-1.5","mlJvFaZ9w4","65cb9e5b65630107b7fbb44b","6617fad957f7c6a12ea16e26","6622ccc3febdbed9ad279717","image grid","p","","","","","Phylogenetic_Distractor_Nonthreat_target","ongrid","2500","p","8","Phylogenetic","true","experimental"
"","null","html-keyboard-response","107","177916","0.0-11.0-2.5","mlJvFaZ9w4","65cb9e5b65630107b7fbb44b","6617fad957f7c6a12ea16e26","6622ccc3febdbed9ad279717","
    <div id=""grid-container"">
        <!-- Grid items will be dynamically added here -->
    </div>    ","null","","","","","","","","","","","",""
"","null","html-keyboard-response","108","178620","0.0-11.0-0.6","mlJvFaZ9w4","65cb9e5b65630107b7fbb44b","6617fad957f7c6a12ea16e26","6622ccc3febdbed9ad279717","fixation cross","null","","","","","","","","","","","",""
"","1886","html-keyboard-response","109","180507","0.0-11.0-1.6","mlJvFaZ9w4","65cb9e5b65630107b7fbb44b","6617fad957f7c6a12ea16e26","6622ccc3febdbed9ad279717","image grid","p","","","","","Phylogenetic_Distractor_Nonthreat_target","ongrid","2500","p","2","Phylogenetic","true","experimental"
"","null","html-keyboard-response","110","180659","0.0-11.0-2.6","mlJvFaZ9w4","65cb9e5b65630107b7fbb44b","6617fad957f7c6a12ea16e26","6622ccc3febdbed9ad279717","
    <div id=""grid-container"">
        <!-- Grid items will be dynamically added here -->
    </div>    ","null","","","","","","","","","","","",""
"","null","html-keyboard-response","111","181363","0.0-11.0-0.7","mlJvFaZ9w4","65cb9e5b65630107b7fbb44b","6617fad957f7c6a12ea16e26","6622ccc3febdbed9ad279717","fixation cross","null","","","","","","","","","","","",""
"","1140","html-keyboard-response","112","182504","0.0-11.0-1.7","mlJvFaZ9w4","65cb9e5b65630107b7fbb44b","6617fad957f7c6a12ea16e26","6622ccc3febdbed9ad279717","image grid","q","","","","","Phylogenetic_Distractor_Threat_target","ongrid","2500","q","5","Phylogenetic","true","experimental"
"","null","html-keyboard-response","113","182656","0.0-11.0-2.7","mlJvFaZ9w4","65cb9e5b65630107b7fbb44b","6617fad957f7c6a12ea16e26","6622ccc3febdbed9ad279717","
    <div id=""grid-container"">
        <!-- Grid items will be dynamically added here -->
    </div>    ","null","","","","","","","","","","","",""
"","null","html-keyboard-response","114","183360","0.0-11.0-0.8","mlJvFaZ9w4","65cb9e5b65630107b7fbb44b","6617fad957f7c6a12ea16e26","6622ccc3febdbed9ad279717","fixation cross","null","","","","","","","","","","","",""
"","1532","html-keyboard-response","115","184893","0.0-11.0-1.8","mlJvFaZ9w4","65cb9e5b65630107b7fbb44b","6617fad957f7c6a12ea16e26","6622ccc3febdbed9ad279717","image grid","p","","","","","Phylogenetic_Distractor_Nonthreat_target","ongrid","2500","p","9","Phylogenetic","true","experimental"
"","null","html-keyboard-response","116","185046","0.0-11.0-2.8","mlJvFaZ9w4","65cb9e5b65630107b7fbb44b","6617fad957f7c6a12ea16e26","6622ccc3febdbed9ad279717","
    <div id=""grid-container"">
        <!-- Grid items will be dynamically added here -->
    </div>    ","null","","","","","","","","","","","",""
"","null","html-keyboard-response","117","185750","0.0-11.0-0.9","mlJvFaZ9w4","65cb9e5b65630107b7fbb44b","6617fad957f7c6a12ea16e26","6622ccc3febdbed9ad279717","fixation cross","null","","","","","","","","","","","",""
"","1199","html-keyboard-response","118","186949","0.0-11.0-1.9","mlJvFaZ9w4","65cb9e5b65630107b7fbb44b","6617fad957f7c6a12ea16e26","6622ccc3febdbed9ad279717","image grid","q","","","","","Phylogenetic_Distractor_Threat_target","ongrid","2500","q","1","Phylogenetic","true","experimental"
"","null","html-keyboard-response","119","187102","0.0-11.0-2.9","mlJvFaZ9w4","65cb9e5b65630107b7fbb44b","6617fad957f7c6a12ea16e26","6622ccc3febdbed9ad279717","
    <div id=""grid-container"">
        <!-- Grid items will be dynamically added here -->
    </div>    ","null","","","","","","","","","","","",""
"","null","html-keyboard-response","120","187805","0.0-11.0-0.10","mlJvFaZ9w4","65cb9e5b65630107b7fbb44b","6617fad957f7c6a12ea16e26","6622ccc3febdbed9ad279717","fixation cross","null","","","","","","","","","","","",""
"","1208","html-keyboard-response","121","189013","0.0-11.0-1.10","mlJvFaZ9w4","65cb9e5b65630107b7fbb44b","6617fad957f7c6a12ea16e26","6622ccc3febdbed9ad279717","image grid","p","","","","","Phylogenetic_Distractor_Nonthreat_target","ongrid","2500","p","7","Phylogenetic","true","experimental"
"","null","html-keyboard-response","122","189166","0.0-11.0-2.10","mlJvFaZ9w4","65cb9e5b65630107b7fbb44b","6617fad957f7c6a12ea16e26","6622ccc3febdbed9ad279717","
    <div id=""grid-container"">
        <!-- Grid items will be dynamically added here -->
    </div>    ","null","","","","","","","","","","","",""
"","null","html-keyboard-response","123","189869","0.0-11.0-0.11","mlJvFaZ9w4","65cb9e5b65630107b7fbb44b","6617fad957f7c6a12ea16e26","6622ccc3febdbed9ad279717","fixation cross","null","","","","","","","","","","","",""
"","1091","html-keyboard-response","124","190961","0.0-11.0-1.11","mlJvFaZ9w4","65cb9e5b65630107b7fbb44b","6617fad957f7c6a12ea16e26","6622ccc3febdbed9ad279717","image grid","q","","","","","Phylogenetic_Distractor_Threat_target","ongrid","2500","q","4","Phylogenetic","true","experimental"
"","null","html-keyboard-response","125","191113","0.0-11.0-2.11","mlJvFaZ9w4","65cb9e5b65630107b7fbb44b","6617fad957f7c6a12ea16e26","6622ccc3febdbed9ad279717","
    <div id=""grid-container"">
        <!-- Grid items will be dynamically added here -->
    </div>    ","null","","","","","","","","","","","",""
"","null","html-keyboard-response","126","191817","0.0-11.0-0.12","mlJvFaZ9w4","65cb9e5b65630107b7fbb44b","6617fad957f7c6a12ea16e26","6622ccc3febdbed9ad279717","fixation cross","null","","","","","","","","","","","",""
"","1328","html-keyboard-response","127","193145","0.0-11.0-1.12","mlJvFaZ9w4","65cb9e5b65630107b7fbb44b","6617fad957f7c6a12ea16e26","6622ccc3febdbed9ad279717","image grid","q","","","","","Phylogenetic_Distractor_Threat_target","ongrid","2500","q","5","Phylogenetic","true","experimental"
"","null","html-keyboard-response","128","193298","0.0-11.0-2.12","mlJvFaZ9w4","65cb9e5b65630107b7fbb44b","6617fad957f7c6a12ea16e26","6622ccc3febdbed9ad279717","
    <div id=""grid-container"">
        <!-- Grid items will be dynamically added here -->
    </div>    ","null","","","","","","","","","","","",""
"","null","html-keyboard-response","129","194001","0.0-11.0-0.13","mlJvFaZ9w4","65cb9e5b65630107b7fbb44b","6617fad957f7c6a12ea16e26","6622ccc3febdbed9ad279717","fixation cross","null","","","","","","","","","","","",""
"","1068","html-keyboard-response","130","195070","0.0-11.0-1.13","mlJvFaZ9w4","65cb9e5b65630107b7fbb44b","6617fad957f7c6a12ea16e26","6622ccc3febdbed9ad279717","image grid","p","","","","","Phylogenetic_Distractor_Nonthreat_target","ongrid","2500","p","4","Phylogenetic","true","experimental"
"","null","html-keyboard-response","131","195223","0.0-11.0-2.13","mlJvFaZ9w4","65cb9e5b65630107b7fbb44b","6617fad957f7c6a12ea16e26","6622ccc3febdbed9ad279717","
    <div id=""grid-container"">
        <!-- Grid items will be dynamically added here -->
    </div>    ","null","","","","","","","","","","","",""
"","null","html-keyboard-response","132","195926","0.0-11.0-0.14","mlJvFaZ9w4","65cb9e5b65630107b7fbb44b","6617fad957f7c6a12ea16e26","6622ccc3febdbed9ad279717","fixation cross","null","","","","","","","","","","","",""
"","970","html-keyboard-response","133","196896","0.0-11.0-1.14","mlJvFaZ9w4","65cb9e5b65630107b7fbb44b","6617fad957f7c6a12ea16e26","6622ccc3febdbed9ad279717","image grid","p","","","","","Phylogenetic_Distractor_Nonthreat_target","ongrid","2500","p","5","Phylogenetic","true","experimental"
"","null","html-keyboard-response","134","197049","0.0-11.0-2.14","mlJvFaZ9w4","65cb9e5b65630107b7fbb44b","6617fad957f7c6a12ea16e26","6622ccc3febdbed9ad279717","
    <div id=""grid-container"">
        <!-- Grid items will be dynamically added here -->
    </div>    ","null","","","","","","","","","","","",""
"","null","html-keyboard-response","135","197752","0.0-11.0-0.15","mlJvFaZ9w4","65cb9e5b65630107b7fbb44b","6617fad957f7c6a12ea16e26","6622ccc3febdbed9ad279717","fixation cross","null","","","","","","","","","","","",""
"","1507","html-keyboard-response","136","199260","0.0-11.0-1.15","mlJvFaZ9w4","65cb9e5b65630107b7fbb44b","6617fad957f7c6a12ea16e26","6622ccc3febdbed9ad279717","image grid","p","","","","","Phylogenetic_Distractor_Nonthreat_target","ongrid","2500","p","5","Phylogenetic","true","experimental"
"","null","html-keyboard-response","137","199413","0.0-11.0-2.15","mlJvFaZ9w4","65cb9e5b65630107b7fbb44b","6617fad957f7c6a12ea16e26","6622ccc3febdbed9ad279717","
    <div id=""grid-container"">
        <!-- Grid items will be dynamically added here -->
    </div>    ","null","","","","","","","","","","","",""
"","null","html-keyboard-response","138","200117","0.0-11.0-0.16","mlJvFaZ9w4","65cb9e5b65630107b7fbb44b","6617fad957f7c6a12ea16e26","6622ccc3febdbed9ad279717","fixation cross","null","","","","","","","","","","","",""
"","1029","html-keyboard-response","139","201147","0.0-11.0-1.16","mlJvFaZ9w4","65cb9e5b65630107b7fbb44b","6617fad957f7c6a12ea16e26","6622ccc3febdbed9ad279717","image grid","p","","","","","Phylogenetic_Distractor_Nonthreat_target","ongrid","2500","p","4","Phylogenetic","true","experimental"
"","null","html-keyboard-response","140","201300","0.0-11.0-2.16","mlJvFaZ9w4","65cb9e5b65630107b7fbb44b","6617fad957f7c6a12ea16e26","6622ccc3febdbed9ad279717","
    <div id=""grid-container"">
        <!-- Grid items will be dynamically added here -->
    </div>    ","null","","","","","","","","","","","",""
"","null","html-keyboard-response","141","202003","0.0-11.0-0.17","mlJvFaZ9w4","65cb9e5b65630107b7fbb44b","6617fad957f7c6a12ea16e26","6622ccc3febdbed9ad279717","fixation cross","null","","","","","","","","","","","",""
"","1080","html-keyboard-response","142","203084","0.0-11.0-1.17","mlJvFaZ9w4","65cb9e5b65630107b7fbb44b","6617fad957f7c6a12ea16e26","6622ccc3febdbed9ad279717","image grid","q","","","","","Phylogenetic_Distractor_Threat_target","ongrid","2500","q","7","Phylogenetic","true","experimental"
"","null","html-keyboard-response","143","203236","0.0-11.0-2.17","mlJvFaZ9w4","65cb9e5b65630107b7fbb44b","6617fad957f7c6a12ea16e26","6622ccc3febdbed9ad279717","
    <div id=""grid-container"">
        <!-- Grid items will be dynamically added here -->
    </div>    ","null","","","","","","","","","","","",""
"","null","html-keyboard-response","144","203940","0.0-11.0-0.18","mlJvFaZ9w4","65cb9e5b65630107b7fbb44b","6617fad957f7c6a12ea16e26","6622ccc3febdbed9ad279717","fixation cross","null","","","","","","","","","","","",""
"","1053","html-keyboard-response","145","204994","0.0-11.0-1.18","mlJvFaZ9w4","65cb9e5b65630107b7fbb44b","6617fad957f7c6a12ea16e26","6622ccc3febdbed9ad279717","image grid","q","","","","","Phylogenetic_Distractor_Threat_target","ongrid","2500","q","5","Phylogenetic","true","experimental"
"","null","html-keyboard-response","146","205147","0.0-11.0-2.18","mlJvFaZ9w4","65cb9e5b65630107b7fbb44b","6617fad957f7c6a12ea16e26","6622ccc3febdbed9ad279717","
    <div id=""grid-container"">
        <!-- Grid items will be dynamically added here -->
    </div>    ","null","","","","","","","","","","","",""
"","null","html-keyboard-response","147","205851","0.0-11.0-0.19","mlJvFaZ9w4","65cb9e5b65630107b7fbb44b","6617fad957f7c6a12ea16e26","6622ccc3febdbed9ad279717","fixation cross","null","","","","","","","","","","","",""
"","1580","html-keyboard-response","148","207432","0.0-11.0-1.19","mlJvFaZ9w4","65cb9e5b65630107b7fbb44b","6617fad957f7c6a12ea16e26","6622ccc3febdbed9ad279717","image grid"," ","","","","","Phylogenetic_Distractor_Nonthreat_target","ongrid","2500","p","2","Phylogenetic","false","experimental"
"","null","html-keyboard-response","149","207584","0.0-11.0-2.19","mlJvFaZ9w4","65cb9e5b65630107b7fbb44b","6617fad957f7c6a12ea16e26","6622ccc3febdbed9ad279717","
    <div id=""grid-container"">
        <!-- Grid items will be dynamically added here -->
    </div>    ","null","","","","","","","","","","","",""
"","null","html-keyboard-response","150","208289","0.0-11.0-0.20","mlJvFaZ9w4","65cb9e5b65630107b7fbb44b","6617fad957f7c6a12ea16e26","6622ccc3febdbed9ad279717","fixation cross","null","","","","","","","","","","","",""
"","1523","html-keyboard-response","151","209812","0.0-11.0-1.20","mlJvFaZ9w4","65cb9e5b65630107b7fbb44b","6617fad957f7c6a12ea16e26","6622ccc3febdbed9ad279717","image grid","p","","","","","Phylogenetic_Distractor_Nonthreat_target","ongrid","2500","p","5","Phylogenetic","true","experimental"
"","null","html-keyboard-response","152","209965","0.0-11.0-2.20","mlJvFaZ9w4","65cb9e5b65630107b7fbb44b","6617fad957f7c6a12ea16e26","6622ccc3febdbed9ad279717","
    <div id=""grid-container"">
        <!-- Grid items will be dynamically added here -->
    </div>    ","null","","","","","","","","","","","",""
"","null","html-keyboard-response","153","210669","0.0-11.0-0.21","mlJvFaZ9w4","65cb9e5b65630107b7fbb44b","6617fad957f7c6a12ea16e26","6622ccc3febdbed9ad279717","fixation cross","null","","","","","","","","","","","",""
"","1088","html-keyboard-response","154","211758","0.0-11.0-1.21","mlJvFaZ9w4","65cb9e5b65630107b7fbb44b","6617fad957f7c6a12ea16e26","6622ccc3febdbed9ad279717","image grid","q","","","","","Phylogenetic_Distractor_Threat_target","ongrid","2500","q","7","Phylogenetic","true","experimental"
"","null","html-keyboard-response","155","211910","0.0-11.0-2.21","mlJvFaZ9w4","65cb9e5b65630107b7fbb44b","6617fad957f7c6a12ea16e26","6622ccc3febdbed9ad279717","
    <div id=""grid-container"">
        <!-- Grid items will be dynamically added here -->
    </div>    ","null","","","","","","","","","","","",""
"","null","html-keyboard-response","156","212615","0.0-11.0-0.22","mlJvFaZ9w4","65cb9e5b65630107b7fbb44b","6617fad957f7c6a12ea16e26","6622ccc3febdbed9ad279717","fixation cross","null","","","","","","","","","","","",""
"","1417","html-keyboard-response","157","214032","0.0-11.0-1.22","mlJvFaZ9w4","65cb9e5b65630107b7fbb44b","6617fad957f7c6a12ea16e26","6622ccc3febdbed9ad279717","image grid","q","","","","","Phylogenetic_Distractor_Threat_target","ongrid","2500","q","3","Phylogenetic","true","experimental"
"","null","html-keyboard-response","158","214185","0.0-11.0-2.22","mlJvFaZ9w4","65cb9e5b65630107b7fbb44b","6617fad957f7c6a12ea16e26","6622ccc3febdbed9ad279717","
    <div id=""grid-container"">
        <!-- Grid items will be dynamically added here -->
    </div>    ","null","","","","","","","","","","","",""
"","null","html-keyboard-response","159","214889","0.0-11.0-0.23","mlJvFaZ9w4","65cb9e5b65630107b7fbb44b","6617fad957f7c6a12ea16e26","6622ccc3febdbed9ad279717","fixation cross","null","","","","","","","","","","","",""
"","1253","html-keyboard-response","160","216142","0.0-11.0-1.23","mlJvFaZ9w4","65cb9e5b65630107b7fbb44b","6617fad957f7c6a12ea16e26","6622ccc3febdbed9ad279717","image grid","q","","","","","Phylogenetic_Distractor_Threat_target","ongrid","2500","q","9","Phylogenetic","true","experimental"
"","null","html-keyboard-response","161","216295","0.0-11.0-2.23","mlJvFaZ9w4","65cb9e5b65630107b7fbb44b","6617fad957f7c6a12ea16e26","6622ccc3febdbed9ad279717","
    <div id=""grid-container"">
        <!-- Grid items will be dynamically added here -->
    </div>    ","null","","","","","","","","","","","",""
"","null","html-keyboard-response","162","216998","0.0-11.0-0.24","mlJvFaZ9w4","65cb9e5b65630107b7fbb44b","6617fad957f7c6a12ea16e26","6622ccc3febdbed9ad279717","fixation cross","null","","","","","","","","","","","",""
"","986","html-keyboard-response","163","217985","0.0-11.0-1.24","mlJvFaZ9w4","65cb9e5b65630107b7fbb44b","6617fad957f7c6a12ea16e26","6622ccc3febdbed9ad279717","image grid","q","","","","","Phylogenetic_Distractor_Threat_target","ongrid","2500","q","2","Phylogenetic","true","experimental"
"","null","html-keyboard-response","164","218137","0.0-11.0-2.24","mlJvFaZ9w4","65cb9e5b65630107b7fbb44b","6617fad957f7c6a12ea16e26","6622ccc3febdbed9ad279717","
    <div id=""grid-container"">
        <!-- Grid items will be dynamically added here -->
    </div>    ","null","","","","","","","","","","","",""
"","null","html-keyboard-response","165","218841","0.0-11.0-0.25","mlJvFaZ9w4","65cb9e5b65630107b7fbb44b","6617fad957f7c6a12ea16e26","6622ccc3febdbed9ad279717","fixation cross","null","","","","","","","","","","","",""
"","974","html-keyboard-response","166","219816","0.0-11.0-1.25","mlJvFaZ9w4","65cb9e5b65630107b7fbb44b","6617fad957f7c6a12ea16e26","6622ccc3febdbed9ad279717","image grid","q","","","","","Phylogenetic_Distractor_Threat_target","ongrid","2500","q","4","Phylogenetic","true","experimental"
"","null","html-keyboard-response","167","219969","0.0-11.0-2.25","mlJvFaZ9w4","65cb9e5b65630107b7fbb44b","6617fad957f7c6a12ea16e26","6622ccc3febdbed9ad279717","
    <div id=""grid-container"">
        <!-- Grid items will be dynamically added here -->
    </div>    ","null","","","","","","","","","","","",""
"","null","html-keyboard-response","168","220673","0.0-11.0-0.26","mlJvFaZ9w4","65cb9e5b65630107b7fbb44b","6617fad957f7c6a12ea16e26","6622ccc3febdbed9ad279717","fixation cross","null","","","","","","","","","","","",""
"","2255","html-keyboard-response","169","222929","0.0-11.0-1.26","mlJvFaZ9w4","65cb9e5b65630107b7fbb44b","6617fad957f7c6a12ea16e26","6622ccc3febdbed9ad279717","image grid"," ","","","","","Phylogenetic_Distractor_notarget","ongrid","2500"," ","1","Phylogenetic","true","experimental"
"","null","html-keyboard-response","170","223081","0.0-11.0-2.26","mlJvFaZ9w4","65cb9e5b65630107b7fbb44b","6617fad957f7c6a12ea16e26","6622ccc3febdbed9ad279717","
    <div id=""grid-container"">
        <!-- Grid items will be dynamically added here -->
    </div>    ","null","","","","","","","","","","","",""
"","null","html-keyboard-response","171","223785","0.0-11.0-0.27","mlJvFaZ9w4","65cb9e5b65630107b7fbb44b","6617fad957f7c6a12ea16e26","6622ccc3febdbed9ad279717","fixation cross","null","","","","","","","","","","","",""
"","1381","html-keyboard-response","172","225167","0.0-11.0-1.27","mlJvFaZ9w4","65cb9e5b65630107b7fbb44b","6617fad957f7c6a12ea16e26","6622ccc3febdbed9ad279717","image grid","p","","","","","Phylogenetic_Distractor_Nonthreat_target","ongrid","2500","p","3","Phylogenetic","true","experimental"
"","null","html-keyboard-response","173","225319","0.0-11.0-2.27","mlJvFaZ9w4","65cb9e5b65630107b7fbb44b","6617fad957f7c6a12ea16e26","6622ccc3febdbed9ad279717","
    <div id=""grid-container"">
        <!-- Grid items will be dynamically added here -->
    </div>    ","null","","","","","","","","","","","",""
"","null","html-keyboard-response","174","226024","0.0-11.0-0.28","mlJvFaZ9w4","65cb9e5b65630107b7fbb44b","6617fad957f7c6a12ea16e26","6622ccc3febdbed9ad279717","fixation cross","null","","","","","","","","","","","",""
"","1146","html-keyboard-response","175","227171","0.0-11.0-1.28","mlJvFaZ9w4","65cb9e5b65630107b7fbb44b","6617fad957f7c6a12ea16e26","6622ccc3febdbed9ad279717","image grid","q","","","","","Phylogenetic_Distractor_Threat_target","ongrid","2500","q","6","Phylogenetic","true","experimental"
"","null","html-keyboard-response","176","227324","0.0-11.0-2.28","mlJvFaZ9w4","65cb9e5b65630107b7fbb44b","6617fad957f7c6a12ea16e26","6622ccc3febdbed9ad279717","
    <div id=""grid-container"">
        <!-- Grid items will be dynamically added here -->
    </div>    ","null","","","","","","","","","","","",""
"","null","html-keyboard-response","177","228028","0.0-11.0-0.29","mlJvFaZ9w4","65cb9e5b65630107b7fbb44b","6617fad957f7c6a12ea16e26","6622ccc3febdbed9ad279717","fixation cross","null","","","","","","","","","","","",""
"","911","html-keyboard-response","178","228940","0.0-11.0-1.29","mlJvFaZ9w4","65cb9e5b65630107b7fbb44b","6617fad957f7c6a12ea16e26","6622ccc3febdbed9ad279717","image grid","q","","","","","Phylogenetic_Distractor_Threat_target","ongrid","2500","q","1","Phylogenetic","true","experimental"
"","null","html-keyboard-response","179","229092","0.0-11.0-2.29","mlJvFaZ9w4","65cb9e5b65630107b7fbb44b","6617fad957f7c6a12ea16e26","6622ccc3febdbed9ad279717","
    <div id=""grid-container"">
        <!-- Grid items will be dynamically added here -->
    </div>    ","null","","","","","","","","","","","",""
"","null","html-keyboard-response","180","229796","0.0-11.0-0.30","mlJvFaZ9w4","65cb9e5b65630107b7fbb44b","6617fad957f7c6a12ea16e26","6622ccc3febdbed9ad279717","fixation cross","null","","","","","","","","","","","",""
"","1963","html-keyboard-response","181","231760","0.0-11.0-1.30","mlJvFaZ9w4","65cb9e5b65630107b7fbb44b","6617fad957f7c6a12ea16e26","6622ccc3febdbed9ad279717","image grid","p","","","","","Phylogenetic_Distractor_Nonthreat_target","ongrid","2500","p","7","Phylogenetic","true","experimental"
"","null","html-keyboard-response","182","231913","0.0-11.0-2.30","mlJvFaZ9w4","65cb9e5b65630107b7fbb44b","6617fad957f7c6a12ea16e26","6622ccc3febdbed9ad279717","
    <div id=""grid-container"">
        <!-- Grid items will be dynamically added here -->
    </div>    ","null","","","","","","","","","","","",""
"","null","html-keyboard-response","183","232617","0.0-11.0-0.31","mlJvFaZ9w4","65cb9e5b65630107b7fbb44b","6617fad957f7c6a12ea16e26","6622ccc3febdbed9ad279717","fixation cross","null","","","","","","","","","","","",""
"","1471","html-keyboard-response","184","234089","0.0-11.0-1.31","mlJvFaZ9w4","65cb9e5b65630107b7fbb44b","6617fad957f7c6a12ea16e26","6622ccc3febdbed9ad279717","image grid","p","","","","","Phylogenetic_Distractor_Nonthreat_target","ongrid","2500","p","5","Phylogenetic","true","experimental"
"","null","html-keyboard-response","185","234242","0.0-11.0-2.31","mlJvFaZ9w4","65cb9e5b65630107b7fbb44b","6617fad957f7c6a12ea16e26","6622ccc3febdbed9ad279717","
    <div id=""grid-container"">
        <!-- Grid items will be dynamically added here -->
    </div>    ","null","","","","","","","","","","","",""
"","null","html-keyboard-response","186","234946","0.0-11.0-0.32","mlJvFaZ9w4","65cb9e5b65630107b7fbb44b","6617fad957f7c6a12ea16e26","6622ccc3febdbed9ad279717","fixation cross","null","","","","","","","","","","","",""
"","2319","html-keyboard-response","187","237265","0.0-11.0-1.32","mlJvFaZ9w4","65cb9e5b65630107b7fbb44b","6617fad957f7c6a12ea16e26","6622ccc3febdbed9ad279717","image grid"," ","","","","","Phylogenetic_Distractor_notarget","ongrid","2500"," ","3","Phylogenetic","true","experimental"
"","null","html-keyboard-response","188","237418","0.0-11.0-2.32","mlJvFaZ9w4","65cb9e5b65630107b7fbb44b","6617fad957f7c6a12ea16e26","6622ccc3febdbed9ad279717","
    <div id=""grid-container"">
        <!-- Grid items will be dynamically added here -->
    </div>    ","null","","","","","","","","","","","",""
"","null","html-keyboard-response","189","238122","0.0-11.0-0.33","mlJvFaZ9w4","65cb9e5b65630107b7fbb44b","6617fad957f7c6a12ea16e26","6622ccc3febdbed9ad279717","fixation cross","null","","","","","","","","","","","",""
"","1023","html-keyboard-response","190","239146","0.0-11.0-1.33","mlJvFaZ9w4","65cb9e5b65630107b7fbb44b","6617fad957f7c6a12ea16e26","6622ccc3febdbed9ad279717","image grid","p","","","","","Phylogenetic_Distractor_Nonthreat_target","ongrid","2500","p","3","Phylogenetic","true","experimental"
"","null","html-keyboard-response","191","239298","0.0-11.0-2.33","mlJvFaZ9w4","65cb9e5b65630107b7fbb44b","6617fad957f7c6a12ea16e26","6622ccc3febdbed9ad279717","
    <div id=""grid-container"">
        <!-- Grid items will be dynamically added here -->
    </div>    ","null","","","","","","","","","","","",""
"","null","html-keyboard-response","192","240002","0.0-11.0-0.34","mlJvFaZ9w4","65cb9e5b65630107b7fbb44b","6617fad957f7c6a12ea16e26","6622ccc3febdbed9ad279717","fixation cross","null","","","","","","","","","","","",""
"","2071","html-keyboard-response","193","242074","0.0-11.0-1.34","mlJvFaZ9w4","65cb9e5b65630107b7fbb44b","6617fad957f7c6a12ea16e26","6622ccc3febdbed9ad279717","image grid"," ","","","","","Phylogenetic_Distractor_notarget","ongrid","2500"," ","5","Phylogenetic","true","experimental"
"","null","html-keyboard-response","194","242226","0.0-11.0-2.34","mlJvFaZ9w4","65cb9e5b65630107b7fbb44b","6617fad957f7c6a12ea16e26","6622ccc3febdbed9ad279717","
    <div id=""grid-container"">
        <!-- Grid items will be dynamically added here -->
    </div>    ","null","","","","","","","","","","","",""
"","null","html-keyboard-response","195","242930","0.0-11.0-0.35","mlJvFaZ9w4","65cb9e5b65630107b7fbb44b","6617fad957f7c6a12ea16e26","6622ccc3febdbed9ad279717","fixation cross","null","","","","","","","","","","","",""
"","772","html-keyboard-response","196","243702","0.0-11.0-1.35","mlJvFaZ9w4","65cb9e5b65630107b7fbb44b","6617fad957f7c6a12ea16e26","6622ccc3febdbed9ad279717","image grid","q","","","","","Phylogenetic_Distractor_Threat_target","ongrid","2500","q","4","Phylogenetic","true","experimental"
"","null","html-keyboard-response","197","243854","0.0-11.0-2.35","mlJvFaZ9w4","65cb9e5b65630107b7fbb44b","6617fad957f7c6a12ea16e26","6622ccc3febdbed9ad279717","
    <div id=""grid-container"">
        <!-- Grid items will be dynamically added here -->
    </div>    ","null","","","","","","","","","","","",""
"","null","html-keyboard-response","198","244558","0.0-11.0-0.36","mlJvFaZ9w4","65cb9e5b65630107b7fbb44b","6617fad957f7c6a12ea16e26","6622ccc3febdbed9ad279717","fixation cross","null","","","","","","","","","","","",""
"","1215","html-keyboard-response","199","245774","0.0-11.0-1.36","mlJvFaZ9w4","65cb9e5b65630107b7fbb44b","6617fad957f7c6a12ea16e26","6622ccc3febdbed9ad279717","image grid","p","","","","","Phylogenetic_Distractor_Nonthreat_target","ongrid","2500","p","6","Phylogenetic","true","experimental"
"","null","html-keyboard-response","200","245926","0.0-11.0-2.36","mlJvFaZ9w4","65cb9e5b65630107b7fbb44b","6617fad957f7c6a12ea16e26","6622ccc3febdbed9ad279717","
    <div id=""grid-container"">
        <!-- Grid items will be dynamically added here -->
    </div>    ","null","","","","","","","","","","","",""
"","null","html-keyboard-response","201","246630","0.0-11.0-0.37","mlJvFaZ9w4","65cb9e5b65630107b7fbb44b","6617fad957f7c6a12ea16e26","6622ccc3febdbed9ad279717","fixation cross","null","","","","","","","","","","","",""
"","1148","html-keyboard-response","202","247779","0.0-11.0-1.37","mlJvFaZ9w4","65cb9e5b65630107b7fbb44b","6617fad957f7c6a12ea16e26","6622ccc3febdbed9ad279717","image grid","p","","","","","Phylogenetic_Distractor_Nonthreat_target","ongrid","2500","p","1","Phylogenetic","true","experimental"
"","null","html-keyboard-response","203","247932","0.0-11.0-2.37","mlJvFaZ9w4","65cb9e5b65630107b7fbb44b","6617fad957f7c6a12ea16e26","6622ccc3febdbed9ad279717","
    <div id=""grid-container"">
        <!-- Grid items will be dynamically added here -->
    </div>    ","null","","","","","","","","","","","",""
"","null","html-keyboard-response","204","248637","0.0-11.0-0.38","mlJvFaZ9w4","65cb9e5b65630107b7fbb44b","6617fad957f7c6a12ea16e26","6622ccc3febdbed9ad279717","fixation cross","null","","","","","","","","","","","",""
"","781","html-keyboard-response","205","249419","0.0-11.0-1.38","mlJvFaZ9w4","65cb9e5b65630107b7fbb44b","6617fad957f7c6a12ea16e26","6622ccc3febdbed9ad279717","image grid","q","","","","","Phylogenetic_Distractor_Threat_target","ongrid","2500","q","2","Phylogenetic","true","experimental"
"","null","html-keyboard-response","206","249572","0.0-11.0-2.38","mlJvFaZ9w4","65cb9e5b65630107b7fbb44b","6617fad957f7c6a12ea16e26","6622ccc3febdbed9ad279717","
    <div id=""grid-container"">
        <!-- Grid items will be dynamically added here -->
    </div>    ","null","","","","","","","","","","","",""
"","null","html-keyboard-response","207","250275","0.0-11.0-0.39","mlJvFaZ9w4","65cb9e5b65630107b7fbb44b","6617fad957f7c6a12ea16e26","6622ccc3febdbed9ad279717","fixation cross","null","","","","","","","","","","","",""
"","1948","html-keyboard-response","208","252224","0.0-11.0-1.39","mlJvFaZ9w4","65cb9e5b65630107b7fbb44b","6617fad957f7c6a12ea16e26","6622ccc3febdbed9ad279717","image grid"," ","","","","","Phylogenetic_Distractor_notarget","ongrid","2500"," ","2","Phylogenetic","true","experimental"
"","null","html-keyboard-response","209","252377","0.0-11.0-2.39","mlJvFaZ9w4","65cb9e5b65630107b7fbb44b","6617fad957f7c6a12ea16e26","6622ccc3febdbed9ad279717","
    <div id=""grid-container"">
        <!-- Grid items will be dynamically added here -->
    </div>    ","null","","","","","","","","","","","",""
"","50582","html-keyboard-response","210","303195","0.0-12.0","mlJvFaZ9w4","65cb9e5b65630107b7fbb44b","6617fad957f7c6a12ea16e26","6622ccc3febdbed9ad279717","break screen"," ","","","","","","","","","","","",""
"","null","html-keyboard-response","211","305734","0.0-13.0-0.0","mlJvFaZ9w4","65cb9e5b65630107b7fbb44b","6617fad957f7c6a12ea16e26","6622ccc3febdbed9ad279717","fixation cross","null","","","","","","","","","","","",""
"","1752","html-keyboard-response","212","307487","0.0-13.0-1.0","mlJvFaZ9w4","65cb9e5b65630107b7fbb44b","6617fad957f7c6a12ea16e26","6622ccc3febdbed9ad279717","image grid","q","","","","","Ontogenetic_Distractor_Threat_target","ongrid","2500","q","5","Ontogenetic","true","experimental"
"","null","html-keyboard-response","213","307639","0.0-13.0-2.0","mlJvFaZ9w4","65cb9e5b65630107b7fbb44b","6617fad957f7c6a12ea16e26","6622ccc3febdbed9ad279717","
    <div id=""grid-container"">
        <!-- Grid items will be dynamically added here -->
    </div>    ","null","","","","","","","","","","","",""
"","null","html-keyboard-response","214","308342","0.0-13.0-0.1","mlJvFaZ9w4","65cb9e5b65630107b7fbb44b","6617fad957f7c6a12ea16e26","6622ccc3febdbed9ad279717","fixation cross","null","","","","","","","","","","","",""
"","1427","html-keyboard-response","215","309770","0.0-13.0-1.1","mlJvFaZ9w4","65cb9e5b65630107b7fbb44b","6617fad957f7c6a12ea16e26","6622ccc3febdbed9ad279717","image grid","q","","","","","Ontogenetic_Distractor_Threat_target","ongrid","2500","q","3","Ontogenetic","true","experimental"
"","null","html-keyboard-response","216","309922","0.0-13.0-2.1","mlJvFaZ9w4","65cb9e5b65630107b7fbb44b","6617fad957f7c6a12ea16e26","6622ccc3febdbed9ad279717","
    <div id=""grid-container"">
        <!-- Grid items will be dynamically added here -->
    </div>    ","null","","","","","","","","","","","",""
"","null","html-keyboard-response","217","310626","0.0-13.0-0.2","mlJvFaZ9w4","65cb9e5b65630107b7fbb44b","6617fad957f7c6a12ea16e26","6622ccc3febdbed9ad279717","fixation cross","null","","","","","","","","","","","",""
"","922","html-keyboard-response","218","311549","0.0-13.0-1.2","mlJvFaZ9w4","65cb9e5b65630107b7fbb44b","6617fad957f7c6a12ea16e26","6622ccc3febdbed9ad279717","image grid","q","","","","","Ontogenetic_Distractor_Threat_target","ongrid","2500","q","2","Ontogenetic","true","experimental"
"","null","html-keyboard-response","219","311702","0.0-13.0-2.2","mlJvFaZ9w4","65cb9e5b65630107b7fbb44b","6617fad957f7c6a12ea16e26","6622ccc3febdbed9ad279717","
    <div id=""grid-container"">
        <!-- Grid items will be dynamically added here -->
    </div>    ","null","","","","","","","","","","","",""
"","null","html-keyboard-response","220","312406","0.0-13.0-0.3","mlJvFaZ9w4","65cb9e5b65630107b7fbb44b","6617fad957f7c6a12ea16e26","6622ccc3febdbed9ad279717","fixation cross","null","","","","","","","","","","","",""
"","1027","html-keyboard-response","221","313434","0.0-13.0-1.3","mlJvFaZ9w4","65cb9e5b65630107b7fbb44b","6617fad957f7c6a12ea16e26","6622ccc3febdbed9ad279717","image grid","p","","","","","Ontogenetic_Distractor_Nonthreat_target","ongrid","2500","p","1","Ontogenetic","true","experimental"
"","null","html-keyboard-response","222","313588","0.0-13.0-2.3","mlJvFaZ9w4","65cb9e5b65630107b7fbb44b","6617fad957f7c6a12ea16e26","6622ccc3febdbed9ad279717","
    <div id=""grid-container"">
        <!-- Grid items will be dynamically added here -->
    </div>    ","null","","","","","","","","","","","",""
"","null","html-keyboard-response","223","314292","0.0-13.0-0.4","mlJvFaZ9w4","65cb9e5b65630107b7fbb44b","6617fad957f7c6a12ea16e26","6622ccc3febdbed9ad279717","fixation cross","null","","","","","","","","","","","",""
"","1137","html-keyboard-response","224","315430","0.0-13.0-1.4","mlJvFaZ9w4","65cb9e5b65630107b7fbb44b","6617fad957f7c6a12ea16e26","6622ccc3febdbed9ad279717","image grid","p","","","","","Ontogenetic_Distractor_Nonthreat_target","ongrid","2500","p","1","Ontogenetic","true","experimental"
"","null","html-keyboard-response","225","315583","0.0-13.0-2.4","mlJvFaZ9w4","65cb9e5b65630107b7fbb44b","6617fad957f7c6a12ea16e26","6622ccc3febdbed9ad279717","
    <div id=""grid-container"">
        <!-- Grid items will be dynamically added here -->
    </div>    ","null","","","","","","","","","","","",""
"","null","html-keyboard-response","226","316287","0.0-13.0-0.5","mlJvFaZ9w4","65cb9e5b65630107b7fbb44b","6617fad957f7c6a12ea16e26","6622ccc3febdbed9ad279717","fixation cross","null","","","","","","","","","","","",""
"","1081","html-keyboard-response","227","317369","0.0-13.0-1.5","mlJvFaZ9w4","65cb9e5b65630107b7fbb44b","6617fad957f7c6a12ea16e26","6622ccc3febdbed9ad279717","image grid","p","","","","","Ontogenetic_Distractor_Nonthreat_target","ongrid","2500","p","3","Ontogenetic","true","experimental"
"","null","html-keyboard-response","228","317522","0.0-13.0-2.5","mlJvFaZ9w4","65cb9e5b65630107b7fbb44b","6617fad957f7c6a12ea16e26","6622ccc3febdbed9ad279717","
    <div id=""grid-container"">
        <!-- Grid items will be dynamically added here -->
    </div>    ","null","","","","","","","","","","","",""
"","null","html-keyboard-response","229","318226","0.0-13.0-0.6","mlJvFaZ9w4","65cb9e5b65630107b7fbb44b","6617fad957f7c6a12ea16e26","6622ccc3febdbed9ad279717","fixation cross","null","","","","","","","","","","","",""
"","1848","html-keyboard-response","230","320075","0.0-13.0-1.6","mlJvFaZ9w4","65cb9e5b65630107b7fbb44b","6617fad957f7c6a12ea16e26","6622ccc3febdbed9ad279717","image grid","p","","","","","Ontogenetic_Distractor_Nonthreat_target","ongrid","2500","p","5","Ontogenetic","true","experimental"
"","null","html-keyboard-response","231","320227","0.0-13.0-2.6","mlJvFaZ9w4","65cb9e5b65630107b7fbb44b","6617fad957f7c6a12ea16e26","6622ccc3febdbed9ad279717","
    <div id=""grid-container"">
        <!-- Grid items will be dynamically added here -->
    </div>    ","null","","","","","","","","","","","",""
"","null","html-keyboard-response","232","320932","0.0-13.0-0.7","mlJvFaZ9w4","65cb9e5b65630107b7fbb44b","6617fad957f7c6a12ea16e26","6622ccc3febdbed9ad279717","fixation cross","null","","","","","","","","","","","",""
"","1059","html-keyboard-response","233","321992","0.0-13.0-1.7","mlJvFaZ9w4","65cb9e5b65630107b7fbb44b","6617fad957f7c6a12ea16e26","6622ccc3febdbed9ad279717","image grid","q","","","","","Ontogenetic_Distractor_Threat_target","ongrid","2500","q","6","Ontogenetic","true","experimental"
"","null","html-keyboard-response","234","322144","0.0-13.0-2.7","mlJvFaZ9w4","65cb9e5b65630107b7fbb44b","6617fad957f7c6a12ea16e26","6622ccc3febdbed9ad279717","
    <div id=""grid-container"">
        <!-- Grid items will be dynamically added here -->
    </div>    ","null","","","","","","","","","","","",""
"","null","html-keyboard-response","235","322848","0.0-13.0-0.8","mlJvFaZ9w4","65cb9e5b65630107b7fbb44b","6617fad957f7c6a12ea16e26","6622ccc3febdbed9ad279717","fixation cross","null","","","","","","","","","","","",""
"","904","html-keyboard-response","236","323753","0.0-13.0-1.8","mlJvFaZ9w4","65cb9e5b65630107b7fbb44b","6617fad957f7c6a12ea16e26","6622ccc3febdbed9ad279717","image grid","p","","","","","Ontogenetic_Distractor_Nonthreat_target","ongrid","2500","p","1","Ontogenetic","true","experimental"
"","null","html-keyboard-response","237","323905","0.0-13.0-2.8","mlJvFaZ9w4","65cb9e5b65630107b7fbb44b","6617fad957f7c6a12ea16e26","6622ccc3febdbed9ad279717","
    <div id=""grid-container"">
        <!-- Grid items will be dynamically added here -->
    </div>    ","null","","","","","","","","","","","",""
"","null","html-keyboard-response","238","324609","0.0-13.0-0.9","mlJvFaZ9w4","65cb9e5b65630107b7fbb44b","6617fad957f7c6a12ea16e26","6622ccc3febdbed9ad279717","fixation cross","null","","","","","","","","","","","",""
"","1119","html-keyboard-response","239","325728","0.0-13.0-1.9","mlJvFaZ9w4","65cb9e5b65630107b7fbb44b","6617fad957f7c6a12ea16e26","6622ccc3febdbed9ad279717","image grid","q","","","","","Ontogenetic_Distractor_Threat_target","ongrid","2500","q","3","Ontogenetic","true","experimental"
"","null","html-keyboard-response","240","325881","0.0-13.0-2.9","mlJvFaZ9w4","65cb9e5b65630107b7fbb44b","6617fad957f7c6a12ea16e26","6622ccc3febdbed9ad279717","
    <div id=""grid-container"">
        <!-- Grid items will be dynamically added here -->
    </div>    ","null","","","","","","","","","","","",""
"","null","html-keyboard-response","241","326585","0.0-13.0-0.10","mlJvFaZ9w4","65cb9e5b65630107b7fbb44b","6617fad957f7c6a12ea16e26","6622ccc3febdbed9ad279717","fixation cross","null","","","","","","","","","","","",""
"","1028","html-keyboard-response","242","327614","0.0-13.0-1.10","mlJvFaZ9w4","65cb9e5b65630107b7fbb44b","6617fad957f7c6a12ea16e26","6622ccc3febdbed9ad279717","image grid","q","","","","","Ontogenetic_Distractor_Threat_target","ongrid","2500","q","1","Ontogenetic","true","experimental"
"","null","html-keyboard-response","243","327767","0.0-13.0-2.10","mlJvFaZ9w4","65cb9e5b65630107b7fbb44b","6617fad957f7c6a12ea16e26","6622ccc3febdbed9ad279717","
    <div id=""grid-container"">
        <!-- Grid items will be dynamically added here -->
    </div>    ","null","","","","","","","","","","","",""
"","null","html-keyboard-response","244","328471","0.0-13.0-0.11","mlJvFaZ9w4","65cb9e5b65630107b7fbb44b","6617fad957f7c6a12ea16e26","6622ccc3febdbed9ad279717","fixation cross","null","","","","","","","","","","","",""
"","2110","html-keyboard-response","245","330581","0.0-13.0-1.11","mlJvFaZ9w4","65cb9e5b65630107b7fbb44b","6617fad957f7c6a12ea16e26","6622ccc3febdbed9ad279717","image grid","p","","","","","Ontogenetic_Distractor_Nonthreat_target","ongrid","2500","p","4","Ontogenetic","true","experimental"
"","null","html-keyboard-response","246","330735","0.0-13.0-2.11","mlJvFaZ9w4","65cb9e5b65630107b7fbb44b","6617fad957f7c6a12ea16e26","6622ccc3febdbed9ad279717","
    <div id=""grid-container"">
        <!-- Grid items will be dynamically added here -->
    </div>    ","null","","","","","","","","","","","",""
"","null","html-keyboard-response","247","331439","0.0-13.0-0.12","mlJvFaZ9w4","65cb9e5b65630107b7fbb44b","6617fad957f7c6a12ea16e26","6622ccc3febdbed9ad279717","fixation cross","null","","","","","","","","","","","",""
"","1283","html-keyboard-response","248","332723","0.0-13.0-1.12","mlJvFaZ9w4","65cb9e5b65630107b7fbb44b","6617fad957f7c6a12ea16e26","6622ccc3febdbed9ad279717","image grid","q","","","","","Ontogenetic_Distractor_Threat_target","ongrid","2500","q","6","Ontogenetic","true","experimental"
"","null","html-keyboard-response","249","332875","0.0-13.0-2.12","mlJvFaZ9w4","65cb9e5b65630107b7fbb44b","6617fad957f7c6a12ea16e26","6622ccc3febdbed9ad279717","
    <div id=""grid-container"">
        <!-- Grid items will be dynamically added here -->
    </div>    ","null","","","","","","","","","","","",""
"","null","html-keyboard-response","250","333580","0.0-13.0-0.13","mlJvFaZ9w4","65cb9e5b65630107b7fbb44b","6617fad957f7c6a12ea16e26","6622ccc3febdbed9ad279717","fixation cross","null","","","","","","","","","","","",""
"","2347","html-keyboard-response","251","335928","0.0-13.0-1.13","mlJvFaZ9w4","65cb9e5b65630107b7fbb44b","6617fad957f7c6a12ea16e26","6622ccc3febdbed9ad279717","image grid","p","","","","","Ontogenetic_Distractor_Nonthreat_target","ongrid","2500","p","5","Ontogenetic","true","experimental"
"","null","html-keyboard-response","252","336081","0.0-13.0-2.13","mlJvFaZ9w4","65cb9e5b65630107b7fbb44b","6617fad957f7c6a12ea16e26","6622ccc3febdbed9ad279717","
    <div id=""grid-container"">
        <!-- Grid items will be dynamically added here -->
    </div>    ","null","","","","","","","","","","","",""
"","null","html-keyboard-response","253","336784","0.0-13.0-0.14","mlJvFaZ9w4","65cb9e5b65630107b7fbb44b","6617fad957f7c6a12ea16e26","6622ccc3febdbed9ad279717","fixation cross","null","","","","","","","","","","","",""
"","1392","html-keyboard-response","254","338176","0.0-13.0-1.14","mlJvFaZ9w4","65cb9e5b65630107b7fbb44b","6617fad957f7c6a12ea16e26","6622ccc3febdbed9ad279717","image grid","p","","","","","Ontogenetic_Distractor_Nonthreat_target","ongrid","2500","p","9","Ontogenetic","true","experimental"
"","null","html-keyboard-response","255","338329","0.0-13.0-2.14","mlJvFaZ9w4","65cb9e5b65630107b7fbb44b","6617fad957f7c6a12ea16e26","6622ccc3febdbed9ad279717","
    <div id=""grid-container"">
        <!-- Grid items will be dynamically added here -->
    </div>    ","null","","","","","","","","","","","",""
"","null","html-keyboard-response","256","339033","0.0-13.0-0.15","mlJvFaZ9w4","65cb9e5b65630107b7fbb44b","6617fad957f7c6a12ea16e26","6622ccc3febdbed9ad279717","fixation cross","null","","","","","","","","","","","",""
"","1285","html-keyboard-response","257","340318","0.0-13.0-1.15","mlJvFaZ9w4","65cb9e5b65630107b7fbb44b","6617fad957f7c6a12ea16e26","6622ccc3febdbed9ad279717","image grid","q","","","","","Ontogenetic_Distractor_Threat_target","ongrid","2500","q","6","Ontogenetic","true","experimental"
"","null","html-keyboard-response","258","340471","0.0-13.0-2.15","mlJvFaZ9w4","65cb9e5b65630107b7fbb44b","6617fad957f7c6a12ea16e26","6622ccc3febdbed9ad279717","
    <div id=""grid-container"">
        <!-- Grid items will be dynamically added here -->
    </div>    ","null","","","","","","","","","","","",""
"","null","html-keyboard-response","259","341175","0.0-13.0-0.16","mlJvFaZ9w4","65cb9e5b65630107b7fbb44b","6617fad957f7c6a12ea16e26","6622ccc3febdbed9ad279717","fixation cross","null","","","","","","","","","","","",""
"","1376","html-keyboard-response","260","342551","0.0-13.0-1.16","mlJvFaZ9w4","65cb9e5b65630107b7fbb44b","6617fad957f7c6a12ea16e26","6622ccc3febdbed9ad279717","image grid","q","","","","","Ontogenetic_Distractor_Threat_target","ongrid","2500","q","4","Ontogenetic","true","experimental"
"","null","html-keyboard-response","261","342705","0.0-13.0-2.16","mlJvFaZ9w4","65cb9e5b65630107b7fbb44b","6617fad957f7c6a12ea16e26","6622ccc3febdbed9ad279717","
    <div id=""grid-container"">
        <!-- Grid items will be dynamically added here -->
    </div>    ","null","","","","","","","","","","","",""
"","null","html-keyboard-response","262","343408","0.0-13.0-0.17","mlJvFaZ9w4","65cb9e5b65630107b7fbb44b","6617fad957f7c6a12ea16e26","6622ccc3febdbed9ad279717","fixation cross","null","","","","","","","","","","","",""
"","1471","html-keyboard-response","263","344879","0.0-13.0-1.17","mlJvFaZ9w4","65cb9e5b65630107b7fbb44b","6617fad957f7c6a12ea16e26","6622ccc3febdbed9ad279717","image grid","q","","","","","Ontogenetic_Distractor_Threat_target","ongrid","2500","q","5","Ontogenetic","true","experimental"
"","null","html-keyboard-response","264","345032","0.0-13.0-2.17","mlJvFaZ9w4","65cb9e5b65630107b7fbb44b","6617fad957f7c6a12ea16e26","6622ccc3febdbed9ad279717","
    <div id=""grid-container"">
        <!-- Grid items will be dynamically added here -->
    </div>    ","null","","","","","","","","","","","",""
"","null","html-keyboard-response","265","345735","0.0-13.0-0.18","mlJvFaZ9w4","65cb9e5b65630107b7fbb44b","6617fad957f7c6a12ea16e26","6622ccc3febdbed9ad279717","fixation cross","null","","","","","","","","","","","",""
"","2282","html-keyboard-response","266","348018","0.0-13.0-1.18","mlJvFaZ9w4","65cb9e5b65630107b7fbb44b","6617fad957f7c6a12ea16e26","6622ccc3febdbed9ad279717","image grid"," ","","","","","Ontogenetic_Distractor_notarget","ongrid","2500"," ","9","Ontogenetic","true","experimental"
"","null","html-keyboard-response","267","348170","0.0-13.0-2.18","mlJvFaZ9w4","65cb9e5b65630107b7fbb44b","6617fad957f7c6a12ea16e26","6622ccc3febdbed9ad279717","
    <div id=""grid-container"">
        <!-- Grid items will be dynamically added here -->
    </div>    ","null","","","","","","","","","","","",""
"","null","html-keyboard-response","268","348873","0.0-13.0-0.19","mlJvFaZ9w4","65cb9e5b65630107b7fbb44b","6617fad957f7c6a12ea16e26","6622ccc3febdbed9ad279717","fixation cross","null","","","","","","","","","","","",""
"","1733","html-keyboard-response","269","350607","0.0-13.0-1.19","mlJvFaZ9w4","65cb9e5b65630107b7fbb44b","6617fad957f7c6a12ea16e26","6622ccc3febdbed9ad279717","image grid","p","","","","","Ontogenetic_Distractor_Nonthreat_target","ongrid","2500","p","9","Ontogenetic","true","experimental"
"","null","html-keyboard-response","270","350760","0.0-13.0-2.19","mlJvFaZ9w4","65cb9e5b65630107b7fbb44b","6617fad957f7c6a12ea16e26","6622ccc3febdbed9ad279717","
    <div id=""grid-container"">
        <!-- Grid items will be dynamically added here -->
    </div>    ","null","","","","","","","","","","","",""
"","null","html-keyboard-response","271","351463","0.0-13.0-0.20","mlJvFaZ9w4","65cb9e5b65630107b7fbb44b","6617fad957f7c6a12ea16e26","6622ccc3febdbed9ad279717","fixation cross","null","","","","","","","","","","","",""
"","1205","html-keyboard-response","272","352669","0.0-13.0-1.20","mlJvFaZ9w4","65cb9e5b65630107b7fbb44b","6617fad957f7c6a12ea16e26","6622ccc3febdbed9ad279717","image grid","q","","","","","Ontogenetic_Distractor_Threat_target","ongrid","2500","q","3","Ontogenetic","true","experimental"
"","null","html-keyboard-response","273","352821","0.0-13.0-2.20","mlJvFaZ9w4","65cb9e5b65630107b7fbb44b","6617fad957f7c6a12ea16e26","6622ccc3febdbed9ad279717","
    <div id=""grid-container"">
        <!-- Grid items will be dynamically added here -->
    </div>    ","null","","","","","","","","","","","",""
"","null","html-keyboard-response","274","353525","0.0-13.0-0.21","mlJvFaZ9w4","65cb9e5b65630107b7fbb44b","6617fad957f7c6a12ea16e26","6622ccc3febdbed9ad279717","fixation cross","null","","","","","","","","","","","",""
"","2236","html-keyboard-response","275","355762","0.0-13.0-1.21","mlJvFaZ9w4","65cb9e5b65630107b7fbb44b","6617fad957f7c6a12ea16e26","6622ccc3febdbed9ad279717","image grid"," ","","","","","Ontogenetic_Distractor_notarget","ongrid","2500"," ","8","Ontogenetic","true","experimental"
"","null","html-keyboard-response","276","355914","0.0-13.0-2.21","mlJvFaZ9w4","65cb9e5b65630107b7fbb44b","6617fad957f7c6a12ea16e26","6622ccc3febdbed9ad279717","
    <div id=""grid-container"">
        <!-- Grid items will be dynamically added here -->
    </div>    ","null","","","","","","","","","","","",""
"","null","html-keyboard-response","277","356618","0.0-13.0-0.22","mlJvFaZ9w4","65cb9e5b65630107b7fbb44b","6617fad957f7c6a12ea16e26","6622ccc3febdbed9ad279717","fixation cross","null","","","","","","","","","","","",""
"","1208","html-keyboard-response","278","357826","0.0-13.0-1.22","mlJvFaZ9w4","65cb9e5b65630107b7fbb44b","6617fad957f7c6a12ea16e26","6622ccc3febdbed9ad279717","image grid","p","","","","","Ontogenetic_Distractor_Nonthreat_target","ongrid","2500","p","8","Ontogenetic","true","experimental"
"","null","html-keyboard-response","279","357979","0.0-13.0-2.22","mlJvFaZ9w4","65cb9e5b65630107b7fbb44b","6617fad957f7c6a12ea16e26","6622ccc3febdbed9ad279717","
    <div id=""grid-container"">
        <!-- Grid items will be dynamically added here -->
    </div>    ","null","","","","","","","","","","","",""
"","null","html-keyboard-response","280","358683","0.0-13.0-0.23","mlJvFaZ9w4","65cb9e5b65630107b7fbb44b","6617fad957f7c6a12ea16e26","6622ccc3febdbed9ad279717","fixation cross","null","","","","","","","","","","","",""
"","1188","html-keyboard-response","281","359872","0.0-13.0-1.23","mlJvFaZ9w4","65cb9e5b65630107b7fbb44b","6617fad957f7c6a12ea16e26","6622ccc3febdbed9ad279717","image grid","q","","","","","Ontogenetic_Distractor_Threat_target","ongrid","2500","q","9","Ontogenetic","true","experimental"
"","null","html-keyboard-response","282","360025","0.0-13.0-2.23","mlJvFaZ9w4","65cb9e5b65630107b7fbb44b","6617fad957f7c6a12ea16e26","6622ccc3febdbed9ad279717","
    <div id=""grid-container"">
        <!-- Grid items will be dynamically added here -->
    </div>    ","null","","","","","","","","","","","",""
"","null","html-keyboard-response","283","360729","0.0-13.0-0.24","mlJvFaZ9w4","65cb9e5b65630107b7fbb44b","6617fad957f7c6a12ea16e26","6622ccc3febdbed9ad279717","fixation cross","null","","","","","","","","","","","",""
"","1542","html-keyboard-response","284","362272","0.0-13.0-1.24","mlJvFaZ9w4","65cb9e5b65630107b7fbb44b","6617fad957f7c6a12ea16e26","6622ccc3febdbed9ad279717","image grid","p","","","","","Ontogenetic_Distractor_Nonthreat_target","ongrid","2500","p","9","Ontogenetic","true","experimental"
"","null","html-keyboard-response","285","362426","0.0-13.0-2.24","mlJvFaZ9w4","65cb9e5b65630107b7fbb44b","6617fad957f7c6a12ea16e26","6622ccc3febdbed9ad279717","
    <div id=""grid-container"">
        <!-- Grid items will be dynamically added here -->
    </div>    ","null","","","","","","","","","","","",""
"","null","html-keyboard-response","286","363129","0.0-13.0-0.25","mlJvFaZ9w4","65cb9e5b65630107b7fbb44b","6617fad957f7c6a12ea16e26","6622ccc3febdbed9ad279717","fixation cross","null","","","","","","","","","","","",""
"","2496","html-keyboard-response","287","365626","0.0-13.0-1.25","mlJvFaZ9w4","65cb9e5b65630107b7fbb44b","6617fad957f7c6a12ea16e26","6622ccc3febdbed9ad279717","image grid","p","","","","","Ontogenetic_Distractor_Nonthreat_target","ongrid","2500","p","3","Ontogenetic","true","experimental"
"","null","html-keyboard-response","288","365779","0.0-13.0-2.25","mlJvFaZ9w4","65cb9e5b65630107b7fbb44b","6617fad957f7c6a12ea16e26","6622ccc3febdbed9ad279717","
    <div id=""grid-container"">
        <!-- Grid items will be dynamically added here -->
    </div>    ","null","","","","","","","","","","","",""
"","null","html-keyboard-response","289","366482","0.0-13.0-0.26","mlJvFaZ9w4","65cb9e5b65630107b7fbb44b","6617fad957f7c6a12ea16e26","6622ccc3febdbed9ad279717","fixation cross","null","","","","","","","","","","","",""
"","1162","html-keyboard-response","290","367645","0.0-13.0-1.26","mlJvFaZ9w4","65cb9e5b65630107b7fbb44b","6617fad957f7c6a12ea16e26","6622ccc3febdbed9ad279717","image grid","p","","","","","Ontogenetic_Distractor_Nonthreat_target","ongrid","2500","p","7","Ontogenetic","true","experimental"
"","null","html-keyboard-response","291","367798","0.0-13.0-2.26","mlJvFaZ9w4","65cb9e5b65630107b7fbb44b","6617fad957f7c6a12ea16e26","6622ccc3febdbed9ad279717","
    <div id=""grid-container"">
        <!-- Grid items will be dynamically added here -->
    </div>    ","null","","","","","","","","","","","",""
"","null","html-keyboard-response","292","368501","0.0-13.0-0.27","mlJvFaZ9w4","65cb9e5b65630107b7fbb44b","6617fad957f7c6a12ea16e26","6622ccc3febdbed9ad279717","fixation cross","null","","","","","","","","","","","",""
"","1240","html-keyboard-response","293","369741","0.0-13.0-1.27","mlJvFaZ9w4","65cb9e5b65630107b7fbb44b","6617fad957f7c6a12ea16e26","6622ccc3febdbed9ad279717","image grid","q","","","","","Ontogenetic_Distractor_Threat_target","ongrid","2500","q","8","Ontogenetic","true","experimental"
"","null","html-keyboard-response","294","369895","0.0-13.0-2.27","mlJvFaZ9w4","65cb9e5b65630107b7fbb44b","6617fad957f7c6a12ea16e26","6622ccc3febdbed9ad279717","
    <div id=""grid-container"">
        <!-- Grid items will be dynamically added here -->
    </div>    ","null","","","","","","","","","","","",""
"","null","html-keyboard-response","295","370598","0.0-13.0-0.28","mlJvFaZ9w4","65cb9e5b65630107b7fbb44b","6617fad957f7c6a12ea16e26","6622ccc3febdbed9ad279717","fixation cross","null","","","","","","","","","","","",""
"","null","html-keyboard-response","296","373101","0.0-13.0-1.28","mlJvFaZ9w4","65cb9e5b65630107b7fbb44b","6617fad957f7c6a12ea16e26","6622ccc3febdbed9ad279717","
        <div id=""grid-container"">
        <!-- Grid items will be dynamically added here -->
    </div>    ","null","","","","","","","","","","","",""
"","5756","html-keyboard-response","297","376359","0.0-13.0-2.28","mlJvFaZ9w4","65cb9e5b65630107b7fbb44b","6617fad957f7c6a12ea16e26","6622ccc3febdbed9ad279717","mask grid"," ","","","","","Ontogenetic_Distractor_notarget","onmask","2500"," ","9","Ontogenetic","true","experimental"
"","null","html-keyboard-response","298","377064","0.0-13.0-0.29","mlJvFaZ9w4","65cb9e5b65630107b7fbb44b","6617fad957f7c6a12ea16e26","6622ccc3febdbed9ad279717","fixation cross","null","","","","","","","","","","","",""
"","1030","html-keyboard-response","299","378095","0.0-13.0-1.29","mlJvFaZ9w4","65cb9e5b65630107b7fbb44b","6617fad957f7c6a12ea16e26","6622ccc3febdbed9ad279717","image grid","q","","","","","Ontogenetic_Distractor_Threat_target","ongrid","2500","q","3","Ontogenetic","true","experimental"
"","null","html-keyboard-response","300","378248","0.0-13.0-2.29","mlJvFaZ9w4","65cb9e5b65630107b7fbb44b","6617fad957f7c6a12ea16e26","6622ccc3febdbed9ad279717","
    <div id=""grid-container"">
        <!-- Grid items will be dynamically added here -->
    </div>    ","null","","","","","","","","","","","",""
"","null","html-keyboard-response","301","378952","0.0-13.0-0.30","mlJvFaZ9w4","65cb9e5b65630107b7fbb44b","6617fad957f7c6a12ea16e26","6622ccc3febdbed9ad279717","fixation cross","null","","","","","","","","","","","",""
"","853","html-keyboard-response","302","379806","0.0-13.0-1.30","mlJvFaZ9w4","65cb9e5b65630107b7fbb44b","6617fad957f7c6a12ea16e26","6622ccc3febdbed9ad279717","image grid","q","","","","","Ontogenetic_Distractor_Threat_target","ongrid","2500","q","1","Ontogenetic","true","experimental"
"","null","html-keyboard-response","303","379959","0.0-13.0-2.30","mlJvFaZ9w4","65cb9e5b65630107b7fbb44b","6617fad957f7c6a12ea16e26","6622ccc3febdbed9ad279717","
    <div id=""grid-container"">
        <!-- Grid items will be dynamically added here -->
    </div>    ","null","","","","","","","","","","","",""
"","null","html-keyboard-response","304","380663","0.0-13.0-0.31","mlJvFaZ9w4","65cb9e5b65630107b7fbb44b","6617fad957f7c6a12ea16e26","6622ccc3febdbed9ad279717","fixation cross","null","","","","","","","","","","","",""
"","1089","html-keyboard-response","305","381753","0.0-13.0-1.31","mlJvFaZ9w4","65cb9e5b65630107b7fbb44b","6617fad957f7c6a12ea16e26","6622ccc3febdbed9ad279717","image grid","p","","","","","Ontogenetic_Distractor_Nonthreat_target","ongrid","2500","p","3","Ontogenetic","true","experimental"
"","null","html-keyboard-response","306","381907","0.0-13.0-2.31","mlJvFaZ9w4","65cb9e5b65630107b7fbb44b","6617fad957f7c6a12ea16e26","6622ccc3febdbed9ad279717","
    <div id=""grid-container"">
        <!-- Grid items will be dynamically added here -->
    </div>    ","null","","","","","","","","","","","",""
"","null","html-keyboard-response","307","382611","0.0-13.0-0.32","mlJvFaZ9w4","65cb9e5b65630107b7fbb44b","6617fad957f7c6a12ea16e26","6622ccc3febdbed9ad279717","fixation cross","null","","","","","","","","","","","",""
"","847","html-keyboard-response","308","383459","0.0-13.0-1.32","mlJvFaZ9w4","65cb9e5b65630107b7fbb44b","6617fad957f7c6a12ea16e26","6622ccc3febdbed9ad279717","image grid","p","","","","","Ontogenetic_Distractor_Nonthreat_target","ongrid","2500","p","7","Ontogenetic","true","experimental"
"","null","html-keyboard-response","309","383612","0.0-13.0-2.32","mlJvFaZ9w4","65cb9e5b65630107b7fbb44b","6617fad957f7c6a12ea16e26","6622ccc3febdbed9ad279717","
    <div id=""grid-container"">
        <!-- Grid items will be dynamically added here -->
    </div>    ","null","","","","","","","","","","","",""
"","null","html-keyboard-response","310","384315","0.0-13.0-0.33","mlJvFaZ9w4","65cb9e5b65630107b7fbb44b","6617fad957f7c6a12ea16e26","6622ccc3febdbed9ad279717","fixation cross","null","","","","","","","","","","","",""
"","1099","html-keyboard-response","311","385414","0.0-13.0-1.33","mlJvFaZ9w4","65cb9e5b65630107b7fbb44b","6617fad957f7c6a12ea16e26","6622ccc3febdbed9ad279717","image grid","p","","","","","Ontogenetic_Distractor_notarget","ongrid","2500"," ","6","Ontogenetic","false","experimental"
"","null","html-keyboard-response","312","385568","0.0-13.0-2.33","mlJvFaZ9w4","65cb9e5b65630107b7fbb44b","6617fad957f7c6a12ea16e26","6622ccc3febdbed9ad279717","
    <div id=""grid-container"">
        <!-- Grid items will be dynamically added here -->
    </div>    ","null","","","","","","","","","","","",""
"","null","html-keyboard-response","313","386272","0.0-13.0-0.34","mlJvFaZ9w4","65cb9e5b65630107b7fbb44b","6617fad957f7c6a12ea16e26","6622ccc3febdbed9ad279717","fixation cross","null","","","","","","","","","","","",""
"","1125","html-keyboard-response","314","387398","0.0-13.0-1.34","mlJvFaZ9w4","65cb9e5b65630107b7fbb44b","6617fad957f7c6a12ea16e26","6622ccc3febdbed9ad279717","image grid","p","","","","","Ontogenetic_Distractor_Nonthreat_target","ongrid","2500","p","6","Ontogenetic","true","experimental"
"","null","html-keyboard-response","315","387551","0.0-13.0-2.34","mlJvFaZ9w4","65cb9e5b65630107b7fbb44b","6617fad957f7c6a12ea16e26","6622ccc3febdbed9ad279717","
    <div id=""grid-container"">
        <!-- Grid items will be dynamically added here -->
    </div>    ","null","","","","","","","","","","","",""
"","null","html-keyboard-response","316","388255","0.0-13.0-0.35","mlJvFaZ9w4","65cb9e5b65630107b7fbb44b","6617fad957f7c6a12ea16e26","6622ccc3febdbed9ad279717","fixation cross","null","","","","","","","","","","","",""
"","977","html-keyboard-response","317","389233","0.0-13.0-1.35","mlJvFaZ9w4","65cb9e5b65630107b7fbb44b","6617fad957f7c6a12ea16e26","6622ccc3febdbed9ad279717","image grid","p","","","","","Ontogenetic_Distractor_Nonthreat_target","ongrid","2500","p","4","Ontogenetic","true","experimental"
"","null","html-keyboard-response","318","389386","0.0-13.0-2.35","mlJvFaZ9w4","65cb9e5b65630107b7fbb44b","6617fad957f7c6a12ea16e26","6622ccc3febdbed9ad279717","
    <div id=""grid-container"">
        <!-- Grid items will be dynamically added here -->
    </div>    ","null","","","","","","","","","","","",""
"","null","html-keyboard-response","319","390089","0.0-13.0-0.36","mlJvFaZ9w4","65cb9e5b65630107b7fbb44b","6617fad957f7c6a12ea16e26","6622ccc3febdbed9ad279717","fixation cross","null","","","","","","","","","","","",""
"","1041","html-keyboard-response","320","391131","0.0-13.0-1.36","mlJvFaZ9w4","65cb9e5b65630107b7fbb44b","6617fad957f7c6a12ea16e26","6622ccc3febdbed9ad279717","image grid","q","","","","","Ontogenetic_Distractor_Threat_target","ongrid","2500","q","8","Ontogenetic","true","experimental"
"","null","html-keyboard-response","321","391284","0.0-13.0-2.36","mlJvFaZ9w4","65cb9e5b65630107b7fbb44b","6617fad957f7c6a12ea16e26","6622ccc3febdbed9ad279717","
    <div id=""grid-container"">
        <!-- Grid items will be dynamically added here -->
    </div>    ","null","","","","","","","","","","","",""
"","null","html-keyboard-response","322","391988","0.0-13.0-0.37","mlJvFaZ9w4","65cb9e5b65630107b7fbb44b","6617fad957f7c6a12ea16e26","6622ccc3febdbed9ad279717","fixation cross","null","","","","","","","","","","","",""
"","645","html-keyboard-response","323","392634","0.0-13.0-1.37","mlJvFaZ9w4","65cb9e5b65630107b7fbb44b","6617fad957f7c6a12ea16e26","6622ccc3febdbed9ad279717","image grid","q","","","","","Ontogenetic_Distractor_Threat_target","ongrid","2500","q","5","Ontogenetic","true","experimental"
"","null","html-keyboard-response","324","392787","0.0-13.0-2.37","mlJvFaZ9w4","65cb9e5b65630107b7fbb44b","6617fad957f7c6a12ea16e26","6622ccc3febdbed9ad279717","
    <div id=""grid-container"">
        <!-- Grid items will be dynamically added here -->
    </div>    ","null","","","","","","","","","","","",""
"","null","html-keyboard-response","325","393491","0.0-13.0-0.38","mlJvFaZ9w4","65cb9e5b65630107b7fbb44b","6617fad957f7c6a12ea16e26","6622ccc3febdbed9ad279717","fixation cross","null","","","","","","","","","","","",""
"","1523","html-keyboard-response","326","395015","0.0-13.0-1.38","mlJvFaZ9w4","65cb9e5b65630107b7fbb44b","6617fad957f7c6a12ea16e26","6622ccc3febdbed9ad279717","image grid","p","","","","","Ontogenetic_Distractor_Nonthreat_target","ongrid","2500","p","2","Ontogenetic","true","experimental"
"","null","html-keyboard-response","327","395168","0.0-13.0-2.38","mlJvFaZ9w4","65cb9e5b65630107b7fbb44b","6617fad957f7c6a12ea16e26","6622ccc3febdbed9ad279717","
    <div id=""grid-container"">
        <!-- Grid items will be dynamically added here -->
    </div>    ","null","","","","","","","","","","","",""
"","null","html-keyboard-response","328","395872","0.0-13.0-0.39","mlJvFaZ9w4","65cb9e5b65630107b7fbb44b","6617fad957f7c6a12ea16e26","6622ccc3febdbed9ad279717","fixation cross","null","","","","","","","","","","","",""
"","1682","html-keyboard-response","329","397554","0.0-13.0-1.39","mlJvFaZ9w4","65cb9e5b65630107b7fbb44b","6617fad957f7c6a12ea16e26","6622ccc3febdbed9ad279717","image grid","q","","","","","Ontogenetic_Distractor_Threat_target","ongrid","2500","q","6","Ontogenetic","true","experimental"
"","null","html-keyboard-response","330","397707","0.0-13.0-2.39","mlJvFaZ9w4","65cb9e5b65630107b7fbb44b","6617fad957f7c6a12ea16e26","6622ccc3febdbed9ad279717","
    <div id=""grid-container"">
        <!-- Grid items will be dynamically added here -->
    </div>    ","null","","","","","","","","","","","",""
"","167129","html-keyboard-response","331","565041","0.0-14.0","mlJvFaZ9w4","65cb9e5b65630107b7fbb44b","6617fad957f7c6a12ea16e26","6622ccc3febdbed9ad279717","break screen"," ","","","","","","","","","","","",""
"","null","html-keyboard-response","332","567545","0.0-15.0-0.0","mlJvFaZ9w4","65cb9e5b65630107b7fbb44b","6617fad957f7c6a12ea16e26","6622ccc3febdbed9ad279717","fixation cross","null","","","","","","","","","","","",""
"","null","html-keyboard-response","333","568348","0.0-15.0-1.0","mlJvFaZ9w4","65cb9e5b65630107b7fbb44b","6617fad957f7c6a12ea16e26","6622ccc3febdbed9ad279717","
        <div id=""grid-container"">
        <!-- Grid items will be dynamically added here -->
    </div>    ","null","","","","","","","","","","","",""
"","1050","html-keyboard-response","334","568600","0.0-15.0-2.0","mlJvFaZ9w4","65cb9e5b65630107b7fbb44b","6617fad957f7c6a12ea16e26","6622ccc3febdbed9ad279717","mask grid","q","","","","","Phylogenetic_Distractor_Threat_target","onmask","800","q","6","Phylogenetic","true","experimental"
"","null","html-keyboard-response","335","569305","0.0-15.0-0.1","mlJvFaZ9w4","65cb9e5b65630107b7fbb44b","6617fad957f7c6a12ea16e26","6622ccc3febdbed9ad279717","fixation cross","null","","","","","","","","","","","",""
"","null","html-keyboard-response","336","570107","0.0-15.0-1.1","mlJvFaZ9w4","65cb9e5b65630107b7fbb44b","6617fad957f7c6a12ea16e26","6622ccc3febdbed9ad279717","
        <div id=""grid-container"">
        <!-- Grid items will be dynamically added here -->
    </div>    ","null","","","","","","","","","","","",""
"","992","html-keyboard-response","337","570300","0.0-15.0-2.1","mlJvFaZ9w4","65cb9e5b65630107b7fbb44b","6617fad957f7c6a12ea16e26","6622ccc3febdbed9ad279717","mask grid"," ","","","","","Phylogenetic_Distractor_Nonthreat_target","onmask","800","p","4","Phylogenetic","false","experimental"
"","null","html-keyboard-response","338","571004","0.0-15.0-0.2","mlJvFaZ9w4","65cb9e5b65630107b7fbb44b","6617fad957f7c6a12ea16e26","6622ccc3febdbed9ad279717","fixation cross","null","","","","","","","","","","","",""
"","null","html-keyboard-response","339","571807","0.0-15.0-1.2","mlJvFaZ9w4","65cb9e5b65630107b7fbb44b","6617fad957f7c6a12ea16e26","6622ccc3febdbed9ad279717","
        <div id=""grid-container"">
        <!-- Grid items will be dynamically added here -->
    </div>    ","null","","","","","","","","","","","",""
"","897","html-keyboard-response","340","571904","0.0-15.0-2.2","mlJvFaZ9w4","65cb9e5b65630107b7fbb44b","6617fad957f7c6a12ea16e26","6622ccc3febdbed9ad279717","mask grid","p","","","","","Phylogenetic_Distractor_Threat_target","onmask","800","q","3","Phylogenetic","false","experimental"
"","null","html-keyboard-response","341","572609","0.0-15.0-0.3","mlJvFaZ9w4","65cb9e5b65630107b7fbb44b","6617fad957f7c6a12ea16e26","6622ccc3febdbed9ad279717","fixation cross","null","","","","","","","","","","","",""
"","526","html-keyboard-response","342","573136","0.0-15.0-1.3","mlJvFaZ9w4","65cb9e5b65630107b7fbb44b","6617fad957f7c6a12ea16e26","6622ccc3febdbed9ad279717","image grid","p","","","","","Phylogenetic_Distractor_Nonthreat_target","ongrid","800","p","9","Phylogenetic","true","experimental"
"","null","html-keyboard-response","343","573289","0.0-15.0-2.3","mlJvFaZ9w4","65cb9e5b65630107b7fbb44b","6617fad957f7c6a12ea16e26","6622ccc3febdbed9ad279717","
    <div id=""grid-container"">
        <!-- Grid items will be dynamically added here -->
    </div>    ","null","","","","","","","","","","","",""
"","null","html-keyboard-response","344","573993","0.0-15.0-0.4","mlJvFaZ9w4","65cb9e5b65630107b7fbb44b","6617fad957f7c6a12ea16e26","6622ccc3febdbed9ad279717","fixation cross","null","","","","","","","","","","","",""
"","577","html-keyboard-response","345","574571","0.0-15.0-1.4","mlJvFaZ9w4","65cb9e5b65630107b7fbb44b","6617fad957f7c6a12ea16e26","6622ccc3febdbed9ad279717","image grid","q","","","","","Phylogenetic_Distractor_Threat_target","ongrid","800","q","4","Phylogenetic","true","experimental"
"","null","html-keyboard-response","346","574724","0.0-15.0-2.4","mlJvFaZ9w4","65cb9e5b65630107b7fbb44b","6617fad957f7c6a12ea16e26","6622ccc3febdbed9ad279717","
    <div id=""grid-container"">
        <!-- Grid items will be dynamically added here -->
    </div>    ","null","","","","","","","","","","","",""
"","null","html-keyboard-response","347","575428","0.0-15.0-0.5","mlJvFaZ9w4","65cb9e5b65630107b7fbb44b","6617fad957f7c6a12ea16e26","6622ccc3febdbed9ad279717","fixation cross","null","","","","","","","","","","","",""
"","620","html-keyboard-response","348","576049","0.0-15.0-1.5","mlJvFaZ9w4","65cb9e5b65630107b7fbb44b","6617fad957f7c6a12ea16e26","6622ccc3febdbed9ad279717","image grid","q","","","","","Phylogenetic_Distractor_Threat_target","ongrid","800","q","4","Phylogenetic","true","experimental"
"","null","html-keyboard-response","349","576202","0.0-15.0-2.5","mlJvFaZ9w4","65cb9e5b65630107b7fbb44b","6617fad957f7c6a12ea16e26","6622ccc3febdbed9ad279717","
    <div id=""grid-container"">
        <!-- Grid items will be dynamically added here -->
    </div>    ","null","","","","","","","","","","","",""
"","null","html-keyboard-response","350","576906","0.0-15.0-0.6","mlJvFaZ9w4","65cb9e5b65630107b7fbb44b","6617fad957f7c6a12ea16e26","6622ccc3febdbed9ad279717","fixation cross","null","","","","","","","","","","","",""
"","715","html-keyboard-response","351","577622","0.0-15.0-1.6","mlJvFaZ9w4","65cb9e5b65630107b7fbb44b","6617fad957f7c6a12ea16e26","6622ccc3febdbed9ad279717","image grid","p","","","","","Phylogenetic_Distractor_Nonthreat_target","ongrid","800","p","7","Phylogenetic","true","experimental"
"","null","html-keyboard-response","352","577775","0.0-15.0-2.6","mlJvFaZ9w4","65cb9e5b65630107b7fbb44b","6617fad957f7c6a12ea16e26","6622ccc3febdbed9ad279717","
    <div id=""grid-container"">
        <!-- Grid items will be dynamically added here -->
    </div>    ","null","","","","","","","","","","","",""
"","null","html-keyboard-response","353","578479","0.0-15.0-0.7","mlJvFaZ9w4","65cb9e5b65630107b7fbb44b","6617fad957f7c6a12ea16e26","6622ccc3febdbed9ad279717","fixation cross","null","","","","","","","","","","","",""
"","651","html-keyboard-response","354","579131","0.0-15.0-1.7","mlJvFaZ9w4","65cb9e5b65630107b7fbb44b","6617fad957f7c6a12ea16e26","6622ccc3febdbed9ad279717","image grid"," ","","","","","Phylogenetic_Distractor_Threat_target","ongrid","800","q","3","Phylogenetic","false","experimental"
"","null","html-keyboard-response","355","579285","0.0-15.0-2.7","mlJvFaZ9w4","65cb9e5b65630107b7fbb44b","6617fad957f7c6a12ea16e26","6622ccc3febdbed9ad279717","
    <div id=""grid-container"">
        <!-- Grid items will be dynamically added here -->
    </div>    ","null","","","","","","","","","","","",""
"","null","html-keyboard-response","356","579989","0.0-15.0-0.8","mlJvFaZ9w4","65cb9e5b65630107b7fbb44b","6617fad957f7c6a12ea16e26","6622ccc3febdbed9ad279717","fixation cross","null","","","","","","","","","","","",""
"","583","html-keyboard-response","357","580572","0.0-15.0-1.8","mlJvFaZ9w4","65cb9e5b65630107b7fbb44b","6617fad957f7c6a12ea16e26","6622ccc3febdbed9ad279717","image grid","q","","","","","Phylogenetic_Distractor_Threat_target","ongrid","800","q","9","Phylogenetic","true","experimental"
"","null","html-keyboard-response","358","580725","0.0-15.0-2.8","mlJvFaZ9w4","65cb9e5b65630107b7fbb44b","6617fad957f7c6a12ea16e26","6622ccc3febdbed9ad279717","
    <div id=""grid-container"">
        <!-- Grid items will be dynamically added here -->
    </div>    ","null","","","","","","","","","","","",""
"","null","html-keyboard-response","359","581430","0.0-15.0-0.9","mlJvFaZ9w4","65cb9e5b65630107b7fbb44b","6617fad957f7c6a12ea16e26","6622ccc3febdbed9ad279717","fixation cross","null","","","","","","","","","","","",""
"","453","html-keyboard-response","360","581883","0.0-15.0-1.9","mlJvFaZ9w4","65cb9e5b65630107b7fbb44b","6617fad957f7c6a12ea16e26","6622ccc3febdbed9ad279717","image grid","q","","","","","Phylogenetic_Distractor_Threat_target","ongrid","800","q","1","Phylogenetic","true","experimental"
"","null","html-keyboard-response","361","582036","0.0-15.0-2.9","mlJvFaZ9w4","65cb9e5b65630107b7fbb44b","6617fad957f7c6a12ea16e26","6622ccc3febdbed9ad279717","
    <div id=""grid-container"">
        <!-- Grid items will be dynamically added here -->
    </div>    ","null","","","","","","","","","","","",""
"","null","html-keyboard-response","362","582740","0.0-15.0-0.10","mlJvFaZ9w4","65cb9e5b65630107b7fbb44b","6617fad957f7c6a12ea16e26","6622ccc3febdbed9ad279717","fixation cross","null","","","","","","","","","","","",""
"","550","html-keyboard-response","363","583291","0.0-15.0-1.10","mlJvFaZ9w4","65cb9e5b65630107b7fbb44b","6617fad957f7c6a12ea16e26","6622ccc3febdbed9ad279717","image grid","q","","","","","Phylogenetic_Distractor_Threat_target","ongrid","800","q","6","Phylogenetic","true","experimental"
"","null","html-keyboard-response","364","583444","0.0-15.0-2.10","mlJvFaZ9w4","65cb9e5b65630107b7fbb44b","6617fad957f7c6a12ea16e26","6622ccc3febdbed9ad279717","
    <div id=""grid-container"">
        <!-- Grid items will be dynamically added here -->
    </div>    ","null","","","","","","","","","","","",""
"","null","html-keyboard-response","365","584147","0.0-15.0-0.11","mlJvFaZ9w4","65cb9e5b65630107b7fbb44b","6617fad957f7c6a12ea16e26","6622ccc3febdbed9ad279717","fixation cross","null","","","","","","","","","","","",""
"","737","html-keyboard-response","366","584885","0.0-15.0-1.11","mlJvFaZ9w4","65cb9e5b65630107b7fbb44b","6617fad957f7c6a12ea16e26","6622ccc3febdbed9ad279717","image grid","p","","","","","Phylogenetic_Distractor_Nonthreat_target","ongrid","800","p","7","Phylogenetic","true","experimental"
"","null","html-keyboard-response","367","585039","0.0-15.0-2.11","mlJvFaZ9w4","65cb9e5b65630107b7fbb44b","6617fad957f7c6a12ea16e26","6622ccc3febdbed9ad279717","
    <div id=""grid-container"">
        <!-- Grid items will be dynamically added here -->
    </div>    ","null","","","","","","","","","","","",""
"","null","html-keyboard-response","368","585743","0.0-15.0-0.12","mlJvFaZ9w4","65cb9e5b65630107b7fbb44b","6617fad957f7c6a12ea16e26","6622ccc3febdbed9ad279717","fixation cross","null","","","","","","","","","","","",""
"","525","html-keyboard-response","369","586268","0.0-15.0-1.12","mlJvFaZ9w4","65cb9e5b65630107b7fbb44b","6617fad957f7c6a12ea16e26","6622ccc3febdbed9ad279717","image grid","p","","","","","Phylogenetic_Distractor_Nonthreat_target","ongrid","800","p","1","Phylogenetic","true","experimental"
"","null","html-keyboard-response","370","586422","0.0-15.0-2.12","mlJvFaZ9w4","65cb9e5b65630107b7fbb44b","6617fad957f7c6a12ea16e26","6622ccc3febdbed9ad279717","
