"success","rt","trial_type","trial_index","time_elapsed","internal_node_id","unique_identifier","subject_id","study_id","session_id","stimulus","response","timeout","failed_images","failed_audio","failed_video","task","time_manipulation","respondedwhen","correctresponse","targetimagelocation","blocktype","correct","roundtype"
"true","840","fullscreen","0","1850","0.0-0.0","mt7a0Uxg8T","62851efba924ed81f6f0e7f4","6617fad957f7c6a12ea16e26","6622c9d4d394ea6bbdb6e086","","","","","","","","","","","","","",""
"","6180","html-keyboard-response","1","8032","0.0-1.0","mt7a0Uxg8T","62851efba924ed81f6f0e7f4","6617fad957f7c6a12ea16e26","6622c9d4d394ea6bbdb6e086","instruction screen 0"," ","","","","","","","","","","","",""
"true","","preload","2","11424","0.0-2.0","mt7a0Uxg8T","62851efba924ed81f6f0e7f4","6617fad957f7c6a12ea16e26","6622c9d4d394ea6bbdb6e086","","","false","[]","[]","[]","","","","","","","",""
"","5405","html-keyboard-response","3","16830","0.0-3.0","mt7a0Uxg8T","62851efba924ed81f6f0e7f4","6617fad957f7c6a12ea16e26","6622c9d4d394ea6bbdb6e086","instruction screen 1"," ","","","","","","","","","","","",""
"","3550","html-keyboard-response","4","20382","0.0-4.0","mt7a0Uxg8T","62851efba924ed81f6f0e7f4","6617fad957f7c6a12ea16e26","6622c9d4d394ea6bbdb6e086","instruction screen 2","q","","","","","","","","","","","",""
"","2159","html-keyboard-response","5","22543","0.0-5.0","mt7a0Uxg8T","62851efba924ed81f6f0e7f4","6617fad957f7c6a12ea16e26","6622c9d4d394ea6bbdb6e086","instruction screen 3","p","","","","","","","","","","","",""
"","3357","html-keyboard-response","6","25903","0.0-6.0","mt7a0Uxg8T","62851efba924ed81f6f0e7f4","6617fad957f7c6a12ea16e26","6622c9d4d394ea6bbdb6e086","instruction screen 4"," ","","","","","","","","","","","",""
"","4799","html-keyboard-response","7","30704","0.0-7.0","mt7a0Uxg8T","62851efba924ed81f6f0e7f4","6617fad957f7c6a12ea16e26","6622c9d4d394ea6bbdb6e086","instruction screen 5","q","","","","","","","","","","","",""
"","null","html-keyboard-response","8","31222","0.0-8.0","mt7a0Uxg8T","62851efba924ed81f6f0e7f4","6617fad957f7c6a12ea16e26","6622c9d4d394ea6bbdb6e086","fixation cross","null","","","","","","","","","","","",""
"","null","html-keyboard-response","9","31724","0.0-9.0-0.0","mt7a0Uxg8T","62851efba924ed81f6f0e7f4","6617fad957f7c6a12ea16e26","6622c9d4d394ea6bbdb6e086","fixation cross","null","","","","","","","","","","","",""
"","1890","html-keyboard-response","10","33615","0.0-9.0-1.0","mt7a0Uxg8T","62851efba924ed81f6f0e7f4","6617fad957f7c6a12ea16e26","6622c9d4d394ea6bbdb6e086","image grid","p","","","","","Phylogenetic_Distractor_Nonthreat_target","3000","ongrid","p","7","Ontogenetic","true","practice"
"","null","html-keyboard-response","11","33779","0.0-9.0-2.0","mt7a0Uxg8T","62851efba924ed81f6f0e7f4","6617fad957f7c6a12ea16e26","6622c9d4d394ea6bbdb6e086","
    <div id=""grid-container"">
        <!-- Grid items will be dynamically added here -->
    </div>    ","null","","","","","","","","","","","",""
"","null","html-keyboard-response","12","34992","0.0-9.0-3.0","mt7a0Uxg8T","62851efba924ed81f6f0e7f4","6617fad957f7c6a12ea16e26","6622c9d4d394ea6bbdb6e086","feedback screen","null","","","","","","","","","","","",""
"","null","html-keyboard-response","13","35502","0.0-9.0-0.1","mt7a0Uxg8T","62851efba924ed81f6f0e7f4","6617fad957f7c6a12ea16e26","6622c9d4d394ea6bbdb6e086","fixation cross","null","","","","","","","","","","","",""
"","1890","html-keyboard-response","14","37392","0.0-9.0-1.1","mt7a0Uxg8T","62851efba924ed81f6f0e7f4","6617fad957f7c6a12ea16e26","6622c9d4d394ea6bbdb6e086","image grid"," ","","","","","Phylogenetic_Distractor_notarget","2900","ongrid"," ","7","Ontogenetic","true","practice"
"","null","html-keyboard-response","15","37549","0.0-9.0-2.1","mt7a0Uxg8T","62851efba924ed81f6f0e7f4","6617fad957f7c6a12ea16e26","6622c9d4d394ea6bbdb6e086","
    <div id=""grid-container"">
        <!-- Grid items will be dynamically added here -->
    </div>    ","null","","","","","","","","","","","",""
"","null","html-keyboard-response","16","38778","0.0-9.0-3.1","mt7a0Uxg8T","62851efba924ed81f6f0e7f4","6617fad957f7c6a12ea16e26","6622c9d4d394ea6bbdb6e086","feedback screen","null","","","","","","","","","","","",""
"","null","html-keyboard-response","17","39285","0.0-9.0-0.2","mt7a0Uxg8T","62851efba924ed81f6f0e7f4","6617fad957f7c6a12ea16e26","6622c9d4d394ea6bbdb6e086","fixation cross","null","","","","","","","","","","","",""
"","1929","html-keyboard-response","18","41214","0.0-9.0-1.2","mt7a0Uxg8T","62851efba924ed81f6f0e7f4","6617fad957f7c6a12ea16e26","6622c9d4d394ea6bbdb6e086","image grid","q","","","","","Phylogenetic_Distractor_Threat_target","2800","ongrid","q","7","Ontogenetic","true","practice"
"","null","html-keyboard-response","19","41383","0.0-9.0-2.2","mt7a0Uxg8T","62851efba924ed81f6f0e7f4","6617fad957f7c6a12ea16e26","6622c9d4d394ea6bbdb6e086","
    <div id=""grid-container"">
        <!-- Grid items will be dynamically added here -->
    </div>    ","null","","","","","","","","","","","",""
"","null","html-keyboard-response","20","42608","0.0-9.0-3.2","mt7a0Uxg8T","62851efba924ed81f6f0e7f4","6617fad957f7c6a12ea16e26","6622c9d4d394ea6bbdb6e086","feedback screen","null","","","","","","","","","","","",""
"","null","html-keyboard-response","21","43129","0.0-9.0-0.3","mt7a0Uxg8T","62851efba924ed81f6f0e7f4","6617fad957f7c6a12ea16e26","6622c9d4d394ea6bbdb6e086","fixation cross","null","","","","","","","","","","","",""
"","1366","html-keyboard-response","22","44495","0.0-9.0-1.3","mt7a0Uxg8T","62851efba924ed81f6f0e7f4","6617fad957f7c6a12ea16e26","6622c9d4d394ea6bbdb6e086","image grid","q","","","","","Phylogenetic_Distractor_Threat_target","2700","ongrid","q","2","Ontogenetic","true","practice"
"","null","html-keyboard-response","23","44647","0.0-9.0-2.3","mt7a0Uxg8T","62851efba924ed81f6f0e7f4","6617fad957f7c6a12ea16e26","6622c9d4d394ea6bbdb6e086","
    <div id=""grid-container"">
        <!-- Grid items will be dynamically added here -->
    </div>    ","null","","","","","","","","","","","",""
"","null","html-keyboard-response","24","45874","0.0-9.0-3.3","mt7a0Uxg8T","62851efba924ed81f6f0e7f4","6617fad957f7c6a12ea16e26","6622c9d4d394ea6bbdb6e086","feedback screen","null","","","","","","","","","","","",""
"","null","html-keyboard-response","25","46396","0.0-9.0-0.4","mt7a0Uxg8T","62851efba924ed81f6f0e7f4","6617fad957f7c6a12ea16e26","6622c9d4d394ea6bbdb6e086","fixation cross","null","","","","","","","","","","","",""
"","null","html-keyboard-response","26","49022","0.0-9.0-1.4","mt7a0Uxg8T","62851efba924ed81f6f0e7f4","6617fad957f7c6a12ea16e26","6622c9d4d394ea6bbdb6e086","
        <div id=""grid-container"">
        <!-- Grid items will be dynamically added here -->
    </div>    ","null","","","","","","","","","","","",""
"","5001","html-keyboard-response","27","51423","0.0-9.0-2.4","mt7a0Uxg8T","62851efba924ed81f6f0e7f4","6617fad957f7c6a12ea16e26","6622c9d4d394ea6bbdb6e086","mask grid"," ","","","","","Phylogenetic_Distractor_Nonthreat_target","2600","onmask","p","4","Ontogenetic","false","practice"
"","null","html-keyboard-response","28","52643","0.0-9.0-3.4","mt7a0Uxg8T","62851efba924ed81f6f0e7f4","6617fad957f7c6a12ea16e26","6622c9d4d394ea6bbdb6e086","feedback screen","null","","","","","","","","","","","",""
"","null","html-keyboard-response","29","53158","0.0-9.0-0.5","mt7a0Uxg8T","62851efba924ed81f6f0e7f4","6617fad957f7c6a12ea16e26","6622c9d4d394ea6bbdb6e086","fixation cross","null","","","","","","","","","","","",""
"","1591","html-keyboard-response","30","54750","0.0-9.0-1.5","mt7a0Uxg8T","62851efba924ed81f6f0e7f4","6617fad957f7c6a12ea16e26","6622c9d4d394ea6bbdb6e086","image grid","q","","","","","Ontogenetic_Distractor_Threat_target","2500","ongrid","q","1","Ontogenetic","true","practice"
"","null","html-keyboard-response","31","54901","0.0-9.0-2.5","mt7a0Uxg8T","62851efba924ed81f6f0e7f4","6617fad957f7c6a12ea16e26","6622c9d4d394ea6bbdb6e086","
    <div id=""grid-container"">
        <!-- Grid items will be dynamically added here -->
    </div>    ","null","","","","","","","","","","","",""
"","null","html-keyboard-response","32","56132","0.0-9.0-3.5","mt7a0Uxg8T","62851efba924ed81f6f0e7f4","6617fad957f7c6a12ea16e26","6622c9d4d394ea6bbdb6e086","feedback screen","null","","","","","","","","","","","",""
"","null","html-keyboard-response","33","56658","0.0-9.0-0.6","mt7a0Uxg8T","62851efba924ed81f6f0e7f4","6617fad957f7c6a12ea16e26","6622c9d4d394ea6bbdb6e086","fixation cross","null","","","","","","","","","","","",""
"","652","html-keyboard-response","34","57310","0.0-9.0-1.6","mt7a0Uxg8T","62851efba924ed81f6f0e7f4","6617fad957f7c6a12ea16e26","6622c9d4d394ea6bbdb6e086","image grid","q","","","","","Ontogenetic_Distractor_Threat_target","2400","ongrid","q","5","Ontogenetic","true","practice"
"","null","html-keyboard-response","35","57462","0.0-9.0-2.6","mt7a0Uxg8T","62851efba924ed81f6f0e7f4","6617fad957f7c6a12ea16e26","6622c9d4d394ea6bbdb6e086","
    <div id=""grid-container"">
        <!-- Grid items will be dynamically added here -->
    </div>    ","null","","","","","","","","","","","",""
"","null","html-keyboard-response","36","58670","0.0-9.0-3.6","mt7a0Uxg8T","62851efba924ed81f6f0e7f4","6617fad957f7c6a12ea16e26","6622c9d4d394ea6bbdb6e086","feedback screen","null","","","","","","","","","","","",""
"","null","html-keyboard-response","37","59189","0.0-9.0-0.7","mt7a0Uxg8T","62851efba924ed81f6f0e7f4","6617fad957f7c6a12ea16e26","6622c9d4d394ea6bbdb6e086","fixation cross","null","","","","","","","","","","","",""
"","1242","html-keyboard-response","38","60431","0.0-9.0-1.7","mt7a0Uxg8T","62851efba924ed81f6f0e7f4","6617fad957f7c6a12ea16e26","6622c9d4d394ea6bbdb6e086","image grid"," ","","","","","Ontogenetic_Distractor_notarget","2300","ongrid"," ","7","Ontogenetic","true","practice"
"","null","html-keyboard-response","39","60591","0.0-9.0-2.7","mt7a0Uxg8T","62851efba924ed81f6f0e7f4","6617fad957f7c6a12ea16e26","6622c9d4d394ea6bbdb6e086","
    <div id=""grid-container"">
        <!-- Grid items will be dynamically added here -->
    </div>    ","null","","","","","","","","","","","",""
"","null","html-keyboard-response","40","61826","0.0-9.0-3.7","mt7a0Uxg8T","62851efba924ed81f6f0e7f4","6617fad957f7c6a12ea16e26","6622c9d4d394ea6bbdb6e086","feedback screen","null","","","","","","","","","","","",""
"","null","html-keyboard-response","41","62342","0.0-9.0-0.8","mt7a0Uxg8T","62851efba924ed81f6f0e7f4","6617fad957f7c6a12ea16e26","6622c9d4d394ea6bbdb6e086","fixation cross","null","","","","","","","","","","","",""
"","1047","html-keyboard-response","42","63389","0.0-9.0-1.8","mt7a0Uxg8T","62851efba924ed81f6f0e7f4","6617fad957f7c6a12ea16e26","6622c9d4d394ea6bbdb6e086","image grid","p","","","","","Ontogenetic_Distractor_Nonthreat_target","2200","ongrid","p","3","Ontogenetic","true","practice"
"","null","html-keyboard-response","43","63545","0.0-9.0-2.8","mt7a0Uxg8T","62851efba924ed81f6f0e7f4","6617fad957f7c6a12ea16e26","6622c9d4d394ea6bbdb6e086","
    <div id=""grid-container"">
        <!-- Grid items will be dynamically added here -->
    </div>    ","null","","","","","","","","","","","",""
"","null","html-keyboard-response","44","64783","0.0-9.0-3.8","mt7a0Uxg8T","62851efba924ed81f6f0e7f4","6617fad957f7c6a12ea16e26","6622c9d4d394ea6bbdb6e086","feedback screen","null","","","","","","","","","","","",""
"","null","html-keyboard-response","45","65300","0.0-9.0-0.9","mt7a0Uxg8T","62851efba924ed81f6f0e7f4","6617fad957f7c6a12ea16e26","6622c9d4d394ea6bbdb6e086","fixation cross","null","","","","","","","","","","","",""
"","1323","html-keyboard-response","46","66623","0.0-9.0-1.9","mt7a0Uxg8T","62851efba924ed81f6f0e7f4","6617fad957f7c6a12ea16e26","6622c9d4d394ea6bbdb6e086","image grid","q","","","","","Phylogenetic_Distractor_Threat_target","2100","ongrid","q","9","Ontogenetic","true","practice"
"","null","html-keyboard-response","47","66775","0.0-9.0-2.9","mt7a0Uxg8T","62851efba924ed81f6f0e7f4","6617fad957f7c6a12ea16e26","6622c9d4d394ea6bbdb6e086","
    <div id=""grid-container"">
        <!-- Grid items will be dynamically added here -->
    </div>    ","null","","","","","","","","","","","",""
"","null","html-keyboard-response","48","68005","0.0-9.0-3.9","mt7a0Uxg8T","62851efba924ed81f6f0e7f4","6617fad957f7c6a12ea16e26","6622c9d4d394ea6bbdb6e086","feedback screen","null","","","","","","","","","","","",""
"","null","html-keyboard-response","49","68521","0.0-9.0-0.10","mt7a0Uxg8T","62851efba924ed81f6f0e7f4","6617fad957f7c6a12ea16e26","6622c9d4d394ea6bbdb6e086","fixation cross","null","","","","","","","","","","","",""
"","1284","html-keyboard-response","50","69805","0.0-9.0-1.10","mt7a0Uxg8T","62851efba924ed81f6f0e7f4","6617fad957f7c6a12ea16e26","6622c9d4d394ea6bbdb6e086","image grid"," ","","","","","Ontogenetic_Distractor_notarget","2000","ongrid"," ","8","Ontogenetic","true","practice"
"","null","html-keyboard-response","51","69967","0.0-9.0-2.10","mt7a0Uxg8T","62851efba924ed81f6f0e7f4","6617fad957f7c6a12ea16e26","6622c9d4d394ea6bbdb6e086","
    <div id=""grid-container"">
        <!-- Grid items will be dynamically added here -->
    </div>    ","null","","","","","","","","","","","",""
"","null","html-keyboard-response","52","71199","0.0-9.0-3.10","mt7a0Uxg8T","62851efba924ed81f6f0e7f4","6617fad957f7c6a12ea16e26","6622c9d4d394ea6bbdb6e086","feedback screen","null","","","","","","","","","","","",""
"","null","html-keyboard-response","53","71702","0.0-9.0-0.11","mt7a0Uxg8T","62851efba924ed81f6f0e7f4","6617fad957f7c6a12ea16e26","6622c9d4d394ea6bbdb6e086","fixation cross","null","","","","","","","","","","","",""
"","680","html-keyboard-response","54","72383","0.0-9.0-1.11","mt7a0Uxg8T","62851efba924ed81f6f0e7f4","6617fad957f7c6a12ea16e26","6622c9d4d394ea6bbdb6e086","image grid","p","","","","","Ontogenetic_Distractor_Nonthreat_target","1900","ongrid","p","6","Ontogenetic","true","practice"
"","null","html-keyboard-response","55","72545","0.0-9.0-2.11","mt7a0Uxg8T","62851efba924ed81f6f0e7f4","6617fad957f7c6a12ea16e26","6622c9d4d394ea6bbdb6e086","
    <div id=""grid-container"">
        <!-- Grid items will be dynamically added here -->
    </div>    ","null","","","","","","","","","","","",""
"","null","html-keyboard-response","56","73778","0.0-9.0-3.11","mt7a0Uxg8T","62851efba924ed81f6f0e7f4","6617fad957f7c6a12ea16e26","6622c9d4d394ea6bbdb6e086","feedback screen","null","","","","","","","","","","","",""
"","null","html-keyboard-response","57","74287","0.0-9.0-0.12","mt7a0Uxg8T","62851efba924ed81f6f0e7f4","6617fad957f7c6a12ea16e26","6622c9d4d394ea6bbdb6e086","fixation cross","null","","","","","","","","","","","",""
"","1070","html-keyboard-response","58","75358","0.0-9.0-1.12","mt7a0Uxg8T","62851efba924ed81f6f0e7f4","6617fad957f7c6a12ea16e26","6622c9d4d394ea6bbdb6e086","image grid","q","","","","","Phylogenetic_Distractor_Threat_target","1800","ongrid","q","9","Ontogenetic","true","practice"
"","null","html-keyboard-response","59","75523","0.0-9.0-2.12","mt7a0Uxg8T","62851efba924ed81f6f0e7f4","6617fad957f7c6a12ea16e26","6622c9d4d394ea6bbdb6e086","
    <div id=""grid-container"">
        <!-- Grid items will be dynamically added here -->
    </div>    ","null","","","","","","","","","","","",""
"","null","html-keyboard-response","60","76753","0.0-9.0-3.12","mt7a0Uxg8T","62851efba924ed81f6f0e7f4","6617fad957f7c6a12ea16e26","6622c9d4d394ea6bbdb6e086","feedback screen","null","","","","","","","","","","","",""
"","null","html-keyboard-response","61","77274","0.0-9.0-0.13","mt7a0Uxg8T","62851efba924ed81f6f0e7f4","6617fad957f7c6a12ea16e26","6622c9d4d394ea6bbdb6e086","fixation cross","null","","","","","","","","","","","",""
"","null","html-keyboard-response","62","78977","0.0-9.0-1.13","mt7a0Uxg8T","62851efba924ed81f6f0e7f4","6617fad957f7c6a12ea16e26","6622c9d4d394ea6bbdb6e086","
        <div id=""grid-container"">
        <!-- Grid items will be dynamically added here -->
    </div>    ","null","","","","","","","","","","","",""
"","1905","html-keyboard-response","63","79183","0.0-9.0-2.13","mt7a0Uxg8T","62851efba924ed81f6f0e7f4","6617fad957f7c6a12ea16e26","6622c9d4d394ea6bbdb6e086","mask grid"," ","","","","","Phylogenetic_Distractor_notarget","1700","onmask"," ","4","Ontogenetic","true","practice"
"","null","html-keyboard-response","64","80395","0.0-9.0-3.13","mt7a0Uxg8T","62851efba924ed81f6f0e7f4","6617fad957f7c6a12ea16e26","6622c9d4d394ea6bbdb6e086","feedback screen","null","","","","","","","","","","","",""
"","null","html-keyboard-response","65","80911","0.0-9.0-0.14","mt7a0Uxg8T","62851efba924ed81f6f0e7f4","6617fad957f7c6a12ea16e26","6622c9d4d394ea6bbdb6e086","fixation cross","null","","","","","","","","","","","",""
"","1215","html-keyboard-response","66","82127","0.0-9.0-1.14","mt7a0Uxg8T","62851efba924ed81f6f0e7f4","6617fad957f7c6a12ea16e26","6622c9d4d394ea6bbdb6e086","image grid","p","","","","","Phylogenetic_Distractor_Nonthreat_target","1600","ongrid","p","2","Ontogenetic","true","practice"
"","null","html-keyboard-response","67","82282","0.0-9.0-2.14","mt7a0Uxg8T","62851efba924ed81f6f0e7f4","6617fad957f7c6a12ea16e26","6622c9d4d394ea6bbdb6e086","
    <div id=""grid-container"">
        <!-- Grid items will be dynamically added here -->
    </div>    ","null","","","","","","","","","","","",""
"","null","html-keyboard-response","68","83500","0.0-9.0-3.14","mt7a0Uxg8T","62851efba924ed81f6f0e7f4","6617fad957f7c6a12ea16e26","6622c9d4d394ea6bbdb6e086","feedback screen","null","","","","","","","","","","","",""
"","null","html-keyboard-response","69","84017","0.0-9.0-0.15","mt7a0Uxg8T","62851efba924ed81f6f0e7f4","6617fad957f7c6a12ea16e26","6622c9d4d394ea6bbdb6e086","fixation cross","null","","","","","","","","","","","",""
"","670","html-keyboard-response","70","84687","0.0-9.0-1.15","mt7a0Uxg8T","62851efba924ed81f6f0e7f4","6617fad957f7c6a12ea16e26","6622c9d4d394ea6bbdb6e086","image grid","p","","","","","Ontogenetic_Distractor_Nonthreat_target","1500","ongrid","p","5","Ontogenetic","true","practice"
"","null","html-keyboard-response","71","84863","0.0-9.0-2.15","mt7a0Uxg8T","62851efba924ed81f6f0e7f4","6617fad957f7c6a12ea16e26","6622c9d4d394ea6bbdb6e086","
    <div id=""grid-container"">
        <!-- Grid items will be dynamically added here -->
    </div>    ","null","","","","","","","","","","","",""
"","null","html-keyboard-response","72","86089","0.0-9.0-3.15","mt7a0Uxg8T","62851efba924ed81f6f0e7f4","6617fad957f7c6a12ea16e26","6622c9d4d394ea6bbdb6e086","feedback screen","null","","","","","","","","","","","",""
"","null","html-keyboard-response","73","86606","0.0-9.0-0.16","mt7a0Uxg8T","62851efba924ed81f6f0e7f4","6617fad957f7c6a12ea16e26","6622c9d4d394ea6bbdb6e086","fixation cross","null","","","","","","","","","","","",""
"","750","html-keyboard-response","74","87357","0.0-9.0-1.16","mt7a0Uxg8T","62851efba924ed81f6f0e7f4","6617fad957f7c6a12ea16e26","6622c9d4d394ea6bbdb6e086","image grid","q","","","","","Ontogenetic_Distractor_Threat_target","1400","ongrid","q","3","Ontogenetic","true","practice"
"","null","html-keyboard-response","75","87520","0.0-9.0-2.16","mt7a0Uxg8T","62851efba924ed81f6f0e7f4","6617fad957f7c6a12ea16e26","6622c9d4d394ea6bbdb6e086","
    <div id=""grid-container"">
        <!-- Grid items will be dynamically added here -->
    </div>    ","null","","","","","","","","","","","",""
"","null","html-keyboard-response","76","88727","0.0-9.0-3.16","mt7a0Uxg8T","62851efba924ed81f6f0e7f4","6617fad957f7c6a12ea16e26","6622c9d4d394ea6bbdb6e086","feedback screen","null","","","","","","","","","","","",""
"","null","html-keyboard-response","77","89238","0.0-9.0-0.17","mt7a0Uxg8T","62851efba924ed81f6f0e7f4","6617fad957f7c6a12ea16e26","6622c9d4d394ea6bbdb6e086","fixation cross","null","","","","","","","","","","","",""
"","1096","html-keyboard-response","78","90335","0.0-9.0-1.17","mt7a0Uxg8T","62851efba924ed81f6f0e7f4","6617fad957f7c6a12ea16e26","6622c9d4d394ea6bbdb6e086","image grid"," ","","","","","Phylogenetic_Distractor_Nonthreat_target","1300","ongrid","p","4","Ontogenetic","false","practice"
"","null","html-keyboard-response","79","90498","0.0-9.0-2.17","mt7a0Uxg8T","62851efba924ed81f6f0e7f4","6617fad957f7c6a12ea16e26","6622c9d4d394ea6bbdb6e086","
    <div id=""grid-container"">
        <!-- Grid items will be dynamically added here -->
    </div>    ","null","","","","","","","","","","","",""
"","null","html-keyboard-response","80","91715","0.0-9.0-3.17","mt7a0Uxg8T","62851efba924ed81f6f0e7f4","6617fad957f7c6a12ea16e26","6622c9d4d394ea6bbdb6e086","feedback screen","null","","","","","","","","","","","",""
"","null","html-keyboard-response","81","92231","0.0-9.0-0.18","mt7a0Uxg8T","62851efba924ed81f6f0e7f4","6617fad957f7c6a12ea16e26","6622c9d4d394ea6bbdb6e086","fixation cross","null","","","","","","","","","","","",""
"","760","html-keyboard-response","82","92991","0.0-9.0-1.18","mt7a0Uxg8T","62851efba924ed81f6f0e7f4","6617fad957f7c6a12ea16e26","6622c9d4d394ea6bbdb6e086","image grid","p","","","","","Ontogenetic_Distractor_Nonthreat_target","1200","ongrid","p","9","Ontogenetic","true","practice"
"","null","html-keyboard-response","83","93158","0.0-9.0-2.18","mt7a0Uxg8T","62851efba924ed81f6f0e7f4","6617fad957f7c6a12ea16e26","6622c9d4d394ea6bbdb6e086","
    <div id=""grid-container"">
        <!-- Grid items will be dynamically added here -->
    </div>    ","null","","","","","","","","","","","",""
"","null","html-keyboard-response","84","94376","0.0-9.0-3.18","mt7a0Uxg8T","62851efba924ed81f6f0e7f4","6617fad957f7c6a12ea16e26","6622c9d4d394ea6bbdb6e086","feedback screen","null","","","","","","","","","","","",""
"","null","html-keyboard-response","85","94891","0.0-9.0-0.19","mt7a0Uxg8T","62851efba924ed81f6f0e7f4","6617fad957f7c6a12ea16e26","6622c9d4d394ea6bbdb6e086","fixation cross","null","","","","","","","","","","","",""
"","null","html-keyboard-response","86","96004","0.0-9.0-1.19","mt7a0Uxg8T","62851efba924ed81f6f0e7f4","6617fad957f7c6a12ea16e26","6622c9d4d394ea6bbdb6e086","
        <div id=""grid-container"">
        <!-- Grid items will be dynamically added here -->
    </div>    ","null","","","","","","","","","","","",""
"","1125","html-keyboard-response","87","96030","0.0-9.0-2.19","mt7a0Uxg8T","62851efba924ed81f6f0e7f4","6617fad957f7c6a12ea16e26","6622c9d4d394ea6bbdb6e086","mask grid","q","","","","","Ontogenetic_Distractor_Threat_target","1100","onmask","q","1","Ontogenetic","true","practice"
"","null","html-keyboard-response","88","97270","0.0-9.0-3.19","mt7a0Uxg8T","62851efba924ed81f6f0e7f4","6617fad957f7c6a12ea16e26","6622c9d4d394ea6bbdb6e086","feedback screen","null","","","","","","","","","","","",""
"","20979","html-keyboard-response","89","118271","0.0-10.0","mt7a0Uxg8T","62851efba924ed81f6f0e7f4","6617fad957f7c6a12ea16e26","6622c9d4d394ea6bbdb6e086","pre-experimental_briefing"," ","","","","","","","","","","","",""
"","null","html-keyboard-response","90","120777","0.0-11.0-0.0","mt7a0Uxg8T","62851efba924ed81f6f0e7f4","6617fad957f7c6a12ea16e26","6622c9d4d394ea6bbdb6e086","fixation cross","null","","","","","","","","","","","",""
"","1206","html-keyboard-response","91","121983","0.0-11.0-1.0","mt7a0Uxg8T","62851efba924ed81f6f0e7f4","6617fad957f7c6a12ea16e26","6622c9d4d394ea6bbdb6e086","image grid","q","","","","","Ontogenetic_Distractor_Threat_target","2500","ongrid","q","2","Ontogenetic","true","experimental"
"","null","html-keyboard-response","92","122135","0.0-11.0-2.0","mt7a0Uxg8T","62851efba924ed81f6f0e7f4","6617fad957f7c6a12ea16e26","6622c9d4d394ea6bbdb6e086","
    <div id=""grid-container"">
        <!-- Grid items will be dynamically added here -->
    </div>    ","null","","","","","","","","","","","",""
"","null","html-keyboard-response","93","122856","0.0-11.0-0.1","mt7a0Uxg8T","62851efba924ed81f6f0e7f4","6617fad957f7c6a12ea16e26","6622c9d4d394ea6bbdb6e086","fixation cross","null","","","","","","","","","","","",""
"","1095","html-keyboard-response","94","123952","0.0-11.0-1.1","mt7a0Uxg8T","62851efba924ed81f6f0e7f4","6617fad957f7c6a12ea16e26","6622c9d4d394ea6bbdb6e086","image grid"," ","","","","","Ontogenetic_Distractor_notarget","2500","ongrid"," ","2","Ontogenetic","true","experimental"
"","null","html-keyboard-response","95","124113","0.0-11.0-2.1","mt7a0Uxg8T","62851efba924ed81f6f0e7f4","6617fad957f7c6a12ea16e26","6622c9d4d394ea6bbdb6e086","
    <div id=""grid-container"">
        <!-- Grid items will be dynamically added here -->
    </div>    ","null","","","","","","","","","","","",""
"","null","html-keyboard-response","96","124823","0.0-11.0-0.2","mt7a0Uxg8T","62851efba924ed81f6f0e7f4","6617fad957f7c6a12ea16e26","6622c9d4d394ea6bbdb6e086","fixation cross","null","","","","","","","","","","","",""
"","841","html-keyboard-response","97","125664","0.0-11.0-1.2","mt7a0Uxg8T","62851efba924ed81f6f0e7f4","6617fad957f7c6a12ea16e26","6622c9d4d394ea6bbdb6e086","image grid","q","","","","","Ontogenetic_Distractor_Threat_target","2500","ongrid","q","3","Ontogenetic","true","experimental"
"","null","html-keyboard-response","98","125816","0.0-11.0-2.2","mt7a0Uxg8T","62851efba924ed81f6f0e7f4","6617fad957f7c6a12ea16e26","6622c9d4d394ea6bbdb6e086","
    <div id=""grid-container"">
        <!-- Grid items will be dynamically added here -->
    </div>    ","null","","","","","","","","","","","",""
"","null","html-keyboard-response","99","126528","0.0-11.0-0.3","mt7a0Uxg8T","62851efba924ed81f6f0e7f4","6617fad957f7c6a12ea16e26","6622c9d4d394ea6bbdb6e086","fixation cross","null","","","","","","","","","","","",""
"","976","html-keyboard-response","100","127504","0.0-11.0-1.3","mt7a0Uxg8T","62851efba924ed81f6f0e7f4","6617fad957f7c6a12ea16e26","6622c9d4d394ea6bbdb6e086","image grid","q","","","","","Ontogenetic_Distractor_Threat_target","2500","ongrid","q","2","Ontogenetic","true","experimental"
"","null","html-keyboard-response","101","127660","0.0-11.0-2.3","mt7a0Uxg8T","62851efba924ed81f6f0e7f4","6617fad957f7c6a12ea16e26","6622c9d4d394ea6bbdb6e086","
    <div id=""grid-container"">
        <!-- Grid items will be dynamically added here -->
    </div>    ","null","","","","","","","","","","","",""
"","null","html-keyboard-response","102","128404","0.0-11.0-0.4","mt7a0Uxg8T","62851efba924ed81f6f0e7f4","6617fad957f7c6a12ea16e26","6622c9d4d394ea6bbdb6e086","fixation cross","null","","","","","","","","","","","",""
"","1387","html-keyboard-response","103","129792","0.0-11.0-1.4","mt7a0Uxg8T","62851efba924ed81f6f0e7f4","6617fad957f7c6a12ea16e26","6622c9d4d394ea6bbdb6e086","image grid","q","","","","","Ontogenetic_Distractor_Threat_target","2500","ongrid","q","6","Ontogenetic","true","experimental"
"","null","html-keyboard-response","104","129955","0.0-11.0-2.4","mt7a0Uxg8T","62851efba924ed81f6f0e7f4","6617fad957f7c6a12ea16e26","6622c9d4d394ea6bbdb6e086","
    <div id=""grid-container"">
        <!-- Grid items will be dynamically added here -->
    </div>    ","null","","","","","","","","","","","",""
"","null","html-keyboard-response","105","130690","0.0-11.0-0.5","mt7a0Uxg8T","62851efba924ed81f6f0e7f4","6617fad957f7c6a12ea16e26","6622c9d4d394ea6bbdb6e086","fixation cross","null","","","","","","","","","","","",""
"","1420","html-keyboard-response","106","132111","0.0-11.0-1.5","mt7a0Uxg8T","62851efba924ed81f6f0e7f4","6617fad957f7c6a12ea16e26","6622c9d4d394ea6bbdb6e086","image grid","p","","","","","Ontogenetic_Distractor_Nonthreat_target","2500","ongrid","p","2","Ontogenetic","true","experimental"
"","null","html-keyboard-response","107","132277","0.0-11.0-2.5","mt7a0Uxg8T","62851efba924ed81f6f0e7f4","6617fad957f7c6a12ea16e26","6622c9d4d394ea6bbdb6e086","
    <div id=""grid-container"">
        <!-- Grid items will be dynamically added here -->
    </div>    ","null","","","","","","","","","","","",""
"","null","html-keyboard-response","108","133010","0.0-11.0-0.6","mt7a0Uxg8T","62851efba924ed81f6f0e7f4","6617fad957f7c6a12ea16e26","6622c9d4d394ea6bbdb6e086","fixation cross","null","","","","","","","","","","","",""
"","1453","html-keyboard-response","109","134464","0.0-11.0-1.6","mt7a0Uxg8T","62851efba924ed81f6f0e7f4","6617fad957f7c6a12ea16e26","6622c9d4d394ea6bbdb6e086","image grid","p","","","","","Ontogenetic_Distractor_Nonthreat_target","2500","ongrid","p","4","Ontogenetic","true","experimental"
"","null","html-keyboard-response","110","134623","0.0-11.0-2.6","mt7a0Uxg8T","62851efba924ed81f6f0e7f4","6617fad957f7c6a12ea16e26","6622c9d4d394ea6bbdb6e086","
    <div id=""grid-container"">
        <!-- Grid items will be dynamically added here -->
    </div>    ","null","","","","","","","","","","","",""
"","null","html-keyboard-response","111","135345","0.0-11.0-0.7","mt7a0Uxg8T","62851efba924ed81f6f0e7f4","6617fad957f7c6a12ea16e26","6622c9d4d394ea6bbdb6e086","fixation cross","null","","","","","","","","","","","",""
"","798","html-keyboard-response","112","136144","0.0-11.0-1.7","mt7a0Uxg8T","62851efba924ed81f6f0e7f4","6617fad957f7c6a12ea16e26","6622c9d4d394ea6bbdb6e086","image grid","q","","","","","Ontogenetic_Distractor_Threat_target","2500","ongrid","q","2","Ontogenetic","true","experimental"
"","null","html-keyboard-response","113","136299","0.0-11.0-2.7","mt7a0Uxg8T","62851efba924ed81f6f0e7f4","6617fad957f7c6a12ea16e26","6622c9d4d394ea6bbdb6e086","
    <div id=""grid-container"">
        <!-- Grid items will be dynamically added here -->
    </div>    ","null","","","","","","","","","","","",""
"","null","html-keyboard-response","114","137026","0.0-11.0-0.8","mt7a0Uxg8T","62851efba924ed81f6f0e7f4","6617fad957f7c6a12ea16e26","6622c9d4d394ea6bbdb6e086","fixation cross","null","","","","","","","","","","","",""
"","765","html-keyboard-response","115","137791","0.0-11.0-1.8","mt7a0Uxg8T","62851efba924ed81f6f0e7f4","6617fad957f7c6a12ea16e26","6622c9d4d394ea6bbdb6e086","image grid","q","","","","","Ontogenetic_Distractor_Threat_target","2500","ongrid","q","8","Ontogenetic","true","experimental"
"","null","html-keyboard-response","116","137958","0.0-11.0-2.8","mt7a0Uxg8T","62851efba924ed81f6f0e7f4","6617fad957f7c6a12ea16e26","6622c9d4d394ea6bbdb6e086","
    <div id=""grid-container"">
        <!-- Grid items will be dynamically added here -->
    </div>    ","null","","","","","","","","","","","",""
"","null","html-keyboard-response","117","138669","0.0-11.0-0.9","mt7a0Uxg8T","62851efba924ed81f6f0e7f4","6617fad957f7c6a12ea16e26","6622c9d4d394ea6bbdb6e086","fixation cross","null","","","","","","","","","","","",""
"","1186","html-keyboard-response","118","139855","0.0-11.0-1.9","mt7a0Uxg8T","62851efba924ed81f6f0e7f4","6617fad957f7c6a12ea16e26","6622c9d4d394ea6bbdb6e086","image grid","q","","","","","Ontogenetic_Distractor_Threat_target","2500","ongrid","q","9","Ontogenetic","true","experimental"
"","null","html-keyboard-response","119","140020","0.0-11.0-2.9","mt7a0Uxg8T","62851efba924ed81f6f0e7f4","6617fad957f7c6a12ea16e26","6622c9d4d394ea6bbdb6e086","
    <div id=""grid-container"">
        <!-- Grid items will be dynamically added here -->
    </div>    ","null","","","","","","","","","","","",""
"","null","html-keyboard-response","120","140747","0.0-11.0-0.10","mt7a0Uxg8T","62851efba924ed81f6f0e7f4","6617fad957f7c6a12ea16e26","6622c9d4d394ea6bbdb6e086","fixation cross","null","","","","","","","","","","","",""
"","1156","html-keyboard-response","121","141904","0.0-11.0-1.10","mt7a0Uxg8T","62851efba924ed81f6f0e7f4","6617fad957f7c6a12ea16e26","6622c9d4d394ea6bbdb6e086","image grid","p","","","","","Ontogenetic_Distractor_Nonthreat_target","2500","ongrid","p","2","Ontogenetic","true","experimental"
"","null","html-keyboard-response","122","142070","0.0-11.0-2.10","mt7a0Uxg8T","62851efba924ed81f6f0e7f4","6617fad957f7c6a12ea16e26","6622c9d4d394ea6bbdb6e086","
    <div id=""grid-container"">
        <!-- Grid items will be dynamically added here -->
    </div>    ","null","","","","","","","","","","","",""
"","null","html-keyboard-response","123","142787","0.0-11.0-0.11","mt7a0Uxg8T","62851efba924ed81f6f0e7f4","6617fad957f7c6a12ea16e26","6622c9d4d394ea6bbdb6e086","fixation cross","null","","","","","","","","","","","",""
"","1004","html-keyboard-response","124","143792","0.0-11.0-1.11","mt7a0Uxg8T","62851efba924ed81f6f0e7f4","6617fad957f7c6a12ea16e26","6622c9d4d394ea6bbdb6e086","image grid","p","","","","","Ontogenetic_Distractor_Nonthreat_target","2500","ongrid","p","7","Ontogenetic","true","experimental"
"","null","html-keyboard-response","125","143958","0.0-11.0-2.11","mt7a0Uxg8T","62851efba924ed81f6f0e7f4","6617fad957f7c6a12ea16e26","6622c9d4d394ea6bbdb6e086","
    <div id=""grid-container"">
        <!-- Grid items will be dynamically added here -->
    </div>    ","null","","","","","","","","","","","",""
"","null","html-keyboard-response","126","144695","0.0-11.0-0.12","mt7a0Uxg8T","62851efba924ed81f6f0e7f4","6617fad957f7c6a12ea16e26","6622c9d4d394ea6bbdb6e086","fixation cross","null","","","","","","","","","","","",""
"","1415","html-keyboard-response","127","146110","0.0-11.0-1.12","mt7a0Uxg8T","62851efba924ed81f6f0e7f4","6617fad957f7c6a12ea16e26","6622c9d4d394ea6bbdb6e086","image grid","p","","","","","Ontogenetic_Distractor_Nonthreat_target","2500","ongrid","p","9","Ontogenetic","true","experimental"
"","null","html-keyboard-response","128","146279","0.0-11.0-2.12","mt7a0Uxg8T","62851efba924ed81f6f0e7f4","6617fad957f7c6a12ea16e26","6622c9d4d394ea6bbdb6e086","
    <div id=""grid-container"">
        <!-- Grid items will be dynamically added here -->
    </div>    ","null","","","","","","","","","","","",""
"","null","html-keyboard-response","129","147001","0.0-11.0-0.13","mt7a0Uxg8T","62851efba924ed81f6f0e7f4","6617fad957f7c6a12ea16e26","6622c9d4d394ea6bbdb6e086","fixation cross","null","","","","","","","","","","","",""
"","902","html-keyboard-response","130","147904","0.0-11.0-1.13","mt7a0Uxg8T","62851efba924ed81f6f0e7f4","6617fad957f7c6a12ea16e26","6622c9d4d394ea6bbdb6e086","image grid","q","","","","","Ontogenetic_Distractor_Threat_target","2500","ongrid","q","8","Ontogenetic","true","experimental"
"","null","html-keyboard-response","131","148063","0.0-11.0-2.13","mt7a0Uxg8T","62851efba924ed81f6f0e7f4","6617fad957f7c6a12ea16e26","6622c9d4d394ea6bbdb6e086","
    <div id=""grid-container"">
        <!-- Grid items will be dynamically added here -->
    </div>    ","null","","","","","","","","","","","",""
"","null","html-keyboard-response","132","148800","0.0-11.0-0.14","mt7a0Uxg8T","62851efba924ed81f6f0e7f4","6617fad957f7c6a12ea16e26","6622c9d4d394ea6bbdb6e086","fixation cross","null","","","","","","","","","","","",""
"","2047","html-keyboard-response","133","150848","0.0-11.0-1.14","mt7a0Uxg8T","62851efba924ed81f6f0e7f4","6617fad957f7c6a12ea16e26","6622c9d4d394ea6bbdb6e086","image grid"," ","","","","","Ontogenetic_Distractor_notarget","2500","ongrid"," ","1","Ontogenetic","true","experimental"
"","null","html-keyboard-response","134","151009","0.0-11.0-2.14","mt7a0Uxg8T","62851efba924ed81f6f0e7f4","6617fad957f7c6a12ea16e26","6622c9d4d394ea6bbdb6e086","
    <div id=""grid-container"">
        <!-- Grid items will be dynamically added here -->
    </div>    ","null","","","","","","","","","","","",""
"","null","html-keyboard-response","135","151725","0.0-11.0-0.15","mt7a0Uxg8T","62851efba924ed81f6f0e7f4","6617fad957f7c6a12ea16e26","6622c9d4d394ea6bbdb6e086","fixation cross","null","","","","","","","","","","","",""
"","706","html-keyboard-response","136","152431","0.0-11.0-1.15","mt7a0Uxg8T","62851efba924ed81f6f0e7f4","6617fad957f7c6a12ea16e26","6622c9d4d394ea6bbdb6e086","image grid","q","","","","","Ontogenetic_Distractor_Threat_target","2500","ongrid","q","2","Ontogenetic","true","experimental"
"","null","html-keyboard-response","137","152595","0.0-11.0-2.15","mt7a0Uxg8T","62851efba924ed81f6f0e7f4","6617fad957f7c6a12ea16e26","6622c9d4d394ea6bbdb6e086","
    <div id=""grid-container"">
        <!-- Grid items will be dynamically added here -->
    </div>    ","null","","","","","","","","","","","",""
"","null","html-keyboard-response","138","153326","0.0-11.0-0.16","mt7a0Uxg8T","62851efba924ed81f6f0e7f4","6617fad957f7c6a12ea16e26","6622c9d4d394ea6bbdb6e086","fixation cross","null","","","","","","","","","","","",""
"","896","html-keyboard-response","139","154223","0.0-11.0-1.16","mt7a0Uxg8T","62851efba924ed81f6f0e7f4","6617fad957f7c6a12ea16e26","6622c9d4d394ea6bbdb6e086","image grid","p","","","","","Ontogenetic_Distractor_Nonthreat_target","2500","ongrid","p","4","Ontogenetic","true","experimental"
"","null","html-keyboard-response","140","154374","0.0-11.0-2.16","mt7a0Uxg8T","62851efba924ed81f6f0e7f4","6617fad957f7c6a12ea16e26","6622c9d4d394ea6bbdb6e086","
    <div id=""grid-container"">
        <!-- Grid items will be dynamically added here -->
    </div>    ","null","","","","","","","","","","","",""
"","null","html-keyboard-response","141","155099","0.0-11.0-0.17","mt7a0Uxg8T","62851efba924ed81f6f0e7f4","6617fad957f7c6a12ea16e26","6622c9d4d394ea6bbdb6e086","fixation cross","null","","","","","","","","","","","",""
"","708","html-keyboard-response","142","155807","0.0-11.0-1.17","mt7a0Uxg8T","62851efba924ed81f6f0e7f4","6617fad957f7c6a12ea16e26","6622c9d4d394ea6bbdb6e086","image grid","p","","","","","Ontogenetic_Distractor_Nonthreat_target","2500","ongrid","p","9","Ontogenetic","true","experimental"
"","null","html-keyboard-response","143","155961","0.0-11.0-2.17","mt7a0Uxg8T","62851efba924ed81f6f0e7f4","6617fad957f7c6a12ea16e26","6622c9d4d394ea6bbdb6e086","
    <div id=""grid-container"">
        <!-- Grid items will be dynamically added here -->
    </div>    ","null","","","","","","","","","","","",""
"","null","html-keyboard-response","144","156673","0.0-11.0-0.18","mt7a0Uxg8T","62851efba924ed81f6f0e7f4","6617fad957f7c6a12ea16e26","6622c9d4d394ea6bbdb6e086","fixation cross","null","","","","","","","","","","","",""
"","653","html-keyboard-response","145","157327","0.0-11.0-1.18","mt7a0Uxg8T","62851efba924ed81f6f0e7f4","6617fad957f7c6a12ea16e26","6622c9d4d394ea6bbdb6e086","image grid","q","","","","","Ontogenetic_Distractor_Threat_target","2500","ongrid","q","4","Ontogenetic","true","experimental"
"","null","html-keyboard-response","146","157486","0.0-11.0-2.18","mt7a0Uxg8T","62851efba924ed81f6f0e7f4","6617fad957f7c6a12ea16e26","6622c9d4d394ea6bbdb6e086","
    <div id=""grid-container"">
        <!-- Grid items will be dynamically added here -->
    </div>    ","null","","","","","","","","","","","",""
"","null","html-keyboard-response","147","158218","0.0-11.0-0.19","mt7a0Uxg8T","62851efba924ed81f6f0e7f4","6617fad957f7c6a12ea16e26","6622c9d4d394ea6bbdb6e086","fixation cross","null","","","","","","","","","","","",""
"","1027","html-keyboard-response","148","159246","0.0-11.0-1.19","mt7a0Uxg8T","62851efba924ed81f6f0e7f4","6617fad957f7c6a12ea16e26","6622c9d4d394ea6bbdb6e086","image grid","p","","","","","Ontogenetic_Distractor_Nonthreat_target","2500","ongrid","p","7","Ontogenetic","true","experimental"
"","null","html-keyboard-response","149","159404","0.0-11.0-2.19","mt7a0Uxg8T","62851efba924ed81f6f0e7f4","6617fad957f7c6a12ea16e26","6622c9d4d394ea6bbdb6e086","
    <div id=""grid-container"">
        <!-- Grid items will be dynamically added here -->
    </div>    ","null","","","","","","","","","","","",""
"","null","html-keyboard-response","150","160114","0.0-11.0-0.20","mt7a0Uxg8T","62851efba924ed81f6f0e7f4","6617fad957f7c6a12ea16e26","6622c9d4d394ea6bbdb6e086","fixation cross","null","","","","","","","","","","","",""
"","1214","html-keyboard-response","151","161328","0.0-11.0-1.20","mt7a0Uxg8T","62851efba924ed81f6f0e7f4","6617fad957f7c6a12ea16e26","6622c9d4d394ea6bbdb6e086","image grid","q","","","","","Ontogenetic_Distractor_Threat_target","2500","ongrid","q","5","Ontogenetic","true","experimental"
"","null","html-keyboard-response","152","161481","0.0-11.0-2.20","mt7a0Uxg8T","62851efba924ed81f6f0e7f4","6617fad957f7c6a12ea16e26","6622c9d4d394ea6bbdb6e086","
    <div id=""grid-container"">
        <!-- Grid items will be dynamically added here -->
    </div>    ","null","","","","","","","","","","","",""
"","null","html-keyboard-response","153","162209","0.0-11.0-0.21","mt7a0Uxg8T","62851efba924ed81f6f0e7f4","6617fad957f7c6a12ea16e26","6622c9d4d394ea6bbdb6e086","fixation cross","null","","","","","","","","","","","",""
"","734","html-keyboard-response","154","162943","0.0-11.0-1.21","mt7a0Uxg8T","62851efba924ed81f6f0e7f4","6617fad957f7c6a12ea16e26","6622c9d4d394ea6bbdb6e086","image grid","p","","","","","Ontogenetic_Distractor_Nonthreat_target","2500","ongrid","p","9","Ontogenetic","true","experimental"
"","null","html-keyboard-response","155","163110","0.0-11.0-2.21","mt7a0Uxg8T","62851efba924ed81f6f0e7f4","6617fad957f7c6a12ea16e26","6622c9d4d394ea6bbdb6e086","
    <div id=""grid-container"">
        <!-- Grid items will be dynamically added here -->
    </div>    ","null","","","","","","","","","","","",""
"","null","html-keyboard-response","156","163847","0.0-11.0-0.22","mt7a0Uxg8T","62851efba924ed81f6f0e7f4","6617fad957f7c6a12ea16e26","6622c9d4d394ea6bbdb6e086","fixation cross","null","","","","","","","","","","","",""
"","824","html-keyboard-response","157","164671","0.0-11.0-1.22","mt7a0Uxg8T","62851efba924ed81f6f0e7f4","6617fad957f7c6a12ea16e26","6622c9d4d394ea6bbdb6e086","image grid","p","","","","","Ontogenetic_Distractor_Nonthreat_target","2500","ongrid","p","9","Ontogenetic","true","experimental"
"","null","html-keyboard-response","158","164826","0.0-11.0-2.22","mt7a0Uxg8T","62851efba924ed81f6f0e7f4","6617fad957f7c6a12ea16e26","6622c9d4d394ea6bbdb6e086","
    <div id=""grid-container"">
        <!-- Grid items will be dynamically added here -->
    </div>    ","null","","","","","","","","","","","",""
"","null","html-keyboard-response","159","165543","0.0-11.0-0.23","mt7a0Uxg8T","62851efba924ed81f6f0e7f4","6617fad957f7c6a12ea16e26","6622c9d4d394ea6bbdb6e086","fixation cross","null","","","","","","","","","","","",""
"","600","html-keyboard-response","160","166144","0.0-11.0-1.23","mt7a0Uxg8T","62851efba924ed81f6f0e7f4","6617fad957f7c6a12ea16e26","6622c9d4d394ea6bbdb6e086","image grid","p","","","","","Ontogenetic_Distractor_Threat_target","2500","ongrid","q","6","Ontogenetic","false","experimental"
"","null","html-keyboard-response","161","166313","0.0-11.0-2.23","mt7a0Uxg8T","62851efba924ed81f6f0e7f4","6617fad957f7c6a12ea16e26","6622c9d4d394ea6bbdb6e086","
    <div id=""grid-container"">
        <!-- Grid items will be dynamically added here -->
    </div>    ","null","","","","","","","","","","","",""
"","null","html-keyboard-response","162","167038","0.0-11.0-0.24","mt7a0Uxg8T","62851efba924ed81f6f0e7f4","6617fad957f7c6a12ea16e26","6622c9d4d394ea6bbdb6e086","fixation cross","null","","","","","","","","","","","",""
"","832","html-keyboard-response","163","167871","0.0-11.0-1.24","mt7a0Uxg8T","62851efba924ed81f6f0e7f4","6617fad957f7c6a12ea16e26","6622c9d4d394ea6bbdb6e086","image grid","q","","","","","Ontogenetic_Distractor_Threat_target","2500","ongrid","q","3","Ontogenetic","true","experimental"
"","null","html-keyboard-response","164","168047","0.0-11.0-2.24","mt7a0Uxg8T","62851efba924ed81f6f0e7f4","6617fad957f7c6a12ea16e26","6622c9d4d394ea6bbdb6e086","
    <div id=""grid-container"">
        <!-- Grid items will be dynamically added here -->
    </div>    ","null","","","","","","","","","","","",""
"","null","html-keyboard-response","165","168773","0.0-11.0-0.25","mt7a0Uxg8T","62851efba924ed81f6f0e7f4","6617fad957f7c6a12ea16e26","6622c9d4d394ea6bbdb6e086","fixation cross","null","","","","","","","","","","","",""
"","777","html-keyboard-response","166","169550","0.0-11.0-1.25","mt7a0Uxg8T","62851efba924ed81f6f0e7f4","6617fad957f7c6a12ea16e26","6622c9d4d394ea6bbdb6e086","image grid","q","","","","","Ontogenetic_Distractor_Threat_target","2500","ongrid","q","8","Ontogenetic","true","experimental"
"","null","html-keyboard-response","167","169707","0.0-11.0-2.25","mt7a0Uxg8T","62851efba924ed81f6f0e7f4","6617fad957f7c6a12ea16e26","6622c9d4d394ea6bbdb6e086","
    <div id=""grid-container"">
        <!-- Grid items will be dynamically added here -->
    </div>    ","null","","","","","","","","","","","",""
"","null","html-keyboard-response","168","170434","0.0-11.0-0.26","mt7a0Uxg8T","62851efba924ed81f6f0e7f4","6617fad957f7c6a12ea16e26","6622c9d4d394ea6bbdb6e086","fixation cross","null","","","","","","","","","","","",""
"","685","html-keyboard-response","169","171120","0.0-11.0-1.26","mt7a0Uxg8T","62851efba924ed81f6f0e7f4","6617fad957f7c6a12ea16e26","6622c9d4d394ea6bbdb6e086","image grid","q","","","","","Ontogenetic_Distractor_Threat_target","2500","ongrid","q","8","Ontogenetic","true","experimental"
"","null","html-keyboard-response","170","171277","0.0-11.0-2.26","mt7a0Uxg8T","62851efba924ed81f6f0e7f4","6617fad957f7c6a12ea16e26","6622c9d4d394ea6bbdb6e086","
    <div id=""grid-container"">
        <!-- Grid items will be dynamically added here -->
    </div>    ","null","","","","","","","","","","","",""
"","null","html-keyboard-response","171","172010","0.0-11.0-0.27","mt7a0Uxg8T","62851efba924ed81f6f0e7f4","6617fad957f7c6a12ea16e26","6622c9d4d394ea6bbdb6e086","fixation cross","null","","","","","","","","","","","",""
"","565","html-keyboard-response","172","172576","0.0-11.0-1.27","mt7a0Uxg8T","62851efba924ed81f6f0e7f4","6617fad957f7c6a12ea16e26","6622c9d4d394ea6bbdb6e086","image grid","p","","","","","Ontogenetic_Distractor_Nonthreat_target","2500","ongrid","p","9","Ontogenetic","true","experimental"
"","null","html-keyboard-response","173","172729","0.0-11.0-2.27","mt7a0Uxg8T","62851efba924ed81f6f0e7f4","6617fad957f7c6a12ea16e26","6622c9d4d394ea6bbdb6e086","
    <div id=""grid-container"">
        <!-- Grid items will be dynamically added here -->
    </div>    ","null","","","","","","","","","","","",""
"","null","html-keyboard-response","174","173457","0.0-11.0-0.28","mt7a0Uxg8T","62851efba924ed81f6f0e7f4","6617fad957f7c6a12ea16e26","6622c9d4d394ea6bbdb6e086","fixation cross","null","","","","","","","","","","","",""
"","989","html-keyboard-response","175","174446","0.0-11.0-1.28","mt7a0Uxg8T","62851efba924ed81f6f0e7f4","6617fad957f7c6a12ea16e26","6622c9d4d394ea6bbdb6e086","image grid"," ","","","","","Ontogenetic_Distractor_notarget","2500","ongrid"," ","8","Ontogenetic","true","experimental"
"","null","html-keyboard-response","176","174601","0.0-11.0-2.28","mt7a0Uxg8T","62851efba924ed81f6f0e7f4","6617fad957f7c6a12ea16e26","6622c9d4d394ea6bbdb6e086","
    <div id=""grid-container"">
        <!-- Grid items will be dynamically added here -->
    </div>    ","null","","","","","","","","","","","",""
"","null","html-keyboard-response","177","175336","0.0-11.0-0.29","mt7a0Uxg8T","62851efba924ed81f6f0e7f4","6617fad957f7c6a12ea16e26","6622c9d4d394ea6bbdb6e086","fixation cross","null","","","","","","","","","","","",""
"","1623","html-keyboard-response","178","176951","0.0-11.0-1.29","mt7a0Uxg8T","62851efba924ed81f6f0e7f4","6617fad957f7c6a12ea16e26","6622c9d4d394ea6bbdb6e086","image grid","p","","","","","Ontogenetic_Distractor_Nonthreat_target","2500","ongrid","p","6","Ontogenetic","true","experimental"
"","null","html-keyboard-response","179","177113","0.0-11.0-2.29","mt7a0Uxg8T","62851efba924ed81f6f0e7f4","6617fad957f7c6a12ea16e26","6622c9d4d394ea6bbdb6e086","
    <div id=""grid-container"">
        <!-- Grid items will be dynamically added here -->
    </div>    ","null","","","","","","","","","","","",""
"","null","html-keyboard-response","180","177830","0.0-11.0-0.30","mt7a0Uxg8T","62851efba924ed81f6f0e7f4","6617fad957f7c6a12ea16e26","6622c9d4d394ea6bbdb6e086","fixation cross","null","","","","","","","","","","","",""
"","993","html-keyboard-response","181","178823","0.0-11.0-1.30","mt7a0Uxg8T","62851efba924ed81f6f0e7f4","6617fad957f7c6a12ea16e26","6622c9d4d394ea6bbdb6e086","image grid","q","","","","","Ontogenetic_Distractor_Threat_target","2500","ongrid","q","1","Ontogenetic","true","experimental"
"","null","html-keyboard-response","182","179001","0.0-11.0-2.30","mt7a0Uxg8T","62851efba924ed81f6f0e7f4","6617fad957f7c6a12ea16e26","6622c9d4d394ea6bbdb6e086","
    <div id=""grid-container"">
        <!-- Grid items will be dynamically added here -->
    </div>    ","null","","","","","","","","","","","",""
"","null","html-keyboard-response","183","179717","0.0-11.0-0.31","mt7a0Uxg8T","62851efba924ed81f6f0e7f4","6617fad957f7c6a12ea16e26","6622c9d4d394ea6bbdb6e086","fixation cross","null","","","","","","","","","","","",""
"","962","html-keyboard-response","184","180680","0.0-11.0-1.31","mt7a0Uxg8T","62851efba924ed81f6f0e7f4","6617fad957f7c6a12ea16e26","6622c9d4d394ea6bbdb6e086","image grid","p","","","","","Ontogenetic_Distractor_Nonthreat_target","2500","ongrid","p","2","Ontogenetic","true","experimental"
"","null","html-keyboard-response","185","180835","0.0-11.0-2.31","mt7a0Uxg8T","62851efba924ed81f6f0e7f4","6617fad957f7c6a12ea16e26","6622c9d4d394ea6bbdb6e086","
    <div id=""grid-container"">
        <!-- Grid items will be dynamically added here -->
    </div>    ","null","","","","","","","","","","","",""
"","null","html-keyboard-response","186","181568","0.0-11.0-0.32","mt7a0Uxg8T","62851efba924ed81f6f0e7f4","6617fad957f7c6a12ea16e26","6622c9d4d394ea6bbdb6e086","fixation cross","null","","","","","","","","","","","",""
"","1031","html-keyboard-response","187","182600","0.0-11.0-1.32","mt7a0Uxg8T","62851efba924ed81f6f0e7f4","6617fad957f7c6a12ea16e26","6622c9d4d394ea6bbdb6e086","image grid","q","","","","","Ontogenetic_Distractor_Threat_target","2500","ongrid","q","3","Ontogenetic","true","experimental"
"","null","html-keyboard-response","188","182754","0.0-11.0-2.32","mt7a0Uxg8T","62851efba924ed81f6f0e7f4","6617fad957f7c6a12ea16e26","6622c9d4d394ea6bbdb6e086","
    <div id=""grid-container"">
        <!-- Grid items will be dynamically added here -->
    </div>    ","null","","","","","","","","","","","",""
"","null","html-keyboard-response","189","183471","0.0-11.0-0.33","mt7a0Uxg8T","62851efba924ed81f6f0e7f4","6617fad957f7c6a12ea16e26","6622c9d4d394ea6bbdb6e086","fixation cross","null","","","","","","","","","","","",""
"","728","html-keyboard-response","190","184199","0.0-11.0-1.33","mt7a0Uxg8T","62851efba924ed81f6f0e7f4","6617fad957f7c6a12ea16e26","6622c9d4d394ea6bbdb6e086","image grid","q","","","","","Ontogenetic_Distractor_Threat_target","2500","ongrid","q","7","Ontogenetic","true","experimental"
"","null","html-keyboard-response","191","184367","0.0-11.0-2.33","mt7a0Uxg8T","62851efba924ed81f6f0e7f4","6617fad957f7c6a12ea16e26","6622c9d4d394ea6bbdb6e086","
    <div id=""grid-container"">
        <!-- Grid items will be dynamically added here -->
    </div>    ","null","","","","","","","","","","","",""
"","null","html-keyboard-response","192","185083","0.0-11.0-0.34","mt7a0Uxg8T","62851efba924ed81f6f0e7f4","6617fad957f7c6a12ea16e26","6622c9d4d394ea6bbdb6e086","fixation cross","null","","","","","","","","","","","",""
"","731","html-keyboard-response","193","185814","0.0-11.0-1.34","mt7a0Uxg8T","62851efba924ed81f6f0e7f4","6617fad957f7c6a12ea16e26","6622c9d4d394ea6bbdb6e086","image grid","p","","","","","Ontogenetic_Distractor_Nonthreat_target","2500","ongrid","p","1","Ontogenetic","true","experimental"
"","null","html-keyboard-response","194","185968","0.0-11.0-2.34","mt7a0Uxg8T","62851efba924ed81f6f0e7f4","6617fad957f7c6a12ea16e26","6622c9d4d394ea6bbdb6e086","
    <div id=""grid-container"">
        <!-- Grid items will be dynamically added here -->
    </div>    ","null","","","","","","","","","","","",""
"","null","html-keyboard-response","195","186686","0.0-11.0-0.35","mt7a0Uxg8T","62851efba924ed81f6f0e7f4","6617fad957f7c6a12ea16e26","6622c9d4d394ea6bbdb6e086","fixation cross","null","","","","","","","","","","","",""
"","777","html-keyboard-response","196","187463","0.0-11.0-1.35","mt7a0Uxg8T","62851efba924ed81f6f0e7f4","6617fad957f7c6a12ea16e26","6622c9d4d394ea6bbdb6e086","image grid","p","","","","","Ontogenetic_Distractor_Nonthreat_target","2500","ongrid","p","8","Ontogenetic","true","experimental"
"","null","html-keyboard-response","197","187615","0.0-11.0-2.35","mt7a0Uxg8T","62851efba924ed81f6f0e7f4","6617fad957f7c6a12ea16e26","6622c9d4d394ea6bbdb6e086","
    <div id=""grid-container"">
        <!-- Grid items will be dynamically added here -->
    </div>    ","null","","","","","","","","","","","",""
"","null","html-keyboard-response","198","188336","0.0-11.0-0.36","mt7a0Uxg8T","62851efba924ed81f6f0e7f4","6617fad957f7c6a12ea16e26","6622c9d4d394ea6bbdb6e086","fixation cross","null","","","","","","","","","","","",""
"","1319","html-keyboard-response","199","189655","0.0-11.0-1.36","mt7a0Uxg8T","62851efba924ed81f6f0e7f4","6617fad957f7c6a12ea16e26","6622c9d4d394ea6bbdb6e086","image grid","p","","","","","Ontogenetic_Distractor_Nonthreat_target","2500","ongrid","p","6","Ontogenetic","true","experimental"
"","null","html-keyboard-response","200","189818","0.0-11.0-2.36","mt7a0Uxg8T","62851efba924ed81f6f0e7f4","6617fad957f7c6a12ea16e26","6622c9d4d394ea6bbdb6e086","
    <div id=""grid-container"">
        <!-- Grid items will be dynamically added here -->
    </div>    ","null","","","","","","","","","","","",""
"","null","html-keyboard-response","201","190535","0.0-11.0-0.37","mt7a0Uxg8T","62851efba924ed81f6f0e7f4","6617fad957f7c6a12ea16e26","6622c9d4d394ea6bbdb6e086","fixation cross","null","","","","","","","","","","","",""
"","880","html-keyboard-response","202","191415","0.0-11.0-1.37","mt7a0Uxg8T","62851efba924ed81f6f0e7f4","6617fad957f7c6a12ea16e26","6622c9d4d394ea6bbdb6e086","image grid","q","","","","","Ontogenetic_Distractor_Nonthreat_target","2500","ongrid","p","1","Ontogenetic","false","experimental"
"","159","html-keyboard-response","203","191575","0.0-11.0-2.37","mt7a0Uxg8T","62851efba924ed81f6f0e7f4","6617fad957f7c6a12ea16e26","6622c9d4d394ea6bbdb6e086","
    <div id=""grid-container"">
        <!-- Grid items will be dynamically added here -->
    </div>    ","p","","","","","","","","","","","",""
"","null","html-keyboard-response","204","192306","0.0-11.0-0.38","mt7a0Uxg8T","62851efba924ed81f6f0e7f4","6617fad957f7c6a12ea16e26","6622c9d4d394ea6bbdb6e086","fixation cross","null","","","","","","","","","","","",""
"","1126","html-keyboard-response","205","193432","0.0-11.0-1.38","mt7a0Uxg8T","62851efba924ed81f6f0e7f4","6617fad957f7c6a12ea16e26","6622c9d4d394ea6bbdb6e086","image grid","p","","","","","Ontogenetic_Distractor_Nonthreat_target","2500","ongrid","p","8","Ontogenetic","true","experimental"
"","null","html-keyboard-response","206","193587","0.0-11.0-2.38","mt7a0Uxg8T","62851efba924ed81f6f0e7f4","6617fad957f7c6a12ea16e26","6622c9d4d394ea6bbdb6e086","
    <div id=""grid-container"">
        <!-- Grid items will be dynamically added here -->
    </div>    ","null","","","","","","","","","","","",""
"","null","html-keyboard-response","207","194325","0.0-11.0-0.39","mt7a0Uxg8T","62851efba924ed81f6f0e7f4","6617fad957f7c6a12ea16e26","6622c9d4d394ea6bbdb6e086","fixation cross","null","","","","","","","","","","","",""
"","1106","html-keyboard-response","208","195432","0.0-11.0-1.39","mt7a0Uxg8T","62851efba924ed81f6f0e7f4","6617fad957f7c6a12ea16e26","6622c9d4d394ea6bbdb6e086","image grid"," ","","","","","Ontogenetic_Distractor_notarget","2500","ongrid"," ","7","Ontogenetic","true","experimental"
"","null","html-keyboard-response","209","195584","0.0-11.0-2.39","mt7a0Uxg8T","62851efba924ed81f6f0e7f4","6617fad957f7c6a12ea16e26","6622c9d4d394ea6bbdb6e086","
    <div id=""grid-container"">
        <!-- Grid items will be dynamically added here -->
    </div>    ","null","","","","","","","","","","","",""
"","1250","html-keyboard-response","210","197063","0.0-12.0","mt7a0Uxg8T","62851efba924ed81f6f0e7f4","6617fad957f7c6a12ea16e26","6622c9d4d394ea6bbdb6e086","break screen"," ","","","","","","","","","","","",""
"","null","html-keyboard-response","211","199591","0.0-13.0-0.0","mt7a0Uxg8T","62851efba924ed81f6f0e7f4","6617fad957f7c6a12ea16e26","6622c9d4d394ea6bbdb6e086","fixation cross","null","","","","","","","","","","","",""
"","1614","html-keyboard-response","212","201205","0.0-13.0-1.0","mt7a0Uxg8T","62851efba924ed81f6f0e7f4","6617fad957f7c6a12ea16e26","6622c9d4d394ea6bbdb6e086","image grid","p","","","","","Phylogenetic_Distractor_Nonthreat_target","2500","ongrid","p","8","Phylogenetic","true","experimental"
"","null","html-keyboard-response","213","201368","0.0-13.0-2.0","mt7a0Uxg8T","62851efba924ed81f6f0e7f4","6617fad957f7c6a12ea16e26","6622c9d4d394ea6bbdb6e086","
    <div id=""grid-container"">
        <!-- Grid items will be dynamically added here -->
    </div>    ","null","","","","","","","","","","","",""
"","null","html-keyboard-response","214","202114","0.0-13.0-0.1","mt7a0Uxg8T","62851efba924ed81f6f0e7f4","6617fad957f7c6a12ea16e26","6622c9d4d394ea6bbdb6e086","fixation cross","null","","","","","","","","","","","",""
"","883","html-keyboard-response","215","202998","0.0-13.0-1.1","mt7a0Uxg8T","62851efba924ed81f6f0e7f4","6617fad957f7c6a12ea16e26","6622c9d4d394ea6bbdb6e086","image grid","q","","","","","Phylogenetic_Distractor_Threat_target","2500","ongrid","q","9","Phylogenetic","true","experimental"
"","null","html-keyboard-response","216","203154","0.0-13.0-2.1","mt7a0Uxg8T","62851efba924ed81f6f0e7f4","6617fad957f7c6a12ea16e26","6622c9d4d394ea6bbdb6e086","
    <div id=""grid-container"">
        <!-- Grid items will be dynamically added here -->
    </div>    ","null","","","","","","","","","","","",""
"","null","html-keyboard-response","217","203865","0.0-13.0-0.2","mt7a0Uxg8T","62851efba924ed81f6f0e7f4","6617fad957f7c6a12ea16e26","6622c9d4d394ea6bbdb6e086","fixation cross","null","","","","","","","","","","","",""
"","1277","html-keyboard-response","218","205143","0.0-13.0-1.2","mt7a0Uxg8T","62851efba924ed81f6f0e7f4","6617fad957f7c6a12ea16e26","6622c9d4d394ea6bbdb6e086","image grid","q","","","","","Phylogenetic_Distractor_Nonthreat_target","2500","ongrid","p","6","Phylogenetic","false","experimental"
"","null","html-keyboard-response","219","205296","0.0-13.0-2.2","mt7a0Uxg8T","62851efba924ed81f6f0e7f4","6617fad957f7c6a12ea16e26","6622c9d4d394ea6bbdb6e086","
    <div id=""grid-container"">
        <!-- Grid items will be dynamically added here -->
    </div>    ","null","","","","","","","","","","","",""
"","null","html-keyboard-response","220","206029","0.0-13.0-0.3","mt7a0Uxg8T","62851efba924ed81f6f0e7f4","6617fad957f7c6a12ea16e26","6622c9d4d394ea6bbdb6e086","fixation cross","null","","","","","","","","","","","",""
"","1242","html-keyboard-response","221","207272","0.0-13.0-1.3","mt7a0Uxg8T","62851efba924ed81f6f0e7f4","6617fad957f7c6a12ea16e26","6622c9d4d394ea6bbdb6e086","image grid","q","","","","","Phylogenetic_Distractor_Nonthreat_target","2500","ongrid","p","4","Phylogenetic","false","experimental"
"","null","html-keyboard-response","222","207425","0.0-13.0-2.3","mt7a0Uxg8T","62851efba924ed81f6f0e7f4","6617fad957f7c6a12ea16e26","6622c9d4d394ea6bbdb6e086","
    <div id=""grid-container"">
        <!-- Grid items will be dynamically added here -->
    </div>    ","null","","","","","","","","","","","",""
"","null","html-keyboard-response","223","208131","0.0-13.0-0.4","mt7a0Uxg8T","62851efba924ed81f6f0e7f4","6617fad957f7c6a12ea16e26","6622c9d4d394ea6bbdb6e086","fixation cross","null","","","","","","","","","","","",""
"","1267","html-keyboard-response","224","209399","0.0-13.0-1.4","mt7a0Uxg8T","62851efba924ed81f6f0e7f4","6617fad957f7c6a12ea16e26","6622c9d4d394ea6bbdb6e086","image grid","p","","","","","Phylogenetic_Distractor_Nonthreat_target","2500","ongrid","p","6","Phylogenetic","true","experimental"
"","null","html-keyboard-response","225","209575","0.0-13.0-2.4","mt7a0Uxg8T","62851efba924ed81f6f0e7f4","6617fad957f7c6a12ea16e26","6622c9d4d394ea6bbdb6e086","
    <div id=""grid-container"">
        <!-- Grid items will be dynamically added here -->
    </div>    ","null","","","","","","","","","","","",""
"","null","html-keyboard-response","226","210303","0.0-13.0-0.5","mt7a0Uxg8T","62851efba924ed81f6f0e7f4","6617fad957f7c6a12ea16e26","6622c9d4d394ea6bbdb6e086","fixation cross","null","","","","","","","","","","","",""
"","919","html-keyboard-response","227","211223","0.0-13.0-1.5","mt7a0Uxg8T","62851efba924ed81f6f0e7f4","6617fad957f7c6a12ea16e26","6622c9d4d394ea6bbdb6e086","image grid","p","","","","","Phylogenetic_Distractor_Nonthreat_target","2500","ongrid","p","6","Phylogenetic","true","experimental"
"","null","html-keyboard-response","228","211381","0.0-13.0-2.5","mt7a0Uxg8T","62851efba924ed81f6f0e7f4","6617fad957f7c6a12ea16e26","6622c9d4d394ea6bbdb6e086","
    <div id=""grid-container"">
        <!-- Grid items will be dynamically added here -->
    </div>    ","null","","","","","","","","","","","",""
"","null","html-keyboard-response","229","212103","0.0-13.0-0.6","mt7a0Uxg8T","62851efba924ed81f6f0e7f4","6617fad957f7c6a12ea16e26","6622c9d4d394ea6bbdb6e086","fixation cross","null","","","","","","","","","","","",""
"","1487","html-keyboard-response","230","213591","0.0-13.0-1.6","mt7a0Uxg8T","62851efba924ed81f6f0e7f4","6617fad957f7c6a12ea16e26","6622c9d4d394ea6bbdb6e086","image grid","q","","","","","Phylogenetic_Distractor_Nonthreat_target","2500","ongrid","p","7","Phylogenetic","false","experimental"
"","null","html-keyboard-response","231","213749","0.0-13.0-2.6","mt7a0Uxg8T","62851efba924ed81f6f0e7f4","6617fad957f7c6a12ea16e26","6622c9d4d394ea6bbdb6e086","
    <div id=""grid-container"">
        <!-- Grid items will be dynamically added here -->
    </div>    ","null","","","","","","","","","","","",""
"","null","html-keyboard-response","232","214475","0.0-13.0-0.7","mt7a0Uxg8T","62851efba924ed81f6f0e7f4","6617fad957f7c6a12ea16e26","6622c9d4d394ea6bbdb6e086","fixation cross","null","","","","","","","","","","","",""
"","764","html-keyboard-response","233","215240","0.0-13.0-1.7","mt7a0Uxg8T","62851efba924ed81f6f0e7f4","6617fad957f7c6a12ea16e26","6622c9d4d394ea6bbdb6e086","image grid","p","","","","","Phylogenetic_Distractor_Nonthreat_target","2500","ongrid","p","2","Phylogenetic","true","experimental"
"","null","html-keyboard-response","234","215394","0.0-13.0-2.7","mt7a0Uxg8T","62851efba924ed81f6f0e7f4","6617fad957f7c6a12ea16e26","6622c9d4d394ea6bbdb6e086","
    <div id=""grid-container"">
        <!-- Grid items will be dynamically added here -->
    </div>    ","null","","","","","","","","","","","",""
"","null","html-keyboard-response","235","216098","0.0-13.0-0.8","mt7a0Uxg8T","62851efba924ed81f6f0e7f4","6617fad957f7c6a12ea16e26","6622c9d4d394ea6bbdb6e086","fixation cross","null","","","","","","","","","","","",""
"","837","html-keyboard-response","236","216935","0.0-13.0-1.8","mt7a0Uxg8T","62851efba924ed81f6f0e7f4","6617fad957f7c6a12ea16e26","6622c9d4d394ea6bbdb6e086","image grid","q","","","","","Phylogenetic_Distractor_Threat_target","2500","ongrid","q","7","Phylogenetic","true","experimental"
"","null","html-keyboard-response","237","217094","0.0-13.0-2.8","mt7a0Uxg8T","62851efba924ed81f6f0e7f4","6617fad957f7c6a12ea16e26","6622c9d4d394ea6bbdb6e086","
    <div id=""grid-container"">
        <!-- Grid items will be dynamically added here -->
    </div>    ","null","","","","","","","","","","","",""
"","null","html-keyboard-response","238","217817","0.0-13.0-0.9","mt7a0Uxg8T","62851efba924ed81f6f0e7f4","6617fad957f7c6a12ea16e26","6622c9d4d394ea6bbdb6e086","fixation cross","null","","","","","","","","","","","",""
"","1422","html-keyboard-response","239","219239","0.0-13.0-1.9","mt7a0Uxg8T","62851efba924ed81f6f0e7f4","6617fad957f7c6a12ea16e26","6622c9d4d394ea6bbdb6e086","image grid"," ","","","","","Phylogenetic_Distractor_notarget","2500","ongrid"," ","4","Phylogenetic","true","experimental"
"","null","html-keyboard-response","240","219403","0.0-13.0-2.9","mt7a0Uxg8T","62851efba924ed81f6f0e7f4","6617fad957f7c6a12ea16e26","6622c9d4d394ea6bbdb6e086","
    <div id=""grid-container"">
        <!-- Grid items will be dynamically added here -->
    </div>    ","null","","","","","","","","","","","",""
"","null","html-keyboard-response","241","220130","0.0-13.0-0.10","mt7a0Uxg8T","62851efba924ed81f6f0e7f4","6617fad957f7c6a12ea16e26","6622c9d4d394ea6bbdb6e086","fixation cross","null","","","","","","","","","","","",""
"","1141","html-keyboard-response","242","221271","0.0-13.0-1.10","mt7a0Uxg8T","62851efba924ed81f6f0e7f4","6617fad957f7c6a12ea16e26","6622c9d4d394ea6bbdb6e086","image grid","q","","","","","Phylogenetic_Distractor_Threat_target","2500","ongrid","q","1","Phylogenetic","true","experimental"
"","null","html-keyboard-response","243","221432","0.0-13.0-2.10","mt7a0Uxg8T","62851efba924ed81f6f0e7f4","6617fad957f7c6a12ea16e26","6622c9d4d394ea6bbdb6e086","
    <div id=""grid-container"">
        <!-- Grid items will be dynamically added here -->
    </div>    ","null","","","","","","","","","","","",""
"","null","html-keyboard-response","244","222160","0.0-13.0-0.11","mt7a0Uxg8T","62851efba924ed81f6f0e7f4","6617fad957f7c6a12ea16e26","6622c9d4d394ea6bbdb6e086","fixation cross","null","","","","","","","","","","","",""
"","711","html-keyboard-response","245","222871","0.0-13.0-1.11","mt7a0Uxg8T","62851efba924ed81f6f0e7f4","6617fad957f7c6a12ea16e26","6622c9d4d394ea6bbdb6e086","image grid","q","","","","","Phylogenetic_Distractor_Threat_target","2500","ongrid","q","4","Phylogenetic","true","experimental"
"","null","html-keyboard-response","246","223024","0.0-13.0-2.11","mt7a0Uxg8T","62851efba924ed81f6f0e7f4","6617fad957f7c6a12ea16e26","6622c9d4d394ea6bbdb6e086","
    <div id=""grid-container"">
        <!-- Grid items will be dynamically added here -->
    </div>    ","null","","","","","","","","","","","",""
"","null","html-keyboard-response","247","223752","0.0-13.0-0.12","mt7a0Uxg8T","62851efba924ed81f6f0e7f4","6617fad957f7c6a12ea16e26","6622c9d4d394ea6bbdb6e086","fixation cross","null","","","","","","","","","","","",""
"","719","html-keyboard-response","248","224471","0.0-13.0-1.12","mt7a0Uxg8T","62851efba924ed81f6f0e7f4","6617fad957f7c6a12ea16e26","6622c9d4d394ea6bbdb6e086","image grid","q","","","","","Phylogenetic_Distractor_Threat_target","2500","ongrid","q","5","Phylogenetic","true","experimental"
"","null","html-keyboard-response","249","224627","0.0-13.0-2.12","mt7a0Uxg8T","62851efba924ed81f6f0e7f4","6617fad957f7c6a12ea16e26","6622c9d4d394ea6bbdb6e086","
    <div id=""grid-container"">
        <!-- Grid items will be dynamically added here -->
    </div>    ","null","","","","","","","","","","","",""
"","null","html-keyboard-response","250","225354","0.0-13.0-0.13","mt7a0Uxg8T","62851efba924ed81f6f0e7f4","6617fad957f7c6a12ea16e26","6622c9d4d394ea6bbdb6e086","fixation cross","null","","","","","","","","","","","",""
"","733","html-keyboard-response","251","226087","0.0-13.0-1.13","mt7a0Uxg8T","62851efba924ed81f6f0e7f4","6617fad957f7c6a12ea16e26","6622c9d4d394ea6bbdb6e086","image grid","q","","","","","Phylogenetic_Distractor_Threat_target","2500","ongrid","q","2","Phylogenetic","true","experimental"
"","null","html-keyboard-response","252","226246","0.0-13.0-2.13","mt7a0Uxg8T","62851efba924ed81f6f0e7f4","6617fad957f7c6a12ea16e26","6622c9d4d394ea6bbdb6e086","
    <div id=""grid-container"">
        <!-- Grid items will be dynamically added here -->
    </div>    ","null","","","","","","","","","","","",""
"","null","html-keyboard-response","253","226985","0.0-13.0-0.14","mt7a0Uxg8T","62851efba924ed81f6f0e7f4","6617fad957f7c6a12ea16e26","6622c9d4d394ea6bbdb6e086","fixation cross","null","","","","","","","","","","","",""
"","718","html-keyboard-response","254","227703","0.0-13.0-1.14","mt7a0Uxg8T","62851efba924ed81f6f0e7f4","6617fad957f7c6a12ea16e26","6622c9d4d394ea6bbdb6e086","image grid","q","","","","","Phylogenetic_Distractor_Threat_target","2500","ongrid","q","7","Phylogenetic","true","experimental"
"","null","html-keyboard-response","255","227870","0.0-13.0-2.14","mt7a0Uxg8T","62851efba924ed81f6f0e7f4","6617fad957f7c6a12ea16e26","6622c9d4d394ea6bbdb6e086","
    <div id=""grid-container"">
        <!-- Grid items will be dynamically added here -->
    </div>    ","null","","","","","","","","","","","",""
"","null","html-keyboard-response","256","228602","0.0-13.0-0.15","mt7a0Uxg8T","62851efba924ed81f6f0e7f4","6617fad957f7c6a12ea16e26","6622c9d4d394ea6bbdb6e086","fixation cross","null","","","","","","","","","","","",""
"","652","html-keyboard-response","257","229255","0.0-13.0-1.15","mt7a0Uxg8T","62851efba924ed81f6f0e7f4","6617fad957f7c6a12ea16e26","6622c9d4d394ea6bbdb6e086","image grid","q","","","","","Phylogenetic_Distractor_Threat_target","2500","ongrid","q","5","Phylogenetic","true","experimental"
"","null","html-keyboard-response","258","229419","0.0-13.0-2.15","mt7a0Uxg8T","62851efba924ed81f6f0e7f4","6617fad957f7c6a12ea16e26","6622c9d4d394ea6bbdb6e086","
    <div id=""grid-container"">
        <!-- Grid items will be dynamically added here -->
    </div>    ","null","","","","","","","","","","","",""
"","null","html-keyboard-response","259","230146","0.0-13.0-0.16","mt7a0Uxg8T","62851efba924ed81f6f0e7f4","6617fad957f7c6a12ea16e26","6622c9d4d394ea6bbdb6e086","fixation cross","null","","","","","","","","","","","",""
"","1219","html-keyboard-response","260","231366","0.0-13.0-1.16","mt7a0Uxg8T","62851efba924ed81f6f0e7f4","6617fad957f7c6a12ea16e26","6622c9d4d394ea6bbdb6e086","image grid"," ","","","","","Phylogenetic_Distractor_notarget","2500","ongrid"," ","7","Phylogenetic","true","experimental"
"","null","html-keyboard-response","261","231523","0.0-13.0-2.16","mt7a0Uxg8T","62851efba924ed81f6f0e7f4","6617fad957f7c6a12ea16e26","6622c9d4d394ea6bbdb6e086","
    <div id=""grid-container"">
        <!-- Grid items will be dynamically added here -->
    </div>    ","null","","","","","","","","","","","",""
"","null","html-keyboard-response","262","232251","0.0-13.0-0.17","mt7a0Uxg8T","62851efba924ed81f6f0e7f4","6617fad957f7c6a12ea16e26","6622c9d4d394ea6bbdb6e086","fixation cross","null","","","","","","","","","","","",""
"","1147","html-keyboard-response","263","233399","0.0-13.0-1.17","mt7a0Uxg8T","62851efba924ed81f6f0e7f4","6617fad957f7c6a12ea16e26","6622c9d4d394ea6bbdb6e086","image grid"," ","","","","","Phylogenetic_Distractor_notarget","2500","ongrid"," ","3","Phylogenetic","true","experimental"
"","null","html-keyboard-response","264","233561","0.0-13.0-2.17","mt7a0Uxg8T","62851efba924ed81f6f0e7f4","6617fad957f7c6a12ea16e26","6622c9d4d394ea6bbdb6e086","
    <div id=""grid-container"">
        <!-- Grid items will be dynamically added here -->
    </div>    ","null","","","","","","","","","","","",""
"","null","html-keyboard-response","265","234282","0.0-13.0-0.18","mt7a0Uxg8T","62851efba924ed81f6f0e7f4","6617fad957f7c6a12ea16e26","6622c9d4d394ea6bbdb6e086","fixation cross","null","","","","","","","","","","","",""
"","685","html-keyboard-response","266","234967","0.0-13.0-1.18","mt7a0Uxg8T","62851efba924ed81f6f0e7f4","6617fad957f7c6a12ea16e26","6622c9d4d394ea6bbdb6e086","image grid","q","","","","","Phylogenetic_Distractor_Threat_target","2500","ongrid","q","3","Phylogenetic","true","experimental"
"","null","html-keyboard-response","267","235131","0.0-13.0-2.18","mt7a0Uxg8T","62851efba924ed81f6f0e7f4","6617fad957f7c6a12ea16e26","6622c9d4d394ea6bbdb6e086","
    <div id=""grid-container"">
        <!-- Grid items will be dynamically added here -->
    </div>    ","null","","","","","","","","","","","",""
"","null","html-keyboard-response","268","235849","0.0-13.0-0.19","mt7a0Uxg8T","62851efba924ed81f6f0e7f4","6617fad957f7c6a12ea16e26","6622c9d4d394ea6bbdb6e086","fixation cross","null","","","","","","","","","","","",""
"","910","html-keyboard-response","269","236759","0.0-13.0-1.19","mt7a0Uxg8T","62851efba924ed81f6f0e7f4","6617fad957f7c6a12ea16e26","6622c9d4d394ea6bbdb6e086","image grid","q","","","","","Phylogenetic_Distractor_Threat_target","2500","ongrid","q","9","Phylogenetic","true","experimental"
"","null","html-keyboard-response","270","236919","0.0-13.0-2.19","mt7a0Uxg8T","62851efba924ed81f6f0e7f4","6617fad957f7c6a12ea16e26","6622c9d4d394ea6bbdb6e086","
    <div id=""grid-container"">
        <!-- Grid items will be dynamically added here -->
    </div>    ","null","","","","","","","","","","","",""
"","null","html-keyboard-response","271","237652","0.0-13.0-0.20","mt7a0Uxg8T","62851efba924ed81f6f0e7f4","6617fad957f7c6a12ea16e26","6622c9d4d394ea6bbdb6e086","fixation cross","null","","","","","","","","","","","",""
"","1130","html-keyboard-response","272","238782","0.0-13.0-1.20","mt7a0Uxg8T","62851efba924ed81f6f0e7f4","6617fad957f7c6a12ea16e26","6622c9d4d394ea6bbdb6e086","image grid","p","","","","","Phylogenetic_Distractor_Nonthreat_target","2500","ongrid","p","8","Phylogenetic","true","experimental"
"","null","html-keyboard-response","273","238945","0.0-13.0-2.20","mt7a0Uxg8T","62851efba924ed81f6f0e7f4","6617fad957f7c6a12ea16e26","6622c9d4d394ea6bbdb6e086","
    <div id=""grid-container"">
        <!-- Grid items will be dynamically added here -->
    </div>    ","null","","","","","","","","","","","",""
"","null","html-keyboard-response","274","239663","0.0-13.0-0.21","mt7a0Uxg8T","62851efba924ed81f6f0e7f4","6617fad957f7c6a12ea16e26","6622c9d4d394ea6bbdb6e086","fixation cross","null","","","","","","","","","","","",""
"","576","html-keyboard-response","275","240239","0.0-13.0-1.21","mt7a0Uxg8T","62851efba924ed81f6f0e7f4","6617fad957f7c6a12ea16e26","6622c9d4d394ea6bbdb6e086","image grid","q","","","","","Phylogenetic_Distractor_Threat_target","2500","ongrid","q","1","Phylogenetic","true","experimental"
"","null","html-keyboard-response","276","240392","0.0-13.0-2.21","mt7a0Uxg8T","62851efba924ed81f6f0e7f4","6617fad957f7c6a12ea16e26","6622c9d4d394ea6bbdb6e086","
    <div id=""grid-container"">
        <!-- Grid items will be dynamically added here -->
    </div>    ","null","","","","","","","","","","","",""
"","null","html-keyboard-response","277","241118","0.0-13.0-0.22","mt7a0Uxg8T","62851efba924ed81f6f0e7f4","6617fad957f7c6a12ea16e26","6622c9d4d394ea6bbdb6e086","fixation cross","null","","","","","","","","","","","",""
"","1456","html-keyboard-response","278","242574","0.0-13.0-1.22","mt7a0Uxg8T","62851efba924ed81f6f0e7f4","6617fad957f7c6a12ea16e26","6622c9d4d394ea6bbdb6e086","image grid","p","","","","","Phylogenetic_Distractor_Nonthreat_target","2500","ongrid","p","3","Phylogenetic","true","experimental"
"","null","html-keyboard-response","279","242736","0.0-13.0-2.22","mt7a0Uxg8T","62851efba924ed81f6f0e7f4","6617fad957f7c6a12ea16e26","6622c9d4d394ea6bbdb6e086","
    <div id=""grid-container"">
        <!-- Grid items will be dynamically added here -->
    </div>    ","null","","","","","","","","","","","",""
"","null","html-keyboard-response","280","243463","0.0-13.0-0.23","mt7a0Uxg8T","62851efba924ed81f6f0e7f4","6617fad957f7c6a12ea16e26","6622c9d4d394ea6bbdb6e086","fixation cross","null","","","","","","","","","","","",""
"","663","html-keyboard-response","281","244126","0.0-13.0-1.23","mt7a0Uxg8T","62851efba924ed81f6f0e7f4","6617fad957f7c6a12ea16e26","6622c9d4d394ea6bbdb6e086","image grid","q","","","","","Phylogenetic_Distractor_Threat_target","2500","ongrid","q","9","Phylogenetic","true","experimental"
"","null","html-keyboard-response","282","244296","0.0-13.0-2.23","mt7a0Uxg8T","62851efba924ed81f6f0e7f4","6617fad957f7c6a12ea16e26","6622c9d4d394ea6bbdb6e086","
    <div id=""grid-container"">
        <!-- Grid items will be dynamically added here -->
    </div>    ","null","","","","","","","","","","","",""
"","null","html-keyboard-response","283","245024","0.0-13.0-0.24","mt7a0Uxg8T","62851efba924ed81f6f0e7f4","6617fad957f7c6a12ea16e26","6622c9d4d394ea6bbdb6e086","fixation cross","null","","","","","","","","","","","",""
"","1023","html-keyboard-response","284","246047","0.0-13.0-1.24","mt7a0Uxg8T","62851efba924ed81f6f0e7f4","6617fad957f7c6a12ea16e26","6622c9d4d394ea6bbdb6e086","image grid","q","","","","","Phylogenetic_Distractor_Nonthreat_target","2500","ongrid","p","3","Phylogenetic","false","experimental"
"","null","html-keyboard-response","285","246214","0.0-13.0-2.24","mt7a0Uxg8T","62851efba924ed81f6f0e7f4","6617fad957f7c6a12ea16e26","6622c9d4d394ea6bbdb6e086","
    <div id=""grid-container"">
        <!-- Grid items will be dynamically added here -->
    </div>    ","null","","","","","","","","","","","",""
"","null","html-keyboard-response","286","246941","0.0-13.0-0.25","mt7a0Uxg8T","62851efba924ed81f6f0e7f4","6617fad957f7c6a12ea16e26","6622c9d4d394ea6bbdb6e086","fixation cross","null","","","","","","","","","","","",""
"","1345","html-keyboard-response","287","248287","0.0-13.0-1.25","mt7a0Uxg8T","62851efba924ed81f6f0e7f4","6617fad957f7c6a12ea16e26","6622c9d4d394ea6bbdb6e086","image grid","q","","","","","Phylogenetic_Distractor_Nonthreat_target","2500","ongrid","p","3","Phylogenetic","false","experimental"
"","null","html-keyboard-response","288","248443","0.0-13.0-2.25","mt7a0Uxg8T","62851efba924ed81f6f0e7f4","6617fad957f7c6a12ea16e26","6622c9d4d394ea6bbdb6e086","
    <div id=""grid-container"">
        <!-- Grid items will be dynamically added here -->
    </div>    ","null","","","","","","","","","","","",""
"","null","html-keyboard-response","289","249187","0.0-13.0-0.26","mt7a0Uxg8T","62851efba924ed81f6f0e7f4","6617fad957f7c6a12ea16e26","6622c9d4d394ea6bbdb6e086","fixation cross","null","","","","","","","","","","","",""
"","1483","html-keyboard-response","290","250671","0.0-13.0-1.26","mt7a0Uxg8T","62851efba924ed81f6f0e7f4","6617fad957f7c6a12ea16e26","6622c9d4d394ea6bbdb6e086","image grid","p","","","","","Phylogenetic_Distractor_Nonthreat_target","2500","ongrid","p","4","Phylogenetic","true","experimental"
"","null","html-keyboard-response","291","250831","0.0-13.0-2.26","mt7a0Uxg8T","62851efba924ed81f6f0e7f4","6617fad957f7c6a12ea16e26","6622c9d4d394ea6bbdb6e086","
    <div id=""grid-container"">
        <!-- Grid items will be dynamically added here -->
    </div>    ","null","","","","","","","","","","","",""
"","null","html-keyboard-response","292","251575","0.0-13.0-0.27","mt7a0Uxg8T","62851efba924ed81f6f0e7f4","6617fad957f7c6a12ea16e26","6622c9d4d394ea6bbdb6e086","fixation cross","null","","","","","","","","","","","",""
"","1080","html-keyboard-response","293","252655","0.0-13.0-1.27","mt7a0Uxg8T","62851efba924ed81f6f0e7f4","6617fad957f7c6a12ea16e26","6622c9d4d394ea6bbdb6e086","image grid","p","","","","","Phylogenetic_Distractor_Nonthreat_target","2500","ongrid","p","6","Phylogenetic","true","experimental"
"","null","html-keyboard-response","294","252808","0.0-13.0-2.27","mt7a0Uxg8T","62851efba924ed81f6f0e7f4","6617fad957f7c6a12ea16e26","6622c9d4d394ea6bbdb6e086","
    <div id=""grid-container"">
        <!-- Grid items will be dynamically added here -->
    </div>    ","null","","","","","","","","","","","",""
"","null","html-keyboard-response","295","253536","0.0-13.0-0.28","mt7a0Uxg8T","62851efba924ed81f6f0e7f4","6617fad957f7c6a12ea16e26","6622c9d4d394ea6bbdb6e086","fixation cross","null","","","","","","","","","","","",""
"","1053","html-keyboard-response","296","254590","0.0-13.0-1.28","mt7a0Uxg8T","62851efba924ed81f6f0e7f4","6617fad957f7c6a12ea16e26","6622c9d4d394ea6bbdb6e086","image grid","q","","","","","Phylogenetic_Distractor_Nonthreat_target","2500","ongrid","p","2","Phylogenetic","false","experimental"
"","null","html-keyboard-response","297","254753","0.0-13.0-2.28","mt7a0Uxg8T","62851efba924ed81f6f0e7f4","6617fad957f7c6a12ea16e26","6622c9d4d394ea6bbdb6e086","
    <div id=""grid-container"">
        <!-- Grid items will be dynamically added here -->
    </div>    ","null","","","","","","","","","","","",""
"","null","html-keyboard-response","298","255482","0.0-13.0-0.29","mt7a0Uxg8T","62851efba924ed81f6f0e7f4","6617fad957f7c6a12ea16e26","6622c9d4d394ea6bbdb6e086","fixation cross","null","","","","","","","","","","","",""
"","564","html-keyboard-response","299","256046","0.0-13.0-1.29","mt7a0Uxg8T","62851efba924ed81f6f0e7f4","6617fad957f7c6a12ea16e26","6622c9d4d394ea6bbdb6e086","image grid","q","","","","","Phylogenetic_Distractor_Threat_target","2500","ongrid","q","5","Phylogenetic","true","experimental"
"","null","html-keyboard-response","300","256199","0.0-13.0-2.29","mt7a0Uxg8T","62851efba924ed81f6f0e7f4","6617fad957f7c6a12ea16e26","6622c9d4d394ea6bbdb6e086","
    <div id=""grid-container"">
        <!-- Grid items will be dynamically added here -->
    </div>    ","null","","","","","","","","","","","",""
"","null","html-keyboard-response","301","256919","0.0-13.0-0.30","mt7a0Uxg8T","62851efba924ed81f6f0e7f4","6617fad957f7c6a12ea16e26","6622c9d4d394ea6bbdb6e086","fixation cross","null","","","","","","","","","","","",""
"","823","html-keyboard-response","302","257743","0.0-13.0-1.30","mt7a0Uxg8T","62851efba924ed81f6f0e7f4","6617fad957f7c6a12ea16e26","6622c9d4d394ea6bbdb6e086","image grid","q","","","","","Phylogenetic_Distractor_Threat_target","2500","ongrid","q","6","Phylogenetic","true","experimental"
"","null","html-keyboard-response","303","257907","0.0-13.0-2.30","mt7a0Uxg8T","62851efba924ed81f6f0e7f4","6617fad957f7c6a12ea16e26","6622c9d4d394ea6bbdb6e086","
    <div id=""grid-container"">
        <!-- Grid items will be dynamically added here -->
    </div>    ","null","","","","","","","","","","","",""
"","null","html-keyboard-response","304","258628","0.0-13.0-0.31","mt7a0Uxg8T","62851efba924ed81f6f0e7f4","6617fad957f7c6a12ea16e26","6622c9d4d394ea6bbdb6e086","fixation cross","null","","","","","","","","","","","",""
"","1081","html-keyboard-response","305","259710","0.0-13.0-1.31","mt7a0Uxg8T","62851efba924ed81f6f0e7f4","6617fad957f7c6a12ea16e26","6622c9d4d394ea6bbdb6e086","image grid","q","","","","","Phylogenetic_Distractor_Nonthreat_target","2500","ongrid","p","3","Phylogenetic","false","experimental"
"","null","html-keyboard-response","306","259862","0.0-13.0-2.31","mt7a0Uxg8T","62851efba924ed81f6f0e7f4","6617fad957f7c6a12ea16e26","6622c9d4d394ea6bbdb6e086","
    <div id=""grid-container"">
        <!-- Grid items will be dynamically added here -->
    </div>    ","null","","","","","","","","","","","",""
"","null","html-keyboard-response","307","260597","0.0-13.0-0.32","mt7a0Uxg8T","62851efba924ed81f6f0e7f4","6617fad957f7c6a12ea16e26","6622c9d4d394ea6bbdb6e086","fixation cross","null","","","","","","","","","","","",""
"","537","html-keyboard-response","308","261135","0.0-13.0-1.32","mt7a0Uxg8T","62851efba924ed81f6f0e7f4","6617fad957f7c6a12ea16e26","6622c9d4d394ea6bbdb6e086","image grid","q","","","","","Phylogenetic_Distractor_Threat_target","2500","ongrid","q","5","Phylogenetic","true","experimental"
"","null","html-keyboard-response","309","261289","0.0-13.0-2.32","mt7a0Uxg8T","62851efba924ed81f6f0e7f4","6617fad957f7c6a12ea16e26","6622c9d4d394ea6bbdb6e086","
    <div id=""grid-container"">
        <!-- Grid items will be dynamically added here -->
    </div>    ","null","","","","","","","","","","","",""
"","null","html-keyboard-response","310","261997","0.0-13.0-0.33","mt7a0Uxg8T","62851efba924ed81f6f0e7f4","6617fad957f7c6a12ea16e26","6622c9d4d394ea6bbdb6e086","fixation cross","null","","","","","","","","","","","",""
"","608","html-keyboard-response","311","262605","0.0-13.0-1.33","mt7a0Uxg8T","62851efba924ed81f6f0e7f4","6617fad957f7c6a12ea16e26","6622c9d4d394ea6bbdb6e086","image grid","q","","","","","Phylogenetic_Distractor_Threat_target","2500","ongrid","q","2","Phylogenetic","true","experimental"
"","null","html-keyboard-response","312","262765","0.0-13.0-2.33","mt7a0Uxg8T","62851efba924ed81f6f0e7f4","6617fad957f7c6a12ea16e26","6622c9d4d394ea6bbdb6e086","
    <div id=""grid-container"">
        <!-- Grid items will be dynamically added here -->
    </div>    ","null","","","","","","","","","","","",""
"","null","html-keyboard-response","313","263482","0.0-13.0-0.34","mt7a0Uxg8T","62851efba924ed81f6f0e7f4","6617fad957f7c6a12ea16e26","6622c9d4d394ea6bbdb6e086","fixation cross","null","","","","","","","","","","","",""
"","740","html-keyboard-response","314","264223","0.0-13.0-1.34","mt7a0Uxg8T","62851efba924ed81f6f0e7f4","6617fad957f7c6a12ea16e26","6622c9d4d394ea6bbdb6e086","image grid","p","","","","","Phylogenetic_Distractor_Nonthreat_target","2500","ongrid","p","3","Phylogenetic","true","experimental"
"","null","html-keyboard-response","315","264395","0.0-13.0-2.34","mt7a0Uxg8T","62851efba924ed81f6f0e7f4","6617fad957f7c6a12ea16e26","6622c9d4d394ea6bbdb6e086","
    <div id=""grid-container"">
        <!-- Grid items will be dynamically added here -->
    </div>    ","null","","","","","","","","","","","",""
"","null","html-keyboard-response","316","265110","0.0-13.0-0.35","mt7a0Uxg8T","62851efba924ed81f6f0e7f4","6617fad957f7c6a12ea16e26","6622c9d4d394ea6bbdb6e086","fixation cross","null","","","","","","","","","","","",""
"","1080","html-keyboard-response","317","266190","0.0-13.0-1.35","mt7a0Uxg8T","62851efba924ed81f6f0e7f4","6617fad957f7c6a12ea16e26","6622c9d4d394ea6bbdb6e086","image grid","q","","","","","Phylogenetic_Distractor_Nonthreat_target","2500","ongrid","p","9","Phylogenetic","false","experimental"
"","null","html-keyboard-response","318","266365","0.0-13.0-2.35","mt7a0Uxg8T","62851efba924ed81f6f0e7f4","6617fad957f7c6a12ea16e26","6622c9d4d394ea6bbdb6e086","
    <div id=""grid-container"">
        <!-- Grid items will be dynamically added here -->
    </div>    ","null","","","","","","","","","","","",""
"","null","html-keyboard-response","319","267072","0.0-13.0-0.36","mt7a0Uxg8T","62851efba924ed81f6f0e7f4","6617fad957f7c6a12ea16e26","6622c9d4d394ea6bbdb6e086","fixation cross","null","","","","","","","","","","","",""
"","606","html-keyboard-response","320","267678","0.0-13.0-1.36","mt7a0Uxg8T","62851efba924ed81f6f0e7f4","6617fad957f7c6a12ea16e26","6622c9d4d394ea6bbdb6e086","image grid","q","","","","","Phylogenetic_Distractor_Threat_target","2500","ongrid","q","8","Phylogenetic","true","experimental"
"","null","html-keyboard-response","321","267849","0.0-13.0-2.36","mt7a0Uxg8T","62851efba924ed81f6f0e7f4","6617fad957f7c6a12ea16e26","6622c9d4d394ea6bbdb6e086","
    <div id=""grid-container"">
        <!-- Grid items will be dynamically added here -->
    </div>    ","null","","","","","","","","","","","",""
"","null","html-keyboard-response","322","268575","0.0-13.0-0.37","mt7a0Uxg8T","62851efba924ed81f6f0e7f4","6617fad957f7c6a12ea16e26","6622c9d4d394ea6bbdb6e086","fixation cross","null","","","","","","","","","","","",""
"","1600","html-keyboard-response","323","270175","0.0-13.0-1.37","mt7a0Uxg8T","62851efba924ed81f6f0e7f4","6617fad957f7c6a12ea16e26","6622c9d4d394ea6bbdb6e086","image grid"," ","","","","","Phylogenetic_Distractor_notarget","2500","ongrid"," ","4","Phylogenetic","true","experimental"
"","null","html-keyboard-response","324","270334","0.0-13.0-2.37","mt7a0Uxg8T","62851efba924ed81f6f0e7f4","6617fad957f7c6a12ea16e26","6622c9d4d394ea6bbdb6e086","
    <div id=""grid-container"">
        <!-- Grid items will be dynamically added here -->
    </div>    ","null","","","","","","","","","","","",""
"","null","html-keyboard-response","325","271043","0.0-13.0-0.38","mt7a0Uxg8T","62851efba924ed81f6f0e7f4","6617fad957f7c6a12ea16e26","6622c9d4d394ea6bbdb6e086","fixation cross","null","","","","","","","","","","","",""
"","714","html-keyboard-response","326","271757","0.0-13.0-1.38","mt7a0Uxg8T","62851efba924ed81f6f0e7f4","6617fad957f7c6a12ea16e26","6622c9d4d394ea6bbdb6e086","image grid","q","","","","","Phylogenetic_Distractor_Nonthreat_target","2500","ongrid","p","3","Phylogenetic","false","experimental"
"","null","html-keyboard-response","327","271914","0.0-13.0-2.38","mt7a0Uxg8T","62851efba924ed81f6f0e7f4","6617fad957f7c6a12ea16e26","6622c9d4d394ea6bbdb6e086","
    <div id=""grid-container"">
        <!-- Grid items will be dynamically added here -->
    </div>    ","null","","","","","","","","","","","",""
"","null","html-keyboard-response","328","272646","0.0-13.0-0.39","mt7a0Uxg8T","62851efba924ed81f6f0e7f4","6617fad957f7c6a12ea16e26","6622c9d4d394ea6bbdb6e086","fixation cross","null","","","","","","","","","","","",""
"","696","html-keyboard-response","329","273343","0.0-13.0-1.39","mt7a0Uxg8T","62851efba924ed81f6f0e7f4","6617fad957f7c6a12ea16e26","6622c9d4d394ea6bbdb6e086","image grid","q","","","","","Phylogenetic_Distractor_Threat_target","2500","ongrid","q","3","Phylogenetic","true","experimental"
"","null","html-keyboard-response","330","273496","0.0-13.0-2.39","mt7a0Uxg8T","62851efba924ed81f6f0e7f4","6617fad957f7c6a12ea16e26","6622c9d4d394ea6bbdb6e086","
    <div id=""grid-container"">
        <!-- Grid items will be dynamically added here -->
    </div>    ","null","","","","","","","","","","","",""
"","942","html-keyboard-response","331","274655","0.0-14.0","mt7a0Uxg8T","62851efba924ed81f6f0e7f4","6617fad957f7c6a12ea16e26","6622c9d4d394ea6bbdb6e086","break screen"," ","","","","","","","","","","","",""
"","null","html-keyboard-response","332","277187","0.0-15.0-0.0","mt7a0Uxg8T","62851efba924ed81f6f0e7f4","6617fad957f7c6a12ea16e26","6622c9d4d394ea6bbdb6e086","fixation cross","null","","","","","","","","","","","",""
"","null","html-keyboard-response","333","277988","0.0-15.0-1.0","mt7a0Uxg8T","62851efba924ed81f6f0e7f4","6617fad957f7c6a12ea16e26","6622c9d4d394ea6bbdb6e086","
        <div id=""grid-container"">
        <!-- Grid items will be dynamically added here -->
    </div>    ","null","","","","","","","","","","","",""
"","4201","html-keyboard-response","334","281389","0.0-15.0-2.0","mt7a0Uxg8T","62851efba924ed81f6f0e7f4","6617fad957f7c6a12ea16e26","6622c9d4d394ea6bbdb6e086","mask grid"," ","","","","","Ontogenetic_Distractor_Nonthreat_target","800","onmask","p","6","Ontogenetic","false","experimental"
"","null","html-keyboard-response","335","282094","0.0-15.0-0.1","mt7a0Uxg8T","62851efba924ed81f6f0e7f4","6617fad957f7c6a12ea16e26","6622c9d4d394ea6bbdb6e086","fixation cross","null","","","","","","","","","","","",""
"","null","html-keyboard-response","336","282904","0.0-15.0-1.1","mt7a0Uxg8T","62851efba924ed81f6f0e7f4","6617fad957f7c6a12ea16e26","6622c9d4d394ea6bbdb6e086","
        <div id=""grid-container"">
        <!-- Grid items will be dynamically added here -->
    </div>    ","null","","","","","","","","","","","",""
"","1894","html-keyboard-response","337","283999","0.0-15.0-2.1","mt7a0Uxg8T","62851efba924ed81f6f0e7f4","6617fad957f7c6a12ea16e26","6622c9d4d394ea6bbdb6e086","mask grid"," ","","","","","Ontogenetic_Distractor_Nonthreat_target","800","onmask","p","4","Ontogenetic","false","experimental"
"","null","html-keyboard-response","338","284719","0.0-15.0-0.2","mt7a0Uxg8T","62851efba924ed81f6f0e7f4","6617fad957f7c6a12ea16e26","6622c9d4d394ea6bbdb6e086","fixation cross","null","","","","","","","","","","","",""
"","null","html-keyboard-response","339","285531","0.0-15.0-1.2","mt7a0Uxg8T","62851efba924ed81f6f0e7f4","6617fad957f7c6a12ea16e26","6622c9d4d394ea6bbdb6e086","
        <div id=""grid-container"">
        <!-- Grid items will be dynamically added here -->
    </div>    ","null","","","","","","","","","","","",""
"","1378","html-keyboard-response","340","286110","0.0-15.0-2.2","mt7a0Uxg8T","62851efba924ed81f6f0e7f4","6617fad957f7c6a12ea16e26","6622c9d4d394ea6bbdb6e086","mask grid","q","","","","","Ontogenetic_Distractor_Threat_target","800","onmask","q","7","Ontogenetic","true","experimental"
"","null","html-keyboard-response","341","286829","0.0-15.0-0.3","mt7a0Uxg8T","62851efba924ed81f6f0e7f4","6617fad957f7c6a12ea16e26","6622c9d4d394ea6bbdb6e086","fixation cross","null","","","","","","","","","","","",""
"","737","html-keyboard-response","342","287567","0.0-15.0-1.3","mt7a0Uxg8T","62851efba924ed81f6f0e7f4","6617fad957f7c6a12ea16e26","6622c9d4d394ea6bbdb6e086","image grid","q","","","","","Ontogenetic_Distractor_Threat_target","800","ongrid","q","5","Ontogenetic","true","experimental"
"","null","html-keyboard-response","343","287720","0.0-15.0-2.3","mt7a0Uxg8T","62851efba924ed81f6f0e7f4","6617fad957f7c6a12ea16e26","6622c9d4d394ea6bbdb6e086","
    <div id=""grid-container"">
        <!-- Grid items will be dynamically added here -->
    </div>    ","null","","","","","","","","","","","",""
"","null","html-keyboard-response","344","288448","0.0-15.0-0.4","mt7a0Uxg8T","62851efba924ed81f6f0e7f4","6617fad957f7c6a12ea16e26","6622c9d4d394ea6bbdb6e086","fixation cross","null","","","","","","","","","","","",""
"","703","html-keyboard-response","345","289151","0.0-15.0-1.4","mt7a0Uxg8T","62851efba924ed81f6f0e7f4","6617fad957f7c6a12ea16e26","6622c9d4d394ea6bbdb6e086","image grid","q","","","","","Ontogenetic_Distractor_Threat_target","800","ongrid","q","1","Ontogenetic","true","experimental"
"","null","html-keyboard-response","346","289308","0.0-15.0-2.4","mt7a0Uxg8T","62851efba924ed81f6f0e7f4","6617fad957f7c6a12ea16e26","6622c9d4d394ea6bbdb6e086","
    <div id=""grid-container"">
        <!-- Grid items will be dynamically added here -->
    </div>    ","null","","","","","","","","","","","",""
"","null","html-keyboard-response","347","290051","0.0-15.0-0.5","mt7a0Uxg8T","62851efba924ed81f6f0e7f4","6617fad957f7c6a12ea16e26","6622c9d4d394ea6bbdb6e086","fixation cross","null","","","","","","","","","","","",""
"","795","html-keyboard-response","348","290847","0.0-15.0-1.5","mt7a0Uxg8T","62851efba924ed81f6f0e7f4","6617fad957f7c6a12ea16e26","6622c9d4d394ea6bbdb6e086","image grid"," ","","","","","Ontogenetic_Distractor_notarget","800","ongrid"," ","3","Ontogenetic","true","experimental"
"","null","html-keyboard-response","349","291011","0.0-15.0-2.5","mt7a0Uxg8T","62851efba924ed81f6f0e7f4","6617fad957f7c6a12ea16e26","6622c9d4d394ea6bbdb6e086","
    <div id=""grid-container"">
        <!-- Grid items will be dynamically added here -->
    </div>    ","null","","","","","","","","","","","",""
"","null","html-keyboard-response","350","291728","0.0-15.0-0.6","mt7a0Uxg8T","62851efba924ed81f6f0e7f4","6617fad957f7c6a12ea16e26","6622c9d4d394ea6bbdb6e086","fixation cross","null","","","","","","","","","","","",""
"","671","html-keyboard-response","351","292399","0.0-15.0-1.6","mt7a0Uxg8T","62851efba924ed81f6f0e7f4","6617fad957f7c6a12ea16e26","6622c9d4d394ea6bbdb6e086","image grid"," ","","","","","Ontogenetic_Distractor_Nonthreat_target","800","ongrid","p","9","Ontogenetic","false","experimental"
"","null","html-keyboard-response","352","292556","0.0-15.0-2.6","mt7a0Uxg8T","62851efba924ed81f6f0e7f4","6617fad957f7c6a12ea16e26","6622c9d4d394ea6bbdb6e086","
    <div id=""grid-container"">
        <!-- Grid items will be dynamically added here -->
    </div>    ","null","","","","","","","","","","","",""
"","null","html-keyboard-response","353","293282","0.0-15.0-0.7","mt7a0Uxg8T","62851efba924ed81f6f0e7f4","6617fad957f7c6a12ea16e26","6622c9d4d394ea6bbdb6e086","fixation cross","null","","","","","","","","","","","",""
"","null","html-keyboard-response","354","294089","0.0-15.0-1.7","mt7a0Uxg8T","62851efba924ed81f6f0e7f4","6617fad957f7c6a12ea16e26","6622c9d4d394ea6bbdb6e086","
        <div id=""grid-container"">
        <!-- Grid items will be dynamically added here -->
    </div>    ","null","","","","","","","","","","","",""
"","917","html-keyboard-response","355","294207","0.0-15.0-2.7","mt7a0Uxg8T","62851efba924ed81f6f0e7f4","6617fad957f7c6a12ea16e26","6622c9d4d394ea6bbdb6e086","mask grid"," ","","","","","Ontogenetic_Distractor_notarget","800","onmask"," ","1","Ontogenetic","true","experimental"
"","null","html-keyboard-response","356","294925","0.0-15.0-0.8","mt7a0Uxg8T","62851efba924ed81f6f0e7f4","6617fad957f7c6a12ea16e26","6622c9d4d394ea6bbdb6e086","fixation cross","null","","","","","","","","","","","",""
"","null","html-keyboard-response","357","295738","0.0-15.0-1.8","mt7a0Uxg8T","62851efba924ed81f6f0e7f4","6617fad957f7c6a12ea16e26","6622c9d4d394ea6bbdb6e086","
        <div id=""grid-container"">
        <!-- Grid items will be dynamically added here -->
    </div>    ","null","","","","","","","","","","","",""
"","819","html-keyboard-response","358","295758","0.0-15.0-2.8","mt7a0Uxg8T","62851efba924ed81f6f0e7f4","6617fad957f7c6a12ea16e26","6622c9d4d394ea6bbdb6e086","mask grid"," ","","","","","Ontogenetic_Distractor_Nonthreat_target","800","onmask","p","2","Ontogenetic","false","experimental"
"","null","html-keyboard-response","359","296468","0.0-15.0-0.9","mt7a0Uxg8T","62851efba924ed81f6f0e7f4","6617fad957f7c6a12ea16e26","6622c9d4d394ea6bbdb6e086","fixation cross","null","","","","","","","","","","","",""
"","714","html-keyboard-response","360","297169","0.0-15.0-1.9","mt7a0Uxg8T","62851efba924ed81f6f0e7f4","6617fad957f7c6a12ea16e26","6622c9d4d394ea6bbdb6e086","image grid","p","","","","","Ontogenetic_Distractor_Nonthreat_target","800","ongrid","p","1","Ontogenetic","true","experimental"
"","null","html-keyboard-response","361","297326","0.0-15.0-2.9","mt7a0Uxg8T","62851efba924ed81f6f0e7f4","6617fad957f7c6a12ea16e26","6622c9d4d394ea6bbdb6e086","
    <div id=""grid-container"">
        <!-- Grid items will be dynamically added here -->
    </div>    ","null","","","","","","","","","","","",""
"","null","html-keyboard-response","362","298044","0.0-15.0-0.10","mt7a0Uxg8T","62851efba924ed81f6f0e7f4","6617fad957f7c6a12ea16e26","6622c9d4d394ea6bbdb6e086","fixation cross","null","","","","","","","","","","","",""
"","725","html-keyboard-response","363","298769","0.0-15.0-1.10","mt7a0Uxg8T","62851efba924ed81f6f0e7f4","6617fad957f7c6a12ea16e26","6622c9d4d394ea6bbdb6e086","image grid","q","","","","","Ontogenetic_Distractor_Threat_target","800","ongrid","q","6","Ontogenetic","true","experimental"
"","null","html-keyboard-response","364","298928","0.0-15.0-2.10","mt7a0Uxg8T","62851efba924ed81f6f0e7f4","6617fad957f7c6a12ea16e26","6622c9d4d394ea6bbdb6e086","
    <div id=""grid-container"">
        <!-- Grid items will be dynamically added here -->
    </div>    ","null","","","","","","","","","","","",""
"","null","html-keyboard-response","365","299661","0.0-15.0-0.11","mt7a0Uxg8T","62851efba924ed81f6f0e7f4","6617fad957f7c6a12ea16e26","6622c9d4d394ea6bbdb6e086","fixation cross","null","","","","","","","","","","","",""
"","770","html-keyboard-response","366","300432","0.0-15.0-1.11","mt7a0Uxg8T","62851efba924ed81f6f0e7f4","6617fad957f7c6a12ea16e26","6622c9d4d394ea6bbdb6e086","image grid","q","","","","","Ontogenetic_Distractor_Threat_target","800","ongrid","q","5","Ontogenetic","true","experimental"
"","null","html-keyboard-response","367","300593","0.0-15.0-2.11","mt7a0Uxg8T","62851efba924ed81f6f0e7f4","6617fad957f7c6a12ea16e26","6622c9d4d394ea6bbdb6e086","
    <div id=""grid-container"">
        <!-- Grid items will be dynamically added here -->
    </div>    ","null","","","","","","","","","","","",""
"","null","html-keyboard-response","368","301333","0.0-15.0-0.12","mt7a0Uxg8T","62851efba924ed81f6f0e7f4","6617fad957f7c6a12ea16e26","6622c9d4d394ea6bbdb6e086","fixation cross","null","","","","","","","","","","","",""
"","684","html-keyboard-response","369","302017","0.0-15.0-1.12","mt7a0Uxg8T","62851efba924ed81f6f0e7f4","6617fad957f7c6a12ea16e26","6622c9d4d394ea6bbdb6e086","image grid","q","","","","","Ontogenetic_Distractor_Threat_target","800","ongrid","q","7","Ontogenetic","true","experimental"
"","null","html-keyboard-response","370","302182","0.0-15.0-2.12","mt7a0Uxg8T","62851efba924ed81f6f0e7f4","6617fad957f7c6a12ea16e26","6622c9d4d394ea6bbdb6e086","
    <div id=""grid-container"">
        <!-- Grid items will be dynamically added here -->
    </div>    ","null","","","","","","","","","","","",""
