"success","rt","trial_type","trial_index","time_elapsed","internal_node_id","unique_identifier","subject_id","study_id","session_id","stimulus","response","timeout","failed_images","failed_audio","failed_video","task","time_manipulation","respondedwhen","correctresponse","targetimagelocation","blocktype","correct","roundtype"
"true","586266","fullscreen","0","795962","0.0-0.0","ZzDFfWWXmW","6155083c1e4cee887b92d482","6617fad957f7c6a12ea16e26","6622cb4dd7348145f4ffdd87","","","","","","","","","","","","","",""
"","14812","html-keyboard-response","1","810779","0.0-1.0","ZzDFfWWXmW","6155083c1e4cee887b92d482","6617fad957f7c6a12ea16e26","6622cb4dd7348145f4ffdd87","instruction screen 0","k","","","","","","","","","","","",""
"true","","preload","2","815949","0.0-2.0","ZzDFfWWXmW","6155083c1e4cee887b92d482","6617fad957f7c6a12ea16e26","6622cb4dd7348145f4ffdd87","","","false","[]","[]","[]","","","","","","","",""
"","14980","html-keyboard-response","3","830932","0.0-3.0","ZzDFfWWXmW","6155083c1e4cee887b92d482","6617fad957f7c6a12ea16e26","6622cb4dd7348145f4ffdd87","instruction screen 1","arrowdown","","","","","","","","","","","",""
"","15003","html-keyboard-response","4","845980","0.0-4.0","ZzDFfWWXmW","6155083c1e4cee887b92d482","6617fad957f7c6a12ea16e26","6622cb4dd7348145f4ffdd87","instruction screen 2","q","","","","","","","","","","","",""
"","3981","html-keyboard-response","5","850052","0.0-5.0","ZzDFfWWXmW","6155083c1e4cee887b92d482","6617fad957f7c6a12ea16e26","6622cb4dd7348145f4ffdd87","instruction screen 3","p","","","","","","","","","","","",""
"","7457","html-keyboard-response","6","857519","0.0-6.0","ZzDFfWWXmW","6155083c1e4cee887b92d482","6617fad957f7c6a12ea16e26","6622cb4dd7348145f4ffdd87","instruction screen 4"," ","","","","","","","","","","","",""
"","8583","html-keyboard-response","7","866152","0.0-7.0","ZzDFfWWXmW","6155083c1e4cee887b92d482","6617fad957f7c6a12ea16e26","6622cb4dd7348145f4ffdd87","instruction screen 5"," ","","","","","","","","","","","",""
"","null","html-keyboard-response","8","866706","0.0-8.0","ZzDFfWWXmW","6155083c1e4cee887b92d482","6617fad957f7c6a12ea16e26","6622cb4dd7348145f4ffdd87","fixation cross","null","","","","","","","","","","","",""
"","null","html-keyboard-response","9","867209","0.0-9.0-0.0","ZzDFfWWXmW","6155083c1e4cee887b92d482","6617fad957f7c6a12ea16e26","6622cb4dd7348145f4ffdd87","fixation cross","null","","","","","","","","","","","",""
"","2867","html-keyboard-response","10","870078","0.0-9.0-1.0","ZzDFfWWXmW","6155083c1e4cee887b92d482","6617fad957f7c6a12ea16e26","6622cb4dd7348145f4ffdd87","image grid"," ","","","","","Ontogenetic_Distractor_Nonthreat_target","3000","ongrid","p","9","Phylogenetic","false","practice"
"","null","html-keyboard-response","11","870231","0.0-9.0-2.0","ZzDFfWWXmW","6155083c1e4cee887b92d482","6617fad957f7c6a12ea16e26","6622cb4dd7348145f4ffdd87","
    <div id=""grid-container"">
        <!-- Grid items will be dynamically added here -->
    </div>    ","null","","","","","","","","","","","",""
"","null","html-keyboard-response","12","871436","0.0-9.0-3.0","ZzDFfWWXmW","6155083c1e4cee887b92d482","6617fad957f7c6a12ea16e26","6622cb4dd7348145f4ffdd87","feedback screen","null","","","","","","","","","","","",""
"","null","html-keyboard-response","13","871945","0.0-9.0-0.1","ZzDFfWWXmW","6155083c1e4cee887b92d482","6617fad957f7c6a12ea16e26","6622cb4dd7348145f4ffdd87","fixation cross","null","","","","","","","","","","","",""
"","1107","html-keyboard-response","14","873054","0.0-9.0-1.1","ZzDFfWWXmW","6155083c1e4cee887b92d482","6617fad957f7c6a12ea16e26","6622cb4dd7348145f4ffdd87","image grid"," ","","","","","Phylogenetic_Distractor_Nonthreat_target","2900","ongrid","p","4","Phylogenetic","false","practice"
"","null","html-keyboard-response","15","873206","0.0-9.0-2.1","ZzDFfWWXmW","6155083c1e4cee887b92d482","6617fad957f7c6a12ea16e26","6622cb4dd7348145f4ffdd87","
    <div id=""grid-container"">
        <!-- Grid items will be dynamically added here -->
    </div>    ","null","","","","","","","","","","","",""
"","null","html-keyboard-response","16","874410","0.0-9.0-3.1","ZzDFfWWXmW","6155083c1e4cee887b92d482","6617fad957f7c6a12ea16e26","6622cb4dd7348145f4ffdd87","feedback screen","null","","","","","","","","","","","",""
"","null","html-keyboard-response","17","874918","0.0-9.0-0.2","ZzDFfWWXmW","6155083c1e4cee887b92d482","6617fad957f7c6a12ea16e26","6622cb4dd7348145f4ffdd87","fixation cross","null","","","","","","","","","","","",""
"","2371","html-keyboard-response","18","877290","0.0-9.0-1.2","ZzDFfWWXmW","6155083c1e4cee887b92d482","6617fad957f7c6a12ea16e26","6622cb4dd7348145f4ffdd87","image grid"," ","","","","","Phylogenetic_Distractor_notarget","2800","ongrid"," ","9","Phylogenetic","true","practice"
"","null","html-keyboard-response","19","877442","0.0-9.0-2.2","ZzDFfWWXmW","6155083c1e4cee887b92d482","6617fad957f7c6a12ea16e26","6622cb4dd7348145f4ffdd87","
    <div id=""grid-container"">
        <!-- Grid items will be dynamically added here -->
    </div>    ","null","","","","","","","","","","","",""
"","null","html-keyboard-response","20","878645","0.0-9.0-3.2","ZzDFfWWXmW","6155083c1e4cee887b92d482","6617fad957f7c6a12ea16e26","6622cb4dd7348145f4ffdd87","feedback screen","null","","","","","","","","","","","",""
"","null","html-keyboard-response","21","879149","0.0-9.0-0.3","ZzDFfWWXmW","6155083c1e4cee887b92d482","6617fad957f7c6a12ea16e26","6622cb4dd7348145f4ffdd87","fixation cross","null","","","","","","","","","","","",""
"","1007","html-keyboard-response","22","880157","0.0-9.0-1.3","ZzDFfWWXmW","6155083c1e4cee887b92d482","6617fad957f7c6a12ea16e26","6622cb4dd7348145f4ffdd87","image grid"," ","","","","","Phylogenetic_Distractor_Nonthreat_target","2700","ongrid","p","7","Phylogenetic","false","practice"
"","null","html-keyboard-response","23","880309","0.0-9.0-2.3","ZzDFfWWXmW","6155083c1e4cee887b92d482","6617fad957f7c6a12ea16e26","6622cb4dd7348145f4ffdd87","
    <div id=""grid-container"">
        <!-- Grid items will be dynamically added here -->
    </div>    ","null","","","","","","","","","","","",""
"","null","html-keyboard-response","24","881513","0.0-9.0-3.3","ZzDFfWWXmW","6155083c1e4cee887b92d482","6617fad957f7c6a12ea16e26","6622cb4dd7348145f4ffdd87","feedback screen","null","","","","","","","","","","","",""
"","null","html-keyboard-response","25","882016","0.0-9.0-0.4","ZzDFfWWXmW","6155083c1e4cee887b92d482","6617fad957f7c6a12ea16e26","6622cb4dd7348145f4ffdd87","fixation cross","null","","","","","","","","","","","",""
"","null","html-keyboard-response","26","884619","0.0-9.0-1.4","ZzDFfWWXmW","6155083c1e4cee887b92d482","6617fad957f7c6a12ea16e26","6622cb4dd7348145f4ffdd87","
        <div id=""grid-container"">
        <!-- Grid items will be dynamically added here -->
    </div>    ","null","","","","","","","","","","","",""
"","4366","html-keyboard-response","27","886386","0.0-9.0-2.4","ZzDFfWWXmW","6155083c1e4cee887b92d482","6617fad957f7c6a12ea16e26","6622cb4dd7348145f4ffdd87","mask grid"," ","","","","","Ontogenetic_Distractor_notarget","2600","onmask"," ","3","Phylogenetic","true","practice"
"","null","html-keyboard-response","28","887590","0.0-9.0-3.4","ZzDFfWWXmW","6155083c1e4cee887b92d482","6617fad957f7c6a12ea16e26","6622cb4dd7348145f4ffdd87","feedback screen","null","","","","","","","","","","","",""
"","null","html-keyboard-response","29","888098","0.0-9.0-0.5","ZzDFfWWXmW","6155083c1e4cee887b92d482","6617fad957f7c6a12ea16e26","6622cb4dd7348145f4ffdd87","fixation cross","null","","","","","","","","","","","",""
"","null","html-keyboard-response","30","890600","0.0-9.0-1.5","ZzDFfWWXmW","6155083c1e4cee887b92d482","6617fad957f7c6a12ea16e26","6622cb4dd7348145f4ffdd87","
        <div id=""grid-container"">
        <!-- Grid items will be dynamically added here -->
    </div>    ","null","","","","","","","","","","","",""
"","4047","html-keyboard-response","31","892148","0.0-9.0-2.5","ZzDFfWWXmW","6155083c1e4cee887b92d482","6617fad957f7c6a12ea16e26","6622cb4dd7348145f4ffdd87","mask grid"," ","","","","","Phylogenetic_Distractor_Threat_target","2500","onmask","q","9","Phylogenetic","false","practice"
"","null","html-keyboard-response","32","893352","0.0-9.0-3.5","ZzDFfWWXmW","6155083c1e4cee887b92d482","6617fad957f7c6a12ea16e26","6622cb4dd7348145f4ffdd87","feedback screen","null","","","","","","","","","","","",""
"","null","html-keyboard-response","33","893860","0.0-9.0-0.6","ZzDFfWWXmW","6155083c1e4cee887b92d482","6617fad957f7c6a12ea16e26","6622cb4dd7348145f4ffdd87","fixation cross","null","","","","","","","","","","","",""
"","null","html-keyboard-response","34","896262","0.0-9.0-1.6","ZzDFfWWXmW","6155083c1e4cee887b92d482","6617fad957f7c6a12ea16e26","6622cb4dd7348145f4ffdd87","
        <div id=""grid-container"">
        <!-- Grid items will be dynamically added here -->
    </div>    ","null","","","","","","","","","","","",""
"","3900","html-keyboard-response","35","897764","0.0-9.0-2.6","ZzDFfWWXmW","6155083c1e4cee887b92d482","6617fad957f7c6a12ea16e26","6622cb4dd7348145f4ffdd87","mask grid","p","","","","","Ontogenetic_Distractor_Threat_target","2400","onmask","q","4","Phylogenetic","false","practice"
"","null","html-keyboard-response","36","898968","0.0-9.0-3.6","ZzDFfWWXmW","6155083c1e4cee887b92d482","6617fad957f7c6a12ea16e26","6622cb4dd7348145f4ffdd87","feedback screen","null","","","","","","","","","","","",""
"","null","html-keyboard-response","37","899476","0.0-9.0-0.7","ZzDFfWWXmW","6155083c1e4cee887b92d482","6617fad957f7c6a12ea16e26","6622cb4dd7348145f4ffdd87","fixation cross","null","","","","","","","","","","","",""
"","null","html-keyboard-response","38","901778","0.0-9.0-1.7","ZzDFfWWXmW","6155083c1e4cee887b92d482","6617fad957f7c6a12ea16e26","6622cb4dd7348145f4ffdd87","
        <div id=""grid-container"">
        <!-- Grid items will be dynamically added here -->
    </div>    ","null","","","","","","","","","","","",""
"","4035","html-keyboard-response","39","903515","0.0-9.0-2.7","ZzDFfWWXmW","6155083c1e4cee887b92d482","6617fad957f7c6a12ea16e26","6622cb4dd7348145f4ffdd87","mask grid","q","","","","","Phylogenetic_Distractor_Threat_target","2300","onmask","q","5","Phylogenetic","true","practice"
"","null","html-keyboard-response","40","904719","0.0-9.0-3.7","ZzDFfWWXmW","6155083c1e4cee887b92d482","6617fad957f7c6a12ea16e26","6622cb4dd7348145f4ffdd87","feedback screen","null","","","","","","","","","","","",""
"","null","html-keyboard-response","41","905223","0.0-9.0-0.8","ZzDFfWWXmW","6155083c1e4cee887b92d482","6617fad957f7c6a12ea16e26","6622cb4dd7348145f4ffdd87","fixation cross","null","","","","","","","","","","","",""
"","null","html-keyboard-response","42","907424","0.0-9.0-1.8","ZzDFfWWXmW","6155083c1e4cee887b92d482","6617fad957f7c6a12ea16e26","6622cb4dd7348145f4ffdd87","
        <div id=""grid-container"">
        <!-- Grid items will be dynamically added here -->
    </div>    ","null","","","","","","","","","","","",""
"","2698","html-keyboard-response","43","907924","0.0-9.0-2.8","ZzDFfWWXmW","6155083c1e4cee887b92d482","6617fad957f7c6a12ea16e26","6622cb4dd7348145f4ffdd87","mask grid","q","","","","","Phylogenetic_Distractor_Threat_target","2200","onmask","q","6","Phylogenetic","true","practice"
"","null","html-keyboard-response","44","909127","0.0-9.0-3.8","ZzDFfWWXmW","6155083c1e4cee887b92d482","6617fad957f7c6a12ea16e26","6622cb4dd7348145f4ffdd87","feedback screen","null","","","","","","","","","","","",""
"","null","html-keyboard-response","45","909630","0.0-9.0-0.9","ZzDFfWWXmW","6155083c1e4cee887b92d482","6617fad957f7c6a12ea16e26","6622cb4dd7348145f4ffdd87","fixation cross","null","","","","","","","","","","","",""
"","null","html-keyboard-response","46","911731","0.0-9.0-1.9","ZzDFfWWXmW","6155083c1e4cee887b92d482","6617fad957f7c6a12ea16e26","6622cb4dd7348145f4ffdd87","
        <div id=""grid-container"">
        <!-- Grid items will be dynamically added here -->
    </div>    ","null","","","","","","","","","","","",""
"","3074","html-keyboard-response","47","912706","0.0-9.0-2.9","ZzDFfWWXmW","6155083c1e4cee887b92d482","6617fad957f7c6a12ea16e26","6622cb4dd7348145f4ffdd87","mask grid","q","","","","","Phylogenetic_Distractor_Nonthreat_target","2100","onmask","p","5","Phylogenetic","false","practice"
"","null","html-keyboard-response","48","913908","0.0-9.0-3.9","ZzDFfWWXmW","6155083c1e4cee887b92d482","6617fad957f7c6a12ea16e26","6622cb4dd7348145f4ffdd87","feedback screen","null","","","","","","","","","","","",""
"","null","html-keyboard-response","49","914411","0.0-9.0-0.10","ZzDFfWWXmW","6155083c1e4cee887b92d482","6617fad957f7c6a12ea16e26","6622cb4dd7348145f4ffdd87","fixation cross","null","","","","","","","","","","","",""
"","null","html-keyboard-response","50","916413","0.0-9.0-1.10","ZzDFfWWXmW","6155083c1e4cee887b92d482","6617fad957f7c6a12ea16e26","6622cb4dd7348145f4ffdd87","
        <div id=""grid-container"">
        <!-- Grid items will be dynamically added here -->
    </div>    ","null","","","","","","","","","","","",""
"","2692","html-keyboard-response","51","917105","0.0-9.0-2.10","ZzDFfWWXmW","6155083c1e4cee887b92d482","6617fad957f7c6a12ea16e26","6622cb4dd7348145f4ffdd87","mask grid","q","","","","","Ontogenetic_Distractor_Threat_target","2000","onmask","q","2","Phylogenetic","true","practice"
"","null","html-keyboard-response","52","918309","0.0-9.0-3.10","ZzDFfWWXmW","6155083c1e4cee887b92d482","6617fad957f7c6a12ea16e26","6622cb4dd7348145f4ffdd87","feedback screen","null","","","","","","","","","","","",""
"","null","html-keyboard-response","53","918812","0.0-9.0-0.11","ZzDFfWWXmW","6155083c1e4cee887b92d482","6617fad957f7c6a12ea16e26","6622cb4dd7348145f4ffdd87","fixation cross","null","","","","","","","","","","","",""
"","null","html-keyboard-response","54","920713","0.0-9.0-1.11","ZzDFfWWXmW","6155083c1e4cee887b92d482","6617fad957f7c6a12ea16e26","6622cb4dd7348145f4ffdd87","
        <div id=""grid-container"">
        <!-- Grid items will be dynamically added here -->
    </div>    ","null","","","","","","","","","","","",""
"","2155","html-keyboard-response","55","920969","0.0-9.0-2.11","ZzDFfWWXmW","6155083c1e4cee887b92d482","6617fad957f7c6a12ea16e26","6622cb4dd7348145f4ffdd87","mask grid","p","","","","","Ontogenetic_Distractor_Nonthreat_target","1900","onmask","p","4","Phylogenetic","true","practice"
"","null","html-keyboard-response","56","922172","0.0-9.0-3.11","ZzDFfWWXmW","6155083c1e4cee887b92d482","6617fad957f7c6a12ea16e26","6622cb4dd7348145f4ffdd87","feedback screen","null","","","","","","","","","","","",""
"","null","html-keyboard-response","57","922675","0.0-9.0-0.12","ZzDFfWWXmW","6155083c1e4cee887b92d482","6617fad957f7c6a12ea16e26","6622cb4dd7348145f4ffdd87","fixation cross","null","","","","","","","","","","","",""
"","null","html-keyboard-response","58","924476","0.0-9.0-1.12","ZzDFfWWXmW","6155083c1e4cee887b92d482","6617fad957f7c6a12ea16e26","6622cb4dd7348145f4ffdd87","
        <div id=""grid-container"">
        <!-- Grid items will be dynamically added here -->
    </div>    ","null","","","","","","","","","","","",""
"","1830","html-keyboard-response","59","924506","0.0-9.0-2.12","ZzDFfWWXmW","6155083c1e4cee887b92d482","6617fad957f7c6a12ea16e26","6622cb4dd7348145f4ffdd87","mask grid","q","","","","","Ontogenetic_Distractor_Nonthreat_target","1800","onmask","p","1","Phylogenetic","false","practice"
"","null","html-keyboard-response","60","925709","0.0-9.0-3.12","ZzDFfWWXmW","6155083c1e4cee887b92d482","6617fad957f7c6a12ea16e26","6622cb4dd7348145f4ffdd87","feedback screen","null","","","","","","","","","","","",""
"","null","html-keyboard-response","61","926212","0.0-9.0-0.13","ZzDFfWWXmW","6155083c1e4cee887b92d482","6617fad957f7c6a12ea16e26","6622cb4dd7348145f4ffdd87","fixation cross","null","","","","","","","","","","","",""
"","null","html-keyboard-response","62","927913","0.0-9.0-1.13","ZzDFfWWXmW","6155083c1e4cee887b92d482","6617fad957f7c6a12ea16e26","6622cb4dd7348145f4ffdd87","
        <div id=""grid-container"">
        <!-- Grid items will be dynamically added here -->
    </div>    ","null","","","","","","","","","","","",""
"","2653","html-keyboard-response","63","928867","0.0-9.0-2.13","ZzDFfWWXmW","6155083c1e4cee887b92d482","6617fad957f7c6a12ea16e26","6622cb4dd7348145f4ffdd87","mask grid","p","","","","","Phylogenetic_Distractor_notarget","1700","onmask"," ","7","Phylogenetic","false","practice"
"","null","html-keyboard-response","64","930070","0.0-9.0-3.13","ZzDFfWWXmW","6155083c1e4cee887b92d482","6617fad957f7c6a12ea16e26","6622cb4dd7348145f4ffdd87","feedback screen","null","","","","","","","","","","","",""
"","null","html-keyboard-response","65","930573","0.0-9.0-0.14","ZzDFfWWXmW","6155083c1e4cee887b92d482","6617fad957f7c6a12ea16e26","6622cb4dd7348145f4ffdd87","fixation cross","null","","","","","","","","","","","",""
"","null","html-keyboard-response","66","932174","0.0-9.0-1.14","ZzDFfWWXmW","6155083c1e4cee887b92d482","6617fad957f7c6a12ea16e26","6622cb4dd7348145f4ffdd87","
        <div id=""grid-container"">
        <!-- Grid items will be dynamically added here -->
    </div>    ","null","","","","","","","","","","","",""
"","2030","html-keyboard-response","67","932605","0.0-9.0-2.14","ZzDFfWWXmW","6155083c1e4cee887b92d482","6617fad957f7c6a12ea16e26","6622cb4dd7348145f4ffdd87","mask grid","q","","","","","Ontogenetic_Distractor_Threat_target","1600","onmask","q","3","Phylogenetic","true","practice"
"","null","html-keyboard-response","68","933807","0.0-9.0-3.14","ZzDFfWWXmW","6155083c1e4cee887b92d482","6617fad957f7c6a12ea16e26","6622cb4dd7348145f4ffdd87","feedback screen","null","","","","","","","","","","","",""
"","null","html-keyboard-response","69","934310","0.0-9.0-0.15","ZzDFfWWXmW","6155083c1e4cee887b92d482","6617fad957f7c6a12ea16e26","6622cb4dd7348145f4ffdd87","fixation cross","null","","","","","","","","","","","",""
"","null","html-keyboard-response","70","935812","0.0-9.0-1.15","ZzDFfWWXmW","6155083c1e4cee887b92d482","6617fad957f7c6a12ea16e26","6622cb4dd7348145f4ffdd87","
        <div id=""grid-container"">
        <!-- Grid items will be dynamically added here -->
    </div>    ","null","","","","","","","","","","","",""
"","2318","html-keyboard-response","71","936630","0.0-9.0-2.15","ZzDFfWWXmW","6155083c1e4cee887b92d482","6617fad957f7c6a12ea16e26","6622cb4dd7348145f4ffdd87","mask grid","p","","","","","Phylogenetic_Distractor_Nonthreat_target","1500","onmask","p","1","Phylogenetic","true","practice"
"","null","html-keyboard-response","72","937832","0.0-9.0-3.15","ZzDFfWWXmW","6155083c1e4cee887b92d482","6617fad957f7c6a12ea16e26","6622cb4dd7348145f4ffdd87","feedback screen","null","","","","","","","","","","","",""
"","null","html-keyboard-response","73","938336","0.0-9.0-0.16","ZzDFfWWXmW","6155083c1e4cee887b92d482","6617fad957f7c6a12ea16e26","6622cb4dd7348145f4ffdd87","fixation cross","null","","","","","","","","","","","",""
"","null","html-keyboard-response","74","939738","0.0-9.0-1.16","ZzDFfWWXmW","6155083c1e4cee887b92d482","6617fad957f7c6a12ea16e26","6622cb4dd7348145f4ffdd87","
        <div id=""grid-container"">
        <!-- Grid items will be dynamically added here -->
    </div>    ","null","","","","","","","","","","","",""
"","2223","html-keyboard-response","75","940562","0.0-9.0-2.16","ZzDFfWWXmW","6155083c1e4cee887b92d482","6617fad957f7c6a12ea16e26","6622cb4dd7348145f4ffdd87","mask grid","q","","","","","Ontogenetic_Distractor_Threat_target","1400","onmask","q","7","Phylogenetic","true","practice"
"","null","html-keyboard-response","76","941765","0.0-9.0-3.16","ZzDFfWWXmW","6155083c1e4cee887b92d482","6617fad957f7c6a12ea16e26","6622cb4dd7348145f4ffdd87","feedback screen","null","","","","","","","","","","","",""
"","null","html-keyboard-response","77","942269","0.0-9.0-0.17","ZzDFfWWXmW","6155083c1e4cee887b92d482","6617fad957f7c6a12ea16e26","6622cb4dd7348145f4ffdd87","fixation cross","null","","","","","","","","","","","",""
"","null","html-keyboard-response","78","943570","0.0-9.0-1.17","ZzDFfWWXmW","6155083c1e4cee887b92d482","6617fad957f7c6a12ea16e26","6622cb4dd7348145f4ffdd87","
        <div id=""grid-container"">
        <!-- Grid items will be dynamically added here -->
    </div>    ","null","","","","","","","","","","","",""
"","2085","html-keyboard-response","79","944356","0.0-9.0-2.17","ZzDFfWWXmW","6155083c1e4cee887b92d482","6617fad957f7c6a12ea16e26","6622cb4dd7348145f4ffdd87","mask grid","q","","","","","Phylogenetic_Distractor_Threat_target","1300","onmask","q","2","Phylogenetic","true","practice"
"","null","html-keyboard-response","80","945559","0.0-9.0-3.17","ZzDFfWWXmW","6155083c1e4cee887b92d482","6617fad957f7c6a12ea16e26","6622cb4dd7348145f4ffdd87","feedback screen","null","","","","","","","","","","","",""
"","null","html-keyboard-response","81","946062","0.0-9.0-0.18","ZzDFfWWXmW","6155083c1e4cee887b92d482","6617fad957f7c6a12ea16e26","6622cb4dd7348145f4ffdd87","fixation cross","null","","","","","","","","","","","",""
"","null","html-keyboard-response","82","947263","0.0-9.0-1.18","ZzDFfWWXmW","6155083c1e4cee887b92d482","6617fad957f7c6a12ea16e26","6622cb4dd7348145f4ffdd87","
        <div id=""grid-container"">
        <!-- Grid items will be dynamically added here -->
    </div>    ","null","","","","","","","","","","","",""
"","1287","html-keyboard-response","83","947351","0.0-9.0-2.18","ZzDFfWWXmW","6155083c1e4cee887b92d482","6617fad957f7c6a12ea16e26","6622cb4dd7348145f4ffdd87","mask grid","q","","","","","Ontogenetic_Distractor_Nonthreat_target","1200","onmask","p","1","Phylogenetic","false","practice"
"","null","html-keyboard-response","84","948554","0.0-9.0-3.18","ZzDFfWWXmW","6155083c1e4cee887b92d482","6617fad957f7c6a12ea16e26","6622cb4dd7348145f4ffdd87","feedback screen","null","","","","","","","","","","","",""
"","null","html-keyboard-response","85","949057","0.0-9.0-0.19","ZzDFfWWXmW","6155083c1e4cee887b92d482","6617fad957f7c6a12ea16e26","6622cb4dd7348145f4ffdd87","fixation cross","null","","","","","","","","","","","",""
"","null","html-keyboard-response","86","950158","0.0-9.0-1.19","ZzDFfWWXmW","6155083c1e4cee887b92d482","6617fad957f7c6a12ea16e26","6622cb4dd7348145f4ffdd87","
        <div id=""grid-container"">
        <!-- Grid items will be dynamically added here -->
    </div>    ","null","","","","","","","","","","","",""
"","1820","html-keyboard-response","87","950880","0.0-9.0-2.19","ZzDFfWWXmW","6155083c1e4cee887b92d482","6617fad957f7c6a12ea16e26","6622cb4dd7348145f4ffdd87","mask grid","p","","","","","Ontogenetic_Distractor_notarget","1100","onmask"," ","6","Phylogenetic","false","practice"
"","null","html-keyboard-response","88","952084","0.0-9.0-3.19","ZzDFfWWXmW","6155083c1e4cee887b92d482","6617fad957f7c6a12ea16e26","6622cb4dd7348145f4ffdd87","feedback screen","null","","","","","","","","","","","",""
"","13548","html-keyboard-response","89","965722","0.0-10.0","ZzDFfWWXmW","6155083c1e4cee887b92d482","6617fad957f7c6a12ea16e26","6622cb4dd7348145f4ffdd87","pre-experimental_briefing"," ","","","","","","","","","","","",""
"","null","html-keyboard-response","90","968287","0.0-11.0-0.0","ZzDFfWWXmW","6155083c1e4cee887b92d482","6617fad957f7c6a12ea16e26","6622cb4dd7348145f4ffdd87","fixation cross","null","","","","","","","","","","","",""
"","null","html-keyboard-response","91","970789","0.0-11.0-1.0","ZzDFfWWXmW","6155083c1e4cee887b92d482","6617fad957f7c6a12ea16e26","6622cb4dd7348145f4ffdd87","
        <div id=""grid-container"">
        <!-- Grid items will be dynamically added here -->
    </div>    ","null","","","","","","","","","","","",""
"","3174","html-keyboard-response","92","971464","0.0-11.0-2.0","ZzDFfWWXmW","6155083c1e4cee887b92d482","6617fad957f7c6a12ea16e26","6622cb4dd7348145f4ffdd87","mask grid","p","","","","","Phylogenetic_Distractor_notarget","2500","onmask"," ","4","Phylogenetic","false","experimental"
"","null","html-keyboard-response","93","972168","0.0-11.0-0.1","ZzDFfWWXmW","6155083c1e4cee887b92d482","6617fad957f7c6a12ea16e26","6622cb4dd7348145f4ffdd87","fixation cross","null","","","","","","","","","","","",""
"","1437","html-keyboard-response","94","973606","0.0-11.0-1.1","ZzDFfWWXmW","6155083c1e4cee887b92d482","6617fad957f7c6a12ea16e26","6622cb4dd7348145f4ffdd87","image grid","q","","","","","Phylogenetic_Distractor_Threat_target","2500","ongrid","q","2","Phylogenetic","true","experimental"
"","null","html-keyboard-response","95","973759","0.0-11.0-2.1","ZzDFfWWXmW","6155083c1e4cee887b92d482","6617fad957f7c6a12ea16e26","6622cb4dd7348145f4ffdd87","
    <div id=""grid-container"">
        <!-- Grid items will be dynamically added here -->
    </div>    ","null","","","","","","","","","","","",""
"","null","html-keyboard-response","96","974461","0.0-11.0-0.2","ZzDFfWWXmW","6155083c1e4cee887b92d482","6617fad957f7c6a12ea16e26","6622cb4dd7348145f4ffdd87","fixation cross","null","","","","","","","","","","","",""
"","1471","html-keyboard-response","97","975934","0.0-11.0-1.2","ZzDFfWWXmW","6155083c1e4cee887b92d482","6617fad957f7c6a12ea16e26","6622cb4dd7348145f4ffdd87","image grid","p","","","","","Phylogenetic_Distractor_Nonthreat_target","2500","ongrid","p","8","Phylogenetic","true","experimental"
"","null","html-keyboard-response","98","976087","0.0-11.0-2.2","ZzDFfWWXmW","6155083c1e4cee887b92d482","6617fad957f7c6a12ea16e26","6622cb4dd7348145f4ffdd87","
    <div id=""grid-container"">
        <!-- Grid items will be dynamically added here -->
    </div>    ","null","","","","","","","","","","","",""
"","null","html-keyboard-response","99","976788","0.0-11.0-0.3","ZzDFfWWXmW","6155083c1e4cee887b92d482","6617fad957f7c6a12ea16e26","6622cb4dd7348145f4ffdd87","fixation cross","null","","","","","","","","","","","",""
"","1646","html-keyboard-response","100","978436","0.0-11.0-1.3","ZzDFfWWXmW","6155083c1e4cee887b92d482","6617fad957f7c6a12ea16e26","6622cb4dd7348145f4ffdd87","image grid","p","","","","","Phylogenetic_Distractor_Nonthreat_target","2500","ongrid","p","4","Phylogenetic","true","experimental"
"","null","html-keyboard-response","101","978589","0.0-11.0-2.3","ZzDFfWWXmW","6155083c1e4cee887b92d482","6617fad957f7c6a12ea16e26","6622cb4dd7348145f4ffdd87","
    <div id=""grid-container"">
        <!-- Grid items will be dynamically added here -->
    </div>    ","null","","","","","","","","","","","",""
"","null","html-keyboard-response","102","979291","0.0-11.0-0.4","ZzDFfWWXmW","6155083c1e4cee887b92d482","6617fad957f7c6a12ea16e26","6622cb4dd7348145f4ffdd87","fixation cross","null","","","","","","","","","","","",""
"","1889","html-keyboard-response","103","981182","0.0-11.0-1.4","ZzDFfWWXmW","6155083c1e4cee887b92d482","6617fad957f7c6a12ea16e26","6622cb4dd7348145f4ffdd87","image grid","p","","","","","Phylogenetic_Distractor_Nonthreat_target","2500","ongrid","p","8","Phylogenetic","true","experimental"
"","null","html-keyboard-response","104","981335","0.0-11.0-2.4","ZzDFfWWXmW","6155083c1e4cee887b92d482","6617fad957f7c6a12ea16e26","6622cb4dd7348145f4ffdd87","
    <div id=""grid-container"">
        <!-- Grid items will be dynamically added here -->
    </div>    ","null","","","","","","","","","","","",""
"","null","html-keyboard-response","105","982037","0.0-11.0-0.5","ZzDFfWWXmW","6155083c1e4cee887b92d482","6617fad957f7c6a12ea16e26","6622cb4dd7348145f4ffdd87","fixation cross","null","","","","","","","","","","","",""
"","1565","html-keyboard-response","106","983604","0.0-11.0-1.5","ZzDFfWWXmW","6155083c1e4cee887b92d482","6617fad957f7c6a12ea16e26","6622cb4dd7348145f4ffdd87","image grid"," ","","","","","Phylogenetic_Distractor_Threat_target","2500","ongrid","q","3","Phylogenetic","false","experimental"
"","null","html-keyboard-response","107","983756","0.0-11.0-2.5","ZzDFfWWXmW","6155083c1e4cee887b92d482","6617fad957f7c6a12ea16e26","6622cb4dd7348145f4ffdd87","
    <div id=""grid-container"">
        <!-- Grid items will be dynamically added here -->
    </div>    ","null","","","","","","","","","","","",""
"","null","html-keyboard-response","108","984459","0.0-11.0-0.6","ZzDFfWWXmW","6155083c1e4cee887b92d482","6617fad957f7c6a12ea16e26","6622cb4dd7348145f4ffdd87","fixation cross","null","","","","","","","","","","","",""
"","974","html-keyboard-response","109","985435","0.0-11.0-1.6","ZzDFfWWXmW","6155083c1e4cee887b92d482","6617fad957f7c6a12ea16e26","6622cb4dd7348145f4ffdd87","image grid","q","","","","","Phylogenetic_Distractor_Threat_target","2500","ongrid","q","1","Phylogenetic","true","experimental"
"","null","html-keyboard-response","110","985587","0.0-11.0-2.6","ZzDFfWWXmW","6155083c1e4cee887b92d482","6617fad957f7c6a12ea16e26","6622cb4dd7348145f4ffdd87","
    <div id=""grid-container"">
        <!-- Grid items will be dynamically added here -->
    </div>    ","null","","","","","","","","","","","",""
"","null","html-keyboard-response","111","986289","0.0-11.0-0.7","ZzDFfWWXmW","6155083c1e4cee887b92d482","6617fad957f7c6a12ea16e26","6622cb4dd7348145f4ffdd87","fixation cross","null","","","","","","","","","","","",""
"","1215","html-keyboard-response","112","987506","0.0-11.0-1.7","ZzDFfWWXmW","6155083c1e4cee887b92d482","6617fad957f7c6a12ea16e26","6622cb4dd7348145f4ffdd87","image grid","p","","","","","Phylogenetic_Distractor_Nonthreat_target","2500","ongrid","p","5","Phylogenetic","true","experimental"
"","null","html-keyboard-response","113","987659","0.0-11.0-2.7","ZzDFfWWXmW","6155083c1e4cee887b92d482","6617fad957f7c6a12ea16e26","6622cb4dd7348145f4ffdd87","
    <div id=""grid-container"">
        <!-- Grid items will be dynamically added here -->
    </div>    ","null","","","","","","","","","","","",""
"","null","html-keyboard-response","114","988362","0.0-11.0-0.8","ZzDFfWWXmW","6155083c1e4cee887b92d482","6617fad957f7c6a12ea16e26","6622cb4dd7348145f4ffdd87","fixation cross","null","","","","","","","","","","","",""
"","1317","html-keyboard-response","115","989680","0.0-11.0-1.8","ZzDFfWWXmW","6155083c1e4cee887b92d482","6617fad957f7c6a12ea16e26","6622cb4dd7348145f4ffdd87","image grid","q","","","","","Phylogenetic_Distractor_Threat_target","2500","ongrid","q","7","Phylogenetic","true","experimental"
"","null","html-keyboard-response","116","989833","0.0-11.0-2.8","ZzDFfWWXmW","6155083c1e4cee887b92d482","6617fad957f7c6a12ea16e26","6622cb4dd7348145f4ffdd87","
    <div id=""grid-container"">
        <!-- Grid items will be dynamically added here -->
    </div>    ","null","","","","","","","","","","","",""
"","null","html-keyboard-response","117","990535","0.0-11.0-0.9","ZzDFfWWXmW","6155083c1e4cee887b92d482","6617fad957f7c6a12ea16e26","6622cb4dd7348145f4ffdd87","fixation cross","null","","","","","","","","","","","",""
"","1962","html-keyboard-response","118","992499","0.0-11.0-1.9","ZzDFfWWXmW","6155083c1e4cee887b92d482","6617fad957f7c6a12ea16e26","6622cb4dd7348145f4ffdd87","image grid","p","","","","","Phylogenetic_Distractor_Nonthreat_target","2500","ongrid","p","6","Phylogenetic","true","experimental"
"","null","html-keyboard-response","119","992652","0.0-11.0-2.9","ZzDFfWWXmW","6155083c1e4cee887b92d482","6617fad957f7c6a12ea16e26","6622cb4dd7348145f4ffdd87","
    <div id=""grid-container"">
        <!-- Grid items will be dynamically added here -->
    </div>    ","null","","","","","","","","","","","",""
"","null","html-keyboard-response","120","993354","0.0-11.0-0.10","ZzDFfWWXmW","6155083c1e4cee887b92d482","6617fad957f7c6a12ea16e26","6622cb4dd7348145f4ffdd87","fixation cross","null","","","","","","","","","","","",""
"","1422","html-keyboard-response","121","994778","0.0-11.0-1.10","ZzDFfWWXmW","6155083c1e4cee887b92d482","6617fad957f7c6a12ea16e26","6622cb4dd7348145f4ffdd87","image grid","q","","","","","Phylogenetic_Distractor_Threat_target","2500","ongrid","q","8","Phylogenetic","true","experimental"
"","null","html-keyboard-response","122","994930","0.0-11.0-2.10","ZzDFfWWXmW","6155083c1e4cee887b92d482","6617fad957f7c6a12ea16e26","6622cb4dd7348145f4ffdd87","
    <div id=""grid-container"">
        <!-- Grid items will be dynamically added here -->
    </div>    ","null","","","","","","","","","","","",""
"","null","html-keyboard-response","123","995632","0.0-11.0-0.11","ZzDFfWWXmW","6155083c1e4cee887b92d482","6617fad957f7c6a12ea16e26","6622cb4dd7348145f4ffdd87","fixation cross","null","","","","","","","","","","","",""
"","2432","html-keyboard-response","124","998066","0.0-11.0-1.11","ZzDFfWWXmW","6155083c1e4cee887b92d482","6617fad957f7c6a12ea16e26","6622cb4dd7348145f4ffdd87","image grid"," ","","","","","Phylogenetic_Distractor_Nonthreat_target","2500","ongrid","p","1","Phylogenetic","false","experimental"
"","null","html-keyboard-response","125","998219","0.0-11.0-2.11","ZzDFfWWXmW","6155083c1e4cee887b92d482","6617fad957f7c6a12ea16e26","6622cb4dd7348145f4ffdd87","
    <div id=""grid-container"">
        <!-- Grid items will be dynamically added here -->
    </div>    ","null","","","","","","","","","","","",""
"","null","html-keyboard-response","126","998921","0.0-11.0-0.12","ZzDFfWWXmW","6155083c1e4cee887b92d482","6617fad957f7c6a12ea16e26","6622cb4dd7348145f4ffdd87","fixation cross","null","","","","","","","","","","","",""
"","1521","html-keyboard-response","127","1000443","0.0-11.0-1.12","ZzDFfWWXmW","6155083c1e4cee887b92d482","6617fad957f7c6a12ea16e26","6622cb4dd7348145f4ffdd87","image grid","p","","","","","Phylogenetic_Distractor_notarget","2500","ongrid"," ","2","Phylogenetic","false","experimental"
"","null","html-keyboard-response","128","1000596","0.0-11.0-2.12","ZzDFfWWXmW","6155083c1e4cee887b92d482","6617fad957f7c6a12ea16e26","6622cb4dd7348145f4ffdd87","
    <div id=""grid-container"">
        <!-- Grid items will be dynamically added here -->
    </div>    ","null","","","","","","","","","","","",""
"","null","html-keyboard-response","129","1001299","0.0-11.0-0.13","ZzDFfWWXmW","6155083c1e4cee887b92d482","6617fad957f7c6a12ea16e26","6622cb4dd7348145f4ffdd87","fixation cross","null","","","","","","","","","","","",""
"","1399","html-keyboard-response","130","1002699","0.0-11.0-1.13","ZzDFfWWXmW","6155083c1e4cee887b92d482","6617fad957f7c6a12ea16e26","6622cb4dd7348145f4ffdd87","image grid"," ","","","","","Phylogenetic_Distractor_Nonthreat_target","2500","ongrid","p","9","Phylogenetic","false","experimental"
"","null","html-keyboard-response","131","1002853","0.0-11.0-2.13","ZzDFfWWXmW","6155083c1e4cee887b92d482","6617fad957f7c6a12ea16e26","6622cb4dd7348145f4ffdd87","
    <div id=""grid-container"">
        <!-- Grid items will be dynamically added here -->
    </div>    ","null","","","","","","","","","","","",""
"","null","html-keyboard-response","132","1003555","0.0-11.0-0.14","ZzDFfWWXmW","6155083c1e4cee887b92d482","6617fad957f7c6a12ea16e26","6622cb4dd7348145f4ffdd87","fixation cross","null","","","","","","","","","","","",""
"","1304","html-keyboard-response","133","1004860","0.0-11.0-1.14","ZzDFfWWXmW","6155083c1e4cee887b92d482","6617fad957f7c6a12ea16e26","6622cb4dd7348145f4ffdd87","image grid","q","","","","","Phylogenetic_Distractor_Threat_target","2500","ongrid","q","9","Phylogenetic","true","experimental"
"","null","html-keyboard-response","134","1005013","0.0-11.0-2.14","ZzDFfWWXmW","6155083c1e4cee887b92d482","6617fad957f7c6a12ea16e26","6622cb4dd7348145f4ffdd87","
    <div id=""grid-container"">
        <!-- Grid items will be dynamically added here -->
    </div>    ","null","","","","","","","","","","","",""
"","null","html-keyboard-response","135","1005715","0.0-11.0-0.15","ZzDFfWWXmW","6155083c1e4cee887b92d482","6617fad957f7c6a12ea16e26","6622cb4dd7348145f4ffdd87","fixation cross","null","","","","","","","","","","","",""
"","1488","html-keyboard-response","136","1007205","0.0-11.0-1.15","ZzDFfWWXmW","6155083c1e4cee887b92d482","6617fad957f7c6a12ea16e26","6622cb4dd7348145f4ffdd87","image grid","p","","","","","Phylogenetic_Distractor_Nonthreat_target","2500","ongrid","p","6","Phylogenetic","true","experimental"
"","null","html-keyboard-response","137","1007358","0.0-11.0-2.15","ZzDFfWWXmW","6155083c1e4cee887b92d482","6617fad957f7c6a12ea16e26","6622cb4dd7348145f4ffdd87","
    <div id=""grid-container"">
        <!-- Grid items will be dynamically added here -->
    </div>    ","null","","","","","","","","","","","",""
"","null","html-keyboard-response","138","1008060","0.0-11.0-0.16","ZzDFfWWXmW","6155083c1e4cee887b92d482","6617fad957f7c6a12ea16e26","6622cb4dd7348145f4ffdd87","fixation cross","null","","","","","","","","","","","",""
"","849","html-keyboard-response","139","1008911","0.0-11.0-1.16","ZzDFfWWXmW","6155083c1e4cee887b92d482","6617fad957f7c6a12ea16e26","6622cb4dd7348145f4ffdd87","image grid","q","","","","","Phylogenetic_Distractor_Threat_target","2500","ongrid","q","7","Phylogenetic","true","experimental"
"","null","html-keyboard-response","140","1009064","0.0-11.0-2.16","ZzDFfWWXmW","6155083c1e4cee887b92d482","6617fad957f7c6a12ea16e26","6622cb4dd7348145f4ffdd87","
    <div id=""grid-container"">
        <!-- Grid items will be dynamically added here -->
    </div>    ","null","","","","","","","","","","","",""
"","null","html-keyboard-response","141","1009766","0.0-11.0-0.17","ZzDFfWWXmW","6155083c1e4cee887b92d482","6617fad957f7c6a12ea16e26","6622cb4dd7348145f4ffdd87","fixation cross","null","","","","","","","","","","","",""
"","1090","html-keyboard-response","142","1010857","0.0-11.0-1.17","ZzDFfWWXmW","6155083c1e4cee887b92d482","6617fad957f7c6a12ea16e26","6622cb4dd7348145f4ffdd87","image grid","p","","","","","Phylogenetic_Distractor_Nonthreat_target","2500","ongrid","p","4","Phylogenetic","true","experimental"
"","null","html-keyboard-response","143","1011009","0.0-11.0-2.17","ZzDFfWWXmW","6155083c1e4cee887b92d482","6617fad957f7c6a12ea16e26","6622cb4dd7348145f4ffdd87","
    <div id=""grid-container"">
        <!-- Grid items will be dynamically added here -->
    </div>    ","null","","","","","","","","","","","",""
"","null","html-keyboard-response","144","1011711","0.0-11.0-0.18","ZzDFfWWXmW","6155083c1e4cee887b92d482","6617fad957f7c6a12ea16e26","6622cb4dd7348145f4ffdd87","fixation cross","null","","","","","","","","","","","",""
"","1208","html-keyboard-response","145","1012921","0.0-11.0-1.18","ZzDFfWWXmW","6155083c1e4cee887b92d482","6617fad957f7c6a12ea16e26","6622cb4dd7348145f4ffdd87","image grid","q","","","","","Phylogenetic_Distractor_Threat_target","2500","ongrid","q","1","Phylogenetic","true","experimental"
"","null","html-keyboard-response","146","1013073","0.0-11.0-2.18","ZzDFfWWXmW","6155083c1e4cee887b92d482","6617fad957f7c6a12ea16e26","6622cb4dd7348145f4ffdd87","
    <div id=""grid-container"">
        <!-- Grid items will be dynamically added here -->
    </div>    ","null","","","","","","","","","","","",""
"","null","html-keyboard-response","147","1013776","0.0-11.0-0.19","ZzDFfWWXmW","6155083c1e4cee887b92d482","6617fad957f7c6a12ea16e26","6622cb4dd7348145f4ffdd87","fixation cross","null","","","","","","","","","","","",""
"","1979","html-keyboard-response","148","1015756","0.0-11.0-1.19","ZzDFfWWXmW","6155083c1e4cee887b92d482","6617fad957f7c6a12ea16e26","6622cb4dd7348145f4ffdd87","image grid"," ","","","","","Phylogenetic_Distractor_notarget","2500","ongrid"," ","2","Phylogenetic","true","experimental"
"","null","html-keyboard-response","149","1015909","0.0-11.0-2.19","ZzDFfWWXmW","6155083c1e4cee887b92d482","6617fad957f7c6a12ea16e26","6622cb4dd7348145f4ffdd87","
    <div id=""grid-container"">
        <!-- Grid items will be dynamically added here -->
    </div>    ","null","","","","","","","","","","","",""
"","null","html-keyboard-response","150","1016612","0.0-11.0-0.20","ZzDFfWWXmW","6155083c1e4cee887b92d482","6617fad957f7c6a12ea16e26","6622cb4dd7348145f4ffdd87","fixation cross","null","","","","","","","","","","","",""
"","1338","html-keyboard-response","151","1017951","0.0-11.0-1.20","ZzDFfWWXmW","6155083c1e4cee887b92d482","6617fad957f7c6a12ea16e26","6622cb4dd7348145f4ffdd87","image grid","p","","","","","Phylogenetic_Distractor_Nonthreat_target","2500","ongrid","p","6","Phylogenetic","true","experimental"
"","null","html-keyboard-response","152","1018104","0.0-11.0-2.20","ZzDFfWWXmW","6155083c1e4cee887b92d482","6617fad957f7c6a12ea16e26","6622cb4dd7348145f4ffdd87","
    <div id=""grid-container"">
        <!-- Grid items will be dynamically added here -->
    </div>    ","null","","","","","","","","","","","",""
"","null","html-keyboard-response","153","1018806","0.0-11.0-0.21","ZzDFfWWXmW","6155083c1e4cee887b92d482","6617fad957f7c6a12ea16e26","6622cb4dd7348145f4ffdd87","fixation cross","null","","","","","","","","","","","",""
"","1987","html-keyboard-response","154","1020795","0.0-11.0-1.21","ZzDFfWWXmW","6155083c1e4cee887b92d482","6617fad957f7c6a12ea16e26","6622cb4dd7348145f4ffdd87","image grid"," ","","","","","Phylogenetic_Distractor_Nonthreat_target","2500","ongrid","p","7","Phylogenetic","false","experimental"
"","null","html-keyboard-response","155","1020947","0.0-11.0-2.21","ZzDFfWWXmW","6155083c1e4cee887b92d482","6617fad957f7c6a12ea16e26","6622cb4dd7348145f4ffdd87","
    <div id=""grid-container"">
        <!-- Grid items will be dynamically added here -->
    </div>    ","null","","","","","","","","","","","",""
"","null","html-keyboard-response","156","1021650","0.0-11.0-0.22","ZzDFfWWXmW","6155083c1e4cee887b92d482","6617fad957f7c6a12ea16e26","6622cb4dd7348145f4ffdd87","fixation cross","null","","","","","","","","","","","",""
"","2142","html-keyboard-response","157","1023793","0.0-11.0-1.22","ZzDFfWWXmW","6155083c1e4cee887b92d482","6617fad957f7c6a12ea16e26","6622cb4dd7348145f4ffdd87","image grid","p","","","","","Phylogenetic_Distractor_notarget","2500","ongrid"," ","4","Phylogenetic","false","experimental"
"","null","html-keyboard-response","158","1023947","0.0-11.0-2.22","ZzDFfWWXmW","6155083c1e4cee887b92d482","6617fad957f7c6a12ea16e26","6622cb4dd7348145f4ffdd87","
    <div id=""grid-container"">
        <!-- Grid items will be dynamically added here -->
    </div>    ","null","","","","","","","","","","","",""
"","null","html-keyboard-response","159","1024649","0.0-11.0-0.23","ZzDFfWWXmW","6155083c1e4cee887b92d482","6617fad957f7c6a12ea16e26","6622cb4dd7348145f4ffdd87","fixation cross","null","","","","","","","","","","","",""
"","1231","html-keyboard-response","160","1025881","0.0-11.0-1.23","ZzDFfWWXmW","6155083c1e4cee887b92d482","6617fad957f7c6a12ea16e26","6622cb4dd7348145f4ffdd87","image grid","q","","","","","Phylogenetic_Distractor_Threat_target","2500","ongrid","q","5","Phylogenetic","true","experimental"
"","null","html-keyboard-response","161","1026035","0.0-11.0-2.23","ZzDFfWWXmW","6155083c1e4cee887b92d482","6617fad957f7c6a12ea16e26","6622cb4dd7348145f4ffdd87","
    <div id=""grid-container"">
        <!-- Grid items will be dynamically added here -->
    </div>    ","null","","","","","","","","","","","",""
"","null","html-keyboard-response","162","1026737","0.0-11.0-0.24","ZzDFfWWXmW","6155083c1e4cee887b92d482","6617fad957f7c6a12ea16e26","6622cb4dd7348145f4ffdd87","fixation cross","null","","","","","","","","","","","",""
"","1427","html-keyboard-response","163","1028165","0.0-11.0-1.24","ZzDFfWWXmW","6155083c1e4cee887b92d482","6617fad957f7c6a12ea16e26","6622cb4dd7348145f4ffdd87","image grid","q","","","","","Phylogenetic_Distractor_Threat_target","2500","ongrid","q","9","Phylogenetic","true","experimental"
"","null","html-keyboard-response","164","1028318","0.0-11.0-2.24","ZzDFfWWXmW","6155083c1e4cee887b92d482","6617fad957f7c6a12ea16e26","6622cb4dd7348145f4ffdd87","
    <div id=""grid-container"">
        <!-- Grid items will be dynamically added here -->
    </div>    ","null","","","","","","","","","","","",""
"","null","html-keyboard-response","165","1029020","0.0-11.0-0.25","ZzDFfWWXmW","6155083c1e4cee887b92d482","6617fad957f7c6a12ea16e26","6622cb4dd7348145f4ffdd87","fixation cross","null","","","","","","","","","","","",""
"","1369","html-keyboard-response","166","1030391","0.0-11.0-1.25","ZzDFfWWXmW","6155083c1e4cee887b92d482","6617fad957f7c6a12ea16e26","6622cb4dd7348145f4ffdd87","image grid","q","","","","","Phylogenetic_Distractor_Threat_target","2500","ongrid","q","4","Phylogenetic","true","experimental"
"","null","html-keyboard-response","167","1030544","0.0-11.0-2.25","ZzDFfWWXmW","6155083c1e4cee887b92d482","6617fad957f7c6a12ea16e26","6622cb4dd7348145f4ffdd87","
    <div id=""grid-container"">
        <!-- Grid items will be dynamically added here -->
    </div>    ","null","","","","","","","","","","","",""
"","null","html-keyboard-response","168","1031247","0.0-11.0-0.26","ZzDFfWWXmW","6155083c1e4cee887b92d482","6617fad957f7c6a12ea16e26","6622cb4dd7348145f4ffdd87","fixation cross","null","","","","","","","","","","","",""
"","1975","html-keyboard-response","169","1033225","0.0-11.0-1.26","ZzDFfWWXmW","6155083c1e4cee887b92d482","6617fad957f7c6a12ea16e26","6622cb4dd7348145f4ffdd87","image grid","q","","","","","Phylogenetic_Distractor_Threat_target","2500","ongrid","q","8","Phylogenetic","true","experimental"
"","null","html-keyboard-response","170","1033378","0.0-11.0-2.26","ZzDFfWWXmW","6155083c1e4cee887b92d482","6617fad957f7c6a12ea16e26","6622cb4dd7348145f4ffdd87","
    <div id=""grid-container"">
        <!-- Grid items will be dynamically added here -->
    </div>    ","null","","","","","","","","","","","",""
"","null","html-keyboard-response","171","1034080","0.0-11.0-0.27","ZzDFfWWXmW","6155083c1e4cee887b92d482","6617fad957f7c6a12ea16e26","6622cb4dd7348145f4ffdd87","fixation cross","null","","","","","","","","","","","",""
"","2317","html-keyboard-response","172","1036398","0.0-11.0-1.27","ZzDFfWWXmW","6155083c1e4cee887b92d482","6617fad957f7c6a12ea16e26","6622cb4dd7348145f4ffdd87","image grid"," ","","","","","Phylogenetic_Distractor_Nonthreat_target","2500","ongrid","p","5","Phylogenetic","false","experimental"
"","null","html-keyboard-response","173","1036551","0.0-11.0-2.27","ZzDFfWWXmW","6155083c1e4cee887b92d482","6617fad957f7c6a12ea16e26","6622cb4dd7348145f4ffdd87","
    <div id=""grid-container"">
        <!-- Grid items will be dynamically added here -->
    </div>    ","null","","","","","","","","","","","",""
"","null","html-keyboard-response","174","1037254","0.0-11.0-0.28","ZzDFfWWXmW","6155083c1e4cee887b92d482","6617fad957f7c6a12ea16e26","6622cb4dd7348145f4ffdd87","fixation cross","null","","","","","","","","","","","",""
"","2052","html-keyboard-response","175","1039307","0.0-11.0-1.28","ZzDFfWWXmW","6155083c1e4cee887b92d482","6617fad957f7c6a12ea16e26","6622cb4dd7348145f4ffdd87","image grid","p","","","","","Phylogenetic_Distractor_Nonthreat_target","2500","ongrid","p","7","Phylogenetic","true","experimental"
"","null","html-keyboard-response","176","1039460","0.0-11.0-2.28","ZzDFfWWXmW","6155083c1e4cee887b92d482","6617fad957f7c6a12ea16e26","6622cb4dd7348145f4ffdd87","
    <div id=""grid-container"">
        <!-- Grid items will be dynamically added here -->
    </div>    ","null","","","","","","","","","","","",""
"","null","html-keyboard-response","177","1040163","0.0-11.0-0.29","ZzDFfWWXmW","6155083c1e4cee887b92d482","6617fad957f7c6a12ea16e26","6622cb4dd7348145f4ffdd87","fixation cross","null","","","","","","","","","","","",""
"","1607","html-keyboard-response","178","1041771","0.0-11.0-1.29","ZzDFfWWXmW","6155083c1e4cee887b92d482","6617fad957f7c6a12ea16e26","6622cb4dd7348145f4ffdd87","image grid","p","","","","","Phylogenetic_Distractor_Nonthreat_target","2500","ongrid","p","6","Phylogenetic","true","experimental"
"","null","html-keyboard-response","179","1041924","0.0-11.0-2.29","ZzDFfWWXmW","6155083c1e4cee887b92d482","6617fad957f7c6a12ea16e26","6622cb4dd7348145f4ffdd87","
    <div id=""grid-container"">
        <!-- Grid items will be dynamically added here -->
    </div>    ","null","","","","","","","","","","","",""
"","null","html-keyboard-response","180","1042626","0.0-11.0-0.30","ZzDFfWWXmW","6155083c1e4cee887b92d482","6617fad957f7c6a12ea16e26","6622cb4dd7348145f4ffdd87","fixation cross","null","","","","","","","","","","","",""
"","942","html-keyboard-response","181","1043570","0.0-11.0-1.30","ZzDFfWWXmW","6155083c1e4cee887b92d482","6617fad957f7c6a12ea16e26","6622cb4dd7348145f4ffdd87","image grid","q","","","","","Phylogenetic_Distractor_Threat_target","2500","ongrid","q","8","Phylogenetic","true","experimental"
"","null","html-keyboard-response","182","1043723","0.0-11.0-2.30","ZzDFfWWXmW","6155083c1e4cee887b92d482","6617fad957f7c6a12ea16e26","6622cb4dd7348145f4ffdd87","
    <div id=""grid-container"">
        <!-- Grid items will be dynamically added here -->
    </div>    ","null","","","","","","","","","","","",""
"","null","html-keyboard-response","183","1044425","0.0-11.0-0.31","ZzDFfWWXmW","6155083c1e4cee887b92d482","6617fad957f7c6a12ea16e26","6622cb4dd7348145f4ffdd87","fixation cross","null","","","","","","","","","","","",""
"","1733","html-keyboard-response","184","1046159","0.0-11.0-1.31","ZzDFfWWXmW","6155083c1e4cee887b92d482","6617fad957f7c6a12ea16e26","6622cb4dd7348145f4ffdd87","image grid","p","","","","","Phylogenetic_Distractor_Nonthreat_target","2500","ongrid","p","6","Phylogenetic","true","experimental"
"","null","html-keyboard-response","185","1046312","0.0-11.0-2.31","ZzDFfWWXmW","6155083c1e4cee887b92d482","6617fad957f7c6a12ea16e26","6622cb4dd7348145f4ffdd87","
    <div id=""grid-container"">
        <!-- Grid items will be dynamically added here -->
    </div>    ","null","","","","","","","","","","","",""
"","null","html-keyboard-response","186","1047015","0.0-11.0-0.32","ZzDFfWWXmW","6155083c1e4cee887b92d482","6617fad957f7c6a12ea16e26","6622cb4dd7348145f4ffdd87","fixation cross","null","","","","","","","","","","","",""
"","1568","html-keyboard-response","187","1048584","0.0-11.0-1.32","ZzDFfWWXmW","6155083c1e4cee887b92d482","6617fad957f7c6a12ea16e26","6622cb4dd7348145f4ffdd87","image grid"," ","","","","","Phylogenetic_Distractor_Nonthreat_target","2500","ongrid","p","6","Phylogenetic","false","experimental"
"","null","html-keyboard-response","188","1048737","0.0-11.0-2.32","ZzDFfWWXmW","6155083c1e4cee887b92d482","6617fad957f7c6a12ea16e26","6622cb4dd7348145f4ffdd87","
    <div id=""grid-container"">
        <!-- Grid items will be dynamically added here -->
    </div>    ","null","","","","","","","","","","","",""
"","null","html-keyboard-response","189","1049440","0.0-11.0-0.33","ZzDFfWWXmW","6155083c1e4cee887b92d482","6617fad957f7c6a12ea16e26","6622cb4dd7348145f4ffdd87","fixation cross","null","","","","","","","","","","","",""
"","1365","html-keyboard-response","190","1050806","0.0-11.0-1.33","ZzDFfWWXmW","6155083c1e4cee887b92d482","6617fad957f7c6a12ea16e26","6622cb4dd7348145f4ffdd87","image grid","p","","","","","Phylogenetic_Distractor_Nonthreat_target","2500","ongrid","p","6","Phylogenetic","true","experimental"
"","null","html-keyboard-response","191","1050959","0.0-11.0-2.33","ZzDFfWWXmW","6155083c1e4cee887b92d482","6617fad957f7c6a12ea16e26","6622cb4dd7348145f4ffdd87","
    <div id=""grid-container"">
        <!-- Grid items will be dynamically added here -->
    </div>    ","null","","","","","","","","","","","",""
"","null","html-keyboard-response","192","1051662","0.0-11.0-0.34","ZzDFfWWXmW","6155083c1e4cee887b92d482","6617fad957f7c6a12ea16e26","6622cb4dd7348145f4ffdd87","fixation cross","null","","","","","","","","","","","",""
"","873","html-keyboard-response","193","1052536","0.0-11.0-1.34","ZzDFfWWXmW","6155083c1e4cee887b92d482","6617fad957f7c6a12ea16e26","6622cb4dd7348145f4ffdd87","image grid","q","","","","","Phylogenetic_Distractor_Threat_target","2500","ongrid","q","4","Phylogenetic","true","experimental"
"","null","html-keyboard-response","194","1052689","0.0-11.0-2.34","ZzDFfWWXmW","6155083c1e4cee887b92d482","6617fad957f7c6a12ea16e26","6622cb4dd7348145f4ffdd87","
    <div id=""grid-container"">
        <!-- Grid items will be dynamically added here -->
    </div>    ","null","","","","","","","","","","","",""
"","null","html-keyboard-response","195","1053391","0.0-11.0-0.35","ZzDFfWWXmW","6155083c1e4cee887b92d482","6617fad957f7c6a12ea16e26","6622cb4dd7348145f4ffdd87","fixation cross","null","","","","","","","","","","","",""
"","845","html-keyboard-response","196","1054237","0.0-11.0-1.35","ZzDFfWWXmW","6155083c1e4cee887b92d482","6617fad957f7c6a12ea16e26","6622cb4dd7348145f4ffdd87","image grid","q","","","","","Phylogenetic_Distractor_Threat_target","2500","ongrid","q","5","Phylogenetic","true","experimental"
"","null","html-keyboard-response","197","1054391","0.0-11.0-2.35","ZzDFfWWXmW","6155083c1e4cee887b92d482","6617fad957f7c6a12ea16e26","6622cb4dd7348145f4ffdd87","
    <div id=""grid-container"">
        <!-- Grid items will be dynamically added here -->
    </div>    ","null","","","","","","","","","","","",""
"","null","html-keyboard-response","198","1055093","0.0-11.0-0.36","ZzDFfWWXmW","6155083c1e4cee887b92d482","6617fad957f7c6a12ea16e26","6622cb4dd7348145f4ffdd87","fixation cross","null","","","","","","","","","","","",""
"","987","html-keyboard-response","199","1056081","0.0-11.0-1.36","ZzDFfWWXmW","6155083c1e4cee887b92d482","6617fad957f7c6a12ea16e26","6622cb4dd7348145f4ffdd87","image grid","q","","","","","Phylogenetic_Distractor_Threat_target","2500","ongrid","q","5","Phylogenetic","true","experimental"
"","null","html-keyboard-response","200","1056235","0.0-11.0-2.36","ZzDFfWWXmW","6155083c1e4cee887b92d482","6617fad957f7c6a12ea16e26","6622cb4dd7348145f4ffdd87","
    <div id=""grid-container"">
        <!-- Grid items will be dynamically added here -->
    </div>    ","null","","","","","","","","","","","",""
"","null","html-keyboard-response","201","1056937","0.0-11.0-0.37","ZzDFfWWXmW","6155083c1e4cee887b92d482","6617fad957f7c6a12ea16e26","6622cb4dd7348145f4ffdd87","fixation cross","null","","","","","","","","","","","",""
"","1860","html-keyboard-response","202","1058798","0.0-11.0-1.37","ZzDFfWWXmW","6155083c1e4cee887b92d482","6617fad957f7c6a12ea16e26","6622cb4dd7348145f4ffdd87","image grid","p","","","","","Phylogenetic_Distractor_Threat_target","2500","ongrid","q","7","Phylogenetic","false","experimental"
"","null","html-keyboard-response","203","1058952","0.0-11.0-2.37","ZzDFfWWXmW","6155083c1e4cee887b92d482","6617fad957f7c6a12ea16e26","6622cb4dd7348145f4ffdd87","
    <div id=""grid-container"">
        <!-- Grid items will be dynamically added here -->
    </div>    ","null","","","","","","","","","","","",""
"","null","html-keyboard-response","204","1059654","0.0-11.0-0.38","ZzDFfWWXmW","6155083c1e4cee887b92d482","6617fad957f7c6a12ea16e26","6622cb4dd7348145f4ffdd87","fixation cross","null","","","","","","","","","","","",""
"","1891","html-keyboard-response","205","1061546","0.0-11.0-1.38","ZzDFfWWXmW","6155083c1e4cee887b92d482","6617fad957f7c6a12ea16e26","6622cb4dd7348145f4ffdd87","image grid","p","","","","","Phylogenetic_Distractor_Nonthreat_target","2500","ongrid","p","8","Phylogenetic","true","experimental"
"","null","html-keyboard-response","206","1061699","0.0-11.0-2.38","ZzDFfWWXmW","6155083c1e4cee887b92d482","6617fad957f7c6a12ea16e26","6622cb4dd7348145f4ffdd87","
    <div id=""grid-container"">
        <!-- Grid items will be dynamically added here -->
    </div>    ","null","","","","","","","","","","","",""
"","null","html-keyboard-response","207","1062402","0.0-11.0-0.39","ZzDFfWWXmW","6155083c1e4cee887b92d482","6617fad957f7c6a12ea16e26","6622cb4dd7348145f4ffdd87","fixation cross","null","","","","","","","","","","","",""
"","1014","html-keyboard-response","208","1063417","0.0-11.0-1.39","ZzDFfWWXmW","6155083c1e4cee887b92d482","6617fad957f7c6a12ea16e26","6622cb4dd7348145f4ffdd87","image grid","q","","","","","Phylogenetic_Distractor_Threat_target","2500","ongrid","q","3","Phylogenetic","true","experimental"
"","null","html-keyboard-response","209","1063570","0.0-11.0-2.39","ZzDFfWWXmW","6155083c1e4cee887b92d482","6617fad957f7c6a12ea16e26","6622cb4dd7348145f4ffdd87","
    <div id=""grid-container"">
        <!-- Grid items will be dynamically added here -->
    </div>    ","null","","","","","","","","","","","",""
"","3819","html-keyboard-response","210","1067676","0.0-12.0","ZzDFfWWXmW","6155083c1e4cee887b92d482","6617fad957f7c6a12ea16e26","6622cb4dd7348145f4ffdd87","break screen"," ","","","","","","","","","","","",""
"","null","html-keyboard-response","211","1070179","0.0-13.0-0.0","ZzDFfWWXmW","6155083c1e4cee887b92d482","6617fad957f7c6a12ea16e26","6622cb4dd7348145f4ffdd87","fixation cross","null","","","","","","","","","","","",""
"","null","html-keyboard-response","212","1070981","0.0-13.0-1.0","ZzDFfWWXmW","6155083c1e4cee887b92d482","6617fad957f7c6a12ea16e26","6622cb4dd7348145f4ffdd87","
        <div id=""grid-container"">
        <!-- Grid items will be dynamically added here -->
    </div>    ","null","","","","","","","","","","","",""
"","2036","html-keyboard-response","213","1072218","0.0-13.0-2.0","ZzDFfWWXmW","6155083c1e4cee887b92d482","6617fad957f7c6a12ea16e26","6622cb4dd7348145f4ffdd87","mask grid","q","","","","","Ontogenetic_Distractor_Threat_target","800","onmask","q","6","Ontogenetic","true","experimental"
"","null","html-keyboard-response","214","1072922","0.0-13.0-0.1","ZzDFfWWXmW","6155083c1e4cee887b92d482","6617fad957f7c6a12ea16e26","6622cb4dd7348145f4ffdd87","fixation cross","null","","","","","","","","","","","",""
"","null","html-keyboard-response","215","1073724","0.0-13.0-1.1","ZzDFfWWXmW","6155083c1e4cee887b92d482","6617fad957f7c6a12ea16e26","6622cb4dd7348145f4ffdd87","
        <div id=""grid-container"">
        <!-- Grid items will be dynamically added here -->
    </div>    ","null","","","","","","","","","","","",""
"","1129","html-keyboard-response","216","1074054","0.0-13.0-2.1","ZzDFfWWXmW","6155083c1e4cee887b92d482","6617fad957f7c6a12ea16e26","6622cb4dd7348145f4ffdd87","mask grid","q","","","","","Ontogenetic_Distractor_Threat_target","800","onmask","q","8","Ontogenetic","true","experimental"
"","null","html-keyboard-response","217","1074757","0.0-13.0-0.2","ZzDFfWWXmW","6155083c1e4cee887b92d482","6617fad957f7c6a12ea16e26","6622cb4dd7348145f4ffdd87","fixation cross","null","","","","","","","","","","","",""
"","null","html-keyboard-response","218","1075559","0.0-13.0-1.2","ZzDFfWWXmW","6155083c1e4cee887b92d482","6617fad957f7c6a12ea16e26","6622cb4dd7348145f4ffdd87","
        <div id=""grid-container"">
        <!-- Grid items will be dynamically added here -->
    </div>    ","null","","","","","","","","","","","",""
"","1175","html-keyboard-response","219","1075936","0.0-13.0-2.2","ZzDFfWWXmW","6155083c1e4cee887b92d482","6617fad957f7c6a12ea16e26","6622cb4dd7348145f4ffdd87","mask grid","q","","","","","Ontogenetic_Distractor_Threat_target","800","onmask","q","4","Ontogenetic","true","experimental"
"","null","html-keyboard-response","220","1076639","0.0-13.0-0.3","ZzDFfWWXmW","6155083c1e4cee887b92d482","6617fad957f7c6a12ea16e26","6622cb4dd7348145f4ffdd87","fixation cross","null","","","","","","","","","","","",""
"","null","html-keyboard-response","221","1077441","0.0-13.0-1.3","ZzDFfWWXmW","6155083c1e4cee887b92d482","6617fad957f7c6a12ea16e26","6622cb4dd7348145f4ffdd87","
        <div id=""grid-container"">
        <!-- Grid items will be dynamically added here -->
    </div>    ","null","","","","","","","","","","","",""
"","1245","html-keyboard-response","222","1077887","0.0-13.0-2.3","ZzDFfWWXmW","6155083c1e4cee887b92d482","6617fad957f7c6a12ea16e26","6622cb4dd7348145f4ffdd87","mask grid","p","","","","","Ontogenetic_Distractor_notarget","800","onmask"," ","8","Ontogenetic","false","experimental"
"","null","html-keyboard-response","223","1078591","0.0-13.0-0.4","ZzDFfWWXmW","6155083c1e4cee887b92d482","6617fad957f7c6a12ea16e26","6622cb4dd7348145f4ffdd87","fixation cross","null","","","","","","","","","","","",""
"","null","html-keyboard-response","224","1079393","0.0-13.0-1.4","ZzDFfWWXmW","6155083c1e4cee887b92d482","6617fad957f7c6a12ea16e26","6622cb4dd7348145f4ffdd87","
        <div id=""grid-container"">
        <!-- Grid items will be dynamically added here -->
    </div>    ","null","","","","","","","","","","","",""
"","1054","html-keyboard-response","225","1079649","0.0-13.0-2.4","ZzDFfWWXmW","6155083c1e4cee887b92d482","6617fad957f7c6a12ea16e26","6622cb4dd7348145f4ffdd87","mask grid"," ","","","","","Ontogenetic_Distractor_Nonthreat_target","800","onmask","p","2","Ontogenetic","false","experimental"
"","null","html-keyboard-response","226","1080352","0.0-13.0-0.5","ZzDFfWWXmW","6155083c1e4cee887b92d482","6617fad957f7c6a12ea16e26","6622cb4dd7348145f4ffdd87","fixation cross","null","","","","","","","","","","","",""
"","null","html-keyboard-response","227","1081155","0.0-13.0-1.5","ZzDFfWWXmW","6155083c1e4cee887b92d482","6617fad957f7c6a12ea16e26","6622cb4dd7348145f4ffdd87","
        <div id=""grid-container"">
        <!-- Grid items will be dynamically added here -->
    </div>    ","null","","","","","","","","","","","",""
"","1362","html-keyboard-response","228","1081719","0.0-13.0-2.5","ZzDFfWWXmW","6155083c1e4cee887b92d482","6617fad957f7c6a12ea16e26","6622cb4dd7348145f4ffdd87","mask grid"," ","","","","","Ontogenetic_Distractor_Nonthreat_target","800","onmask","p","2","Ontogenetic","false","experimental"
"","null","html-keyboard-response","229","1082422","0.0-13.0-0.6","ZzDFfWWXmW","6155083c1e4cee887b92d482","6617fad957f7c6a12ea16e26","6622cb4dd7348145f4ffdd87","fixation cross","null","","","","","","","","","","","",""
"","null","html-keyboard-response","230","1083224","0.0-13.0-1.6","ZzDFfWWXmW","6155083c1e4cee887b92d482","6617fad957f7c6a12ea16e26","6622cb4dd7348145f4ffdd87","
        <div id=""grid-container"">
        <!-- Grid items will be dynamically added here -->
    </div>    ","null","","","","","","","","","","","",""
"","925","html-keyboard-response","231","1083351","0.0-13.0-2.6","ZzDFfWWXmW","6155083c1e4cee887b92d482","6617fad957f7c6a12ea16e26","6622cb4dd7348145f4ffdd87","mask grid","q","","","","","Ontogenetic_Distractor_Threat_target","800","onmask","q","1","Ontogenetic","true","experimental"
"","null","html-keyboard-response","232","1084054","0.0-13.0-0.7","ZzDFfWWXmW","6155083c1e4cee887b92d482","6617fad957f7c6a12ea16e26","6622cb4dd7348145f4ffdd87","fixation cross","null","","","","","","","","","","","",""
"","null","html-keyboard-response","233","1084856","0.0-13.0-1.7","ZzDFfWWXmW","6155083c1e4cee887b92d482","6617fad957f7c6a12ea16e26","6622cb4dd7348145f4ffdd87","
        <div id=""grid-container"">
        <!-- Grid items will be dynamically added here -->
    </div>    ","null","","","","","","","","","","","",""
"","910","html-keyboard-response","234","1084967","0.0-13.0-2.7","ZzDFfWWXmW","6155083c1e4cee887b92d482","6617fad957f7c6a12ea16e26","6622cb4dd7348145f4ffdd87","mask grid","q","","","","","Ontogenetic_Distractor_Threat_target","800","onmask","q","8","Ontogenetic","true","experimental"
"","null","html-keyboard-response","235","1085670","0.0-13.0-0.8","ZzDFfWWXmW","6155083c1e4cee887b92d482","6617fad957f7c6a12ea16e26","6622cb4dd7348145f4ffdd87","fixation cross","null","","","","","","","","","","","",""
"","null","html-keyboard-response","236","1086473","0.0-13.0-1.8","ZzDFfWWXmW","6155083c1e4cee887b92d482","6617fad957f7c6a12ea16e26","6622cb4dd7348145f4ffdd87","
        <div id=""grid-container"">
        <!-- Grid items will be dynamically added here -->
    </div>    ","null","","","","","","","","","","","",""
"","827","html-keyboard-response","237","1086501","0.0-13.0-2.8","ZzDFfWWXmW","6155083c1e4cee887b92d482","6617fad957f7c6a12ea16e26","6622cb4dd7348145f4ffdd87","mask grid","q","","","","","Ontogenetic_Distractor_Threat_target","800","onmask","q","5","Ontogenetic","true","experimental"
"","null","html-keyboard-response","238","1087203","0.0-13.0-0.9","ZzDFfWWXmW","6155083c1e4cee887b92d482","6617fad957f7c6a12ea16e26","6622cb4dd7348145f4ffdd87","fixation cross","null","","","","","","","","","","","",""
"","null","html-keyboard-response","239","1088005","0.0-13.0-1.9","ZzDFfWWXmW","6155083c1e4cee887b92d482","6617fad957f7c6a12ea16e26","6622cb4dd7348145f4ffdd87","
        <div id=""grid-container"">
        <!-- Grid items will be dynamically added here -->
    </div>    ","null","","","","","","","","","","","",""
"","940","html-keyboard-response","240","1088146","0.0-13.0-2.9","ZzDFfWWXmW","6155083c1e4cee887b92d482","6617fad957f7c6a12ea16e26","6622cb4dd7348145f4ffdd87","mask grid","q","","","","","Ontogenetic_Distractor_Threat_target","800","onmask","q","5","Ontogenetic","true","experimental"
"","null","html-keyboard-response","241","1088849","0.0-13.0-0.10","ZzDFfWWXmW","6155083c1e4cee887b92d482","6617fad957f7c6a12ea16e26","6622cb4dd7348145f4ffdd87","fixation cross","null","","","","","","","","","","","",""
"","741","html-keyboard-response","242","1089591","0.0-13.0-1.10","ZzDFfWWXmW","6155083c1e4cee887b92d482","6617fad957f7c6a12ea16e26","6622cb4dd7348145f4ffdd87","image grid","p","","","","","Ontogenetic_Distractor_Nonthreat_target","800","ongrid","p","6","Ontogenetic","true","experimental"
"","null","html-keyboard-response","243","1089744","0.0-13.0-2.10","ZzDFfWWXmW","6155083c1e4cee887b92d482","6617fad957f7c6a12ea16e26","6622cb4dd7348145f4ffdd87","
    <div id=""grid-container"">
        <!-- Grid items will be dynamically added here -->
    </div>    ","null","","","","","","","","","","","",""
"","null","html-keyboard-response","244","1090447","0.0-13.0-0.11","ZzDFfWWXmW","6155083c1e4cee887b92d482","6617fad957f7c6a12ea16e26","6622cb4dd7348145f4ffdd87","fixation cross","null","","","","","","","","","","","",""
"","697","html-keyboard-response","245","1091145","0.0-13.0-1.11","ZzDFfWWXmW","6155083c1e4cee887b92d482","6617fad957f7c6a12ea16e26","6622cb4dd7348145f4ffdd87","image grid","p","","","","","Ontogenetic_Distractor_Nonthreat_target","800","ongrid","p","5","Ontogenetic","true","experimental"
"","null","html-keyboard-response","246","1091299","0.0-13.0-2.11","ZzDFfWWXmW","6155083c1e4cee887b92d482","6617fad957f7c6a12ea16e26","6622cb4dd7348145f4ffdd87","
    <div id=""grid-container"">
        <!-- Grid items will be dynamically added here -->
    </div>    ","null","","","","","","","","","","","",""
"","null","html-keyboard-response","247","1092001","0.0-13.0-0.12","ZzDFfWWXmW","6155083c1e4cee887b92d482","6617fad957f7c6a12ea16e26","6622cb4dd7348145f4ffdd87","fixation cross","null","","","","","","","","","","","",""
"","null","html-keyboard-response","248","1092804","0.0-13.0-1.12","ZzDFfWWXmW","6155083c1e4cee887b92d482","6617fad957f7c6a12ea16e26","6622cb4dd7348145f4ffdd87","
        <div id=""grid-container"">
        <!-- Grid items will be dynamically added here -->
    </div>    ","null","","","","","","","","","","","",""
"","1040","html-keyboard-response","249","1093045","0.0-13.0-2.12","ZzDFfWWXmW","6155083c1e4cee887b92d482","6617fad957f7c6a12ea16e26","6622cb4dd7348145f4ffdd87","mask grid","q","","","","","Ontogenetic_Distractor_Threat_target","800","onmask","q","3","Ontogenetic","true","experimental"
"","null","html-keyboard-response","250","1093748","0.0-13.0-0.13","ZzDFfWWXmW","6155083c1e4cee887b92d482","6617fad957f7c6a12ea16e26","6622cb4dd7348145f4ffdd87","fixation cross","null","","","","","","","","","","","",""
"","754","html-keyboard-response","251","1094504","0.0-13.0-1.13","ZzDFfWWXmW","6155083c1e4cee887b92d482","6617fad957f7c6a12ea16e26","6622cb4dd7348145f4ffdd87","image grid","p","","","","","Ontogenetic_Distractor_notarget","800","ongrid"," ","1","Ontogenetic","false","experimental"
"","null","html-keyboard-response","252","1094657","0.0-13.0-2.13","ZzDFfWWXmW","6155083c1e4cee887b92d482","6617fad957f7c6a12ea16e26","6622cb4dd7348145f4ffdd87","
    <div id=""grid-container"">
        <!-- Grid items will be dynamically added here -->
    </div>    ","null","","","","","","","","","","","",""
"","null","html-keyboard-response","253","1095359","0.0-13.0-0.14","ZzDFfWWXmW","6155083c1e4cee887b92d482","6617fad957f7c6a12ea16e26","6622cb4dd7348145f4ffdd87","fixation cross","null","","","","","","","","","","","",""
"","690","html-keyboard-response","254","1096050","0.0-13.0-1.14","ZzDFfWWXmW","6155083c1e4cee887b92d482","6617fad957f7c6a12ea16e26","6622cb4dd7348145f4ffdd87","image grid","q","","","","","Ontogenetic_Distractor_Threat_target","800","ongrid","q","8","Ontogenetic","true","experimental"
"","null","html-keyboard-response","255","1096204","0.0-13.0-2.14","ZzDFfWWXmW","6155083c1e4cee887b92d482","6617fad957f7c6a12ea16e26","6622cb4dd7348145f4ffdd87","
    <div id=""grid-container"">
        <!-- Grid items will be dynamically added here -->
    </div>    ","null","","","","","","","","","","","",""
"","null","html-keyboard-response","256","1096906","0.0-13.0-0.15","ZzDFfWWXmW","6155083c1e4cee887b92d482","6617fad957f7c6a12ea16e26","6622cb4dd7348145f4ffdd87","fixation cross","null","","","","","","","","","","","",""
"","null","html-keyboard-response","257","1097708","0.0-13.0-1.15","ZzDFfWWXmW","6155083c1e4cee887b92d482","6617fad957f7c6a12ea16e26","6622cb4dd7348145f4ffdd87","
        <div id=""grid-container"">
        <!-- Grid items will be dynamically added here -->
    </div>    ","null","","","","","","","","","","","",""
"","1480","html-keyboard-response","258","1098389","0.0-13.0-2.15","ZzDFfWWXmW","6155083c1e4cee887b92d482","6617fad957f7c6a12ea16e26","6622cb4dd7348145f4ffdd87","mask grid","p","","","","","Ontogenetic_Distractor_Nonthreat_target","800","onmask","p","9","Ontogenetic","true","experimental"
"","null","html-keyboard-response","259","1099094","0.0-13.0-0.16","ZzDFfWWXmW","6155083c1e4cee887b92d482","6617fad957f7c6a12ea16e26","6622cb4dd7348145f4ffdd87","fixation cross","null","","","","","","","","","","","",""
"","null","html-keyboard-response","260","1099895","0.0-13.0-1.16","ZzDFfWWXmW","6155083c1e4cee887b92d482","6617fad957f7c6a12ea16e26","6622cb4dd7348145f4ffdd87","
        <div id=""grid-container"">
        <!-- Grid items will be dynamically added here -->
    </div>    ","null","","","","","","","","","","","",""
"","826","html-keyboard-response","261","1099922","0.0-13.0-2.16","ZzDFfWWXmW","6155083c1e4cee887b92d482","6617fad957f7c6a12ea16e26","6622cb4dd7348145f4ffdd87","mask grid","p","","","","","Ontogenetic_Distractor_notarget","800","onmask"," ","9","Ontogenetic","false","experimental"
"","null","html-keyboard-response","262","1100626","0.0-13.0-0.17","ZzDFfWWXmW","6155083c1e4cee887b92d482","6617fad957f7c6a12ea16e26","6622cb4dd7348145f4ffdd87","fixation cross","null","","","","","","","","","","","",""
"","null","html-keyboard-response","263","1101428","0.0-13.0-1.17","ZzDFfWWXmW","6155083c1e4cee887b92d482","6617fad957f7c6a12ea16e26","6622cb4dd7348145f4ffdd87","
        <div id=""grid-container"">
        <!-- Grid items will be dynamically added here -->
    </div>    ","null","","","","","","","","","","","",""
"","1028","html-keyboard-response","264","1101657","0.0-13.0-2.17","ZzDFfWWXmW","6155083c1e4cee887b92d482","6617fad957f7c6a12ea16e26","6622cb4dd7348145f4ffdd87","mask grid","q","","","","","Ontogenetic_Distractor_Threat_target","800","onmask","q","4","Ontogenetic","true","experimental"
"","null","html-keyboard-response","265","1102361","0.0-13.0-0.18","ZzDFfWWXmW","6155083c1e4cee887b92d482","6617fad957f7c6a12ea16e26","6622cb4dd7348145f4ffdd87","fixation cross","null","","","","","","","","","","","",""
"","704","html-keyboard-response","266","1103066","0.0-13.0-1.18","ZzDFfWWXmW","6155083c1e4cee887b92d482","6617fad957f7c6a12ea16e26","6622cb4dd7348145f4ffdd87","image grid","p","","","","","Ontogenetic_Distractor_Nonthreat_target","800","ongrid","p","4","Ontogenetic","true","experimental"
"","null","html-keyboard-response","267","1103220","0.0-13.0-2.18","ZzDFfWWXmW","6155083c1e4cee887b92d482","6617fad957f7c6a12ea16e26","6622cb4dd7348145f4ffdd87","
    <div id=""grid-container"">
        <!-- Grid items will be dynamically added here -->
    </div>    ","null","","","","","","","","","","","",""
"","null","html-keyboard-response","268","1103922","0.0-13.0-0.19","ZzDFfWWXmW","6155083c1e4cee887b92d482","6617fad957f7c6a12ea16e26","6622cb4dd7348145f4ffdd87","fixation cross","null","","","","","","","","","","","",""
"","null","html-keyboard-response","269","1104724","0.0-13.0-1.19","ZzDFfWWXmW","6155083c1e4cee887b92d482","6617fad957f7c6a12ea16e26","6622cb4dd7348145f4ffdd87","
        <div id=""grid-container"">
        <!-- Grid items will be dynamically added here -->
    </div>    ","null","","","","","","","","","","","",""
"","1228","html-keyboard-response","270","1105153","0.0-13.0-2.19","ZzDFfWWXmW","6155083c1e4cee887b92d482","6617fad957f7c6a12ea16e26","6622cb4dd7348145f4ffdd87","mask grid","q","","","","","Ontogenetic_Distractor_Threat_target","800","onmask","q","1","Ontogenetic","true","experimental"
"","null","html-keyboard-response","271","1105856","0.0-13.0-0.20","ZzDFfWWXmW","6155083c1e4cee887b92d482","6617fad957f7c6a12ea16e26","6622cb4dd7348145f4ffdd87","fixation cross","null","","","","","","","","","","","",""
"","null","html-keyboard-response","272","1106658","0.0-13.0-1.20","ZzDFfWWXmW","6155083c1e4cee887b92d482","6617fad957f7c6a12ea16e26","6622cb4dd7348145f4ffdd87","
        <div id=""grid-container"">
        <!-- Grid items will be dynamically added here -->
    </div>    ","null","","","","","","","","","","","",""
"","1277","html-keyboard-response","273","1107136","0.0-13.0-2.20","ZzDFfWWXmW","6155083c1e4cee887b92d482","6617fad957f7c6a12ea16e26","6622cb4dd7348145f4ffdd87","mask grid","q","","","","","Ontogenetic_Distractor_Threat_target","800","onmask","q","8","Ontogenetic","true","experimental"
"","null","html-keyboard-response","274","1107840","0.0-13.0-0.21","ZzDFfWWXmW","6155083c1e4cee887b92d482","6617fad957f7c6a12ea16e26","6622cb4dd7348145f4ffdd87","fixation cross","null","","","","","","","","","","","",""
"","718","html-keyboard-response","275","1108558","0.0-13.0-1.21","ZzDFfWWXmW","6155083c1e4cee887b92d482","6617fad957f7c6a12ea16e26","6622cb4dd7348145f4ffdd87","image grid","p","","","","","Ontogenetic_Distractor_Nonthreat_target","800","ongrid","p","2","Ontogenetic","true","experimental"
"","null","html-keyboard-response","276","1108710","0.0-13.0-2.21","ZzDFfWWXmW","6155083c1e4cee887b92d482","6617fad957f7c6a12ea16e26","6622cb4dd7348145f4ffdd87","
    <div id=""grid-container"">
        <!-- Grid items will be dynamically added here -->
    </div>    ","null","","","","","","","","","","","",""
"","null","html-keyboard-response","277","1109412","0.0-13.0-0.22","ZzDFfWWXmW","6155083c1e4cee887b92d482","6617fad957f7c6a12ea16e26","6622cb4dd7348145f4ffdd87","fixation cross","null","","","","","","","","","","","",""
"","null","html-keyboard-response","278","1110213","0.0-13.0-1.22","ZzDFfWWXmW","6155083c1e4cee887b92d482","6617fad957f7c6a12ea16e26","6622cb4dd7348145f4ffdd87","
        <div id=""grid-container"">
        <!-- Grid items will be dynamically added here -->
    </div>    ","null","","","","","","","","","","","",""
"","1183","html-keyboard-response","279","1110598","0.0-13.0-2.22","ZzDFfWWXmW","6155083c1e4cee887b92d482","6617fad957f7c6a12ea16e26","6622cb4dd7348145f4ffdd87","mask grid","q","","","","","Ontogenetic_Distractor_Threat_target","800","onmask","q","8","Ontogenetic","true","experimental"
"","null","html-keyboard-response","280","1111303","0.0-13.0-0.23","ZzDFfWWXmW","6155083c1e4cee887b92d482","6617fad957f7c6a12ea16e26","6622cb4dd7348145f4ffdd87","fixation cross","null","","","","","","","","","","","",""
"","null","html-keyboard-response","281","1112104","0.0-13.0-1.23","ZzDFfWWXmW","6155083c1e4cee887b92d482","6617fad957f7c6a12ea16e26","6622cb4dd7348145f4ffdd87","
        <div id=""grid-container"">
        <!-- Grid items will be dynamically added here -->
    </div>    ","null","","","","","","","","","","","",""
"","1043","html-keyboard-response","282","1112349","0.0-13.0-2.23","ZzDFfWWXmW","6155083c1e4cee887b92d482","6617fad957f7c6a12ea16e26","6622cb4dd7348145f4ffdd87","mask grid","p","","","","","Ontogenetic_Distractor_Threat_target","800","onmask","q","7","Ontogenetic","false","experimental"
"","null","html-keyboard-response","283","1113053","0.0-13.0-0.24","ZzDFfWWXmW","6155083c1e4cee887b92d482","6617fad957f7c6a12ea16e26","6622cb4dd7348145f4ffdd87","fixation cross","null","","","","","","","","","","","",""
"","779","html-keyboard-response","284","1113834","0.0-13.0-1.24","ZzDFfWWXmW","6155083c1e4cee887b92d482","6617fad957f7c6a12ea16e26","6622cb4dd7348145f4ffdd87","image grid","q","","","","","Ontogenetic_Distractor_Threat_target","800","ongrid","q","7","Ontogenetic","true","experimental"
"","null","html-keyboard-response","285","1113988","0.0-13.0-2.24","ZzDFfWWXmW","6155083c1e4cee887b92d482","6617fad957f7c6a12ea16e26","6622cb4dd7348145f4ffdd87","
    <div id=""grid-container"">
        <!-- Grid items will be dynamically added here -->
    </div>    ","null","","","","","","","","","","","",""
"","null","html-keyboard-response","286","1114690","0.0-13.0-0.25","ZzDFfWWXmW","6155083c1e4cee887b92d482","6617fad957f7c6a12ea16e26","6622cb4dd7348145f4ffdd87","fixation cross","null","","","","","","","","","","","",""
"","null","html-keyboard-response","287","1115492","0.0-13.0-1.25","ZzDFfWWXmW","6155083c1e4cee887b92d482","6617fad957f7c6a12ea16e26","6622cb4dd7348145f4ffdd87","
        <div id=""grid-container"">
        <!-- Grid items will be dynamically added here -->
    </div>    ","null","","","","","","","","","","","",""
"","1072","html-keyboard-response","288","1115765","0.0-13.0-2.25","ZzDFfWWXmW","6155083c1e4cee887b92d482","6617fad957f7c6a12ea16e26","6622cb4dd7348145f4ffdd87","mask grid","p","","","","","Ontogenetic_Distractor_notarget","800","onmask"," ","8","Ontogenetic","false","experimental"
"","null","html-keyboard-response","289","1116470","0.0-13.0-0.26","ZzDFfWWXmW","6155083c1e4cee887b92d482","6617fad957f7c6a12ea16e26","6622cb4dd7348145f4ffdd87","fixation cross","null","","","","","","","","","","","",""
"","758","html-keyboard-response","290","1117229","0.0-13.0-1.26","ZzDFfWWXmW","6155083c1e4cee887b92d482","6617fad957f7c6a12ea16e26","6622cb4dd7348145f4ffdd87","image grid","p","","","","","Ontogenetic_Distractor_Nonthreat_target","800","ongrid","p","7","Ontogenetic","true","experimental"
"","null","html-keyboard-response","291","1117382","0.0-13.0-2.26","ZzDFfWWXmW","6155083c1e4cee887b92d482","6617fad957f7c6a12ea16e26","6622cb4dd7348145f4ffdd87","
    <div id=""grid-container"">
        <!-- Grid items will be dynamically added here -->
    </div>    ","null","","","","","","","","","","","",""
"","null","html-keyboard-response","292","1118084","0.0-13.0-0.27","ZzDFfWWXmW","6155083c1e4cee887b92d482","6617fad957f7c6a12ea16e26","6622cb4dd7348145f4ffdd87","fixation cross","null","","","","","","","","","","","",""
"","780","html-keyboard-response","293","1118866","0.0-13.0-1.27","ZzDFfWWXmW","6155083c1e4cee887b92d482","6617fad957f7c6a12ea16e26","6622cb4dd7348145f4ffdd87","image grid","q","","","","","Ontogenetic_Distractor_Threat_target","800","ongrid","q","7","Ontogenetic","true","experimental"
"","null","html-keyboard-response","294","1119019","0.0-13.0-2.27","ZzDFfWWXmW","6155083c1e4cee887b92d482","6617fad957f7c6a12ea16e26","6622cb4dd7348145f4ffdd87","
    <div id=""grid-container"">
        <!-- Grid items will be dynamically added here -->
    </div>    ","null","","","","","","","","","","","",""
"","null","html-keyboard-response","295","1119721","0.0-13.0-0.28","ZzDFfWWXmW","6155083c1e4cee887b92d482","6617fad957f7c6a12ea16e26","6622cb4dd7348145f4ffdd87","fixation cross","null","","","","","","","","","","","",""
"","null","html-keyboard-response","296","1120524","0.0-13.0-1.28","ZzDFfWWXmW","6155083c1e4cee887b92d482","6617fad957f7c6a12ea16e26","6622cb4dd7348145f4ffdd87","
        <div id=""grid-container"">
        <!-- Grid items will be dynamically added here -->
    </div>    ","null","","","","","","","","","","","",""
"","1851","html-keyboard-response","297","1121576","0.0-13.0-2.28","ZzDFfWWXmW","6155083c1e4cee887b92d482","6617fad957f7c6a12ea16e26","6622cb4dd7348145f4ffdd87","mask grid","q","","","","","Ontogenetic_Distractor_Nonthreat_target","800","onmask","p","2","Ontogenetic","false","experimental"
"","null","html-keyboard-response","298","1122280","0.0-13.0-0.29","ZzDFfWWXmW","6155083c1e4cee887b92d482","6617fad957f7c6a12ea16e26","6622cb4dd7348145f4ffdd87","fixation cross","null","","","","","","","","","","","",""
"","678","html-keyboard-response","299","1122959","0.0-13.0-1.29","ZzDFfWWXmW","6155083c1e4cee887b92d482","6617fad957f7c6a12ea16e26","6622cb4dd7348145f4ffdd87","image grid","p","","","","","Ontogenetic_Distractor_Nonthreat_target","800","ongrid","p","5","Ontogenetic","true","experimental"
"","null","html-keyboard-response","300","1123113","0.0-13.0-2.29","ZzDFfWWXmW","6155083c1e4cee887b92d482","6617fad957f7c6a12ea16e26","6622cb4dd7348145f4ffdd87","
    <div id=""grid-container"">
        <!-- Grid items will be dynamically added here -->
    </div>    ","null","","","","","","","","","","","",""
"","null","html-keyboard-response","301","1123815","0.0-13.0-0.30","ZzDFfWWXmW","6155083c1e4cee887b92d482","6617fad957f7c6a12ea16e26","6622cb4dd7348145f4ffdd87","fixation cross","null","","","","","","","","","","","",""
"","744","html-keyboard-response","302","1124560","0.0-13.0-1.30","ZzDFfWWXmW","6155083c1e4cee887b92d482","6617fad957f7c6a12ea16e26","6622cb4dd7348145f4ffdd87","image grid","q","","","","","Ontogenetic_Distractor_Threat_target","800","ongrid","q","9","Ontogenetic","true","experimental"
"","null","html-keyboard-response","303","1124714","0.0-13.0-2.30","ZzDFfWWXmW","6155083c1e4cee887b92d482","6617fad957f7c6a12ea16e26","6622cb4dd7348145f4ffdd87","
    <div id=""grid-container"">
        <!-- Grid items will be dynamically added here -->
    </div>    ","null","","","","","","","","","","","",""
"","null","html-keyboard-response","304","1125416","0.0-13.0-0.31","ZzDFfWWXmW","6155083c1e4cee887b92d482","6617fad957f7c6a12ea16e26","6622cb4dd7348145f4ffdd87","fixation cross","null","","","","","","","","","","","",""
"","null","html-keyboard-response","305","1126218","0.0-13.0-1.31","ZzDFfWWXmW","6155083c1e4cee887b92d482","6617fad957f7c6a12ea16e26","6622cb4dd7348145f4ffdd87","
        <div id=""grid-container"">
        <!-- Grid items will be dynamically added here -->
    </div>    ","null","","","","","","","","","","","",""
"","827","html-keyboard-response","306","1126247","0.0-13.0-2.31","ZzDFfWWXmW","6155083c1e4cee887b92d482","6617fad957f7c6a12ea16e26","6622cb4dd7348145f4ffdd87","mask grid","p","","","","","Ontogenetic_Distractor_Nonthreat_target","800","onmask","p","1","Ontogenetic","true","experimental"
"","null","html-keyboard-response","307","1126951","0.0-13.0-0.32","ZzDFfWWXmW","6155083c1e4cee887b92d482","6617fad957f7c6a12ea16e26","6622cb4dd7348145f4ffdd87","fixation cross","null","","","","","","","","","","","",""
"","757","html-keyboard-response","308","1127709","0.0-13.0-1.32","ZzDFfWWXmW","6155083c1e4cee887b92d482","6617fad957f7c6a12ea16e26","6622cb4dd7348145f4ffdd87","image grid"," ","","","","","Ontogenetic_Distractor_Nonthreat_target","800","ongrid","p","2","Ontogenetic","false","experimental"
"","null","html-keyboard-response","309","1127864","0.0-13.0-2.32","ZzDFfWWXmW","6155083c1e4cee887b92d482","6617fad957f7c6a12ea16e26","6622cb4dd7348145f4ffdd87","
    <div id=""grid-container"">
        <!-- Grid items will be dynamically added here -->
    </div>    ","null","","","","","","","","","","","",""
"","null","html-keyboard-response","310","1128566","0.0-13.0-0.33","ZzDFfWWXmW","6155083c1e4cee887b92d482","6617fad957f7c6a12ea16e26","6622cb4dd7348145f4ffdd87","fixation cross","null","","","","","","","","","","","",""
"","null","html-keyboard-response","311","1129368","0.0-13.0-1.33","ZzDFfWWXmW","6155083c1e4cee887b92d482","6617fad957f7c6a12ea16e26","6622cb4dd7348145f4ffdd87","
        <div id=""grid-container"">
        <!-- Grid items will be dynamically added here -->
    </div>    ","null","","","","","","","","","","","",""
"","825","html-keyboard-response","312","1129395","0.0-13.0-2.33","ZzDFfWWXmW","6155083c1e4cee887b92d482","6617fad957f7c6a12ea16e26","6622cb4dd7348145f4ffdd87","mask grid","q","","","","","Ontogenetic_Distractor_Threat_target","800","onmask","q","8","Ontogenetic","true","experimental"
"","null","html-keyboard-response","313","1130097","0.0-13.0-0.34","ZzDFfWWXmW","6155083c1e4cee887b92d482","6617fad957f7c6a12ea16e26","6622cb4dd7348145f4ffdd87","fixation cross","null","","","","","","","","","","","",""
"","null","html-keyboard-response","314","1130899","0.0-13.0-1.34","ZzDFfWWXmW","6155083c1e4cee887b92d482","6617fad957f7c6a12ea16e26","6622cb4dd7348145f4ffdd87","
        <div id=""grid-container"">
        <!-- Grid items will be dynamically added here -->
    </div>    ","null","","","","","","","","","","","",""
"","829","html-keyboard-response","315","1130930","0.0-13.0-2.34","ZzDFfWWXmW","6155083c1e4cee887b92d482","6617fad957f7c6a12ea16e26","6622cb4dd7348145f4ffdd87","mask grid"," ","","","","","Ontogenetic_Distractor_Nonthreat_target","800","onmask","p","2","Ontogenetic","false","experimental"
"","null","html-keyboard-response","316","1131633","0.0-13.0-0.35","ZzDFfWWXmW","6155083c1e4cee887b92d482","6617fad957f7c6a12ea16e26","6622cb4dd7348145f4ffdd87","fixation cross","null","","","","","","","","","","","",""
"","610","html-keyboard-response","317","1132244","0.0-13.0-1.35","ZzDFfWWXmW","6155083c1e4cee887b92d482","6617fad957f7c6a12ea16e26","6622cb4dd7348145f4ffdd87","image grid","p","","","","","Ontogenetic_Distractor_Nonthreat_target","800","ongrid","p","6","Ontogenetic","true","experimental"
"","null","html-keyboard-response","318","1132398","0.0-13.0-2.35","ZzDFfWWXmW","6155083c1e4cee887b92d482","6617fad957f7c6a12ea16e26","6622cb4dd7348145f4ffdd87","
    <div id=""grid-container"">
        <!-- Grid items will be dynamically added here -->
    </div>    ","null","","","","","","","","","","","",""
"","null","html-keyboard-response","319","1133100","0.0-13.0-0.36","ZzDFfWWXmW","6155083c1e4cee887b92d482","6617fad957f7c6a12ea16e26","6622cb4dd7348145f4ffdd87","fixation cross","null","","","","","","","","","","","",""
"","708","html-keyboard-response","320","1133810","0.0-13.0-1.36","ZzDFfWWXmW","6155083c1e4cee887b92d482","6617fad957f7c6a12ea16e26","6622cb4dd7348145f4ffdd87","image grid","p","","","","","Ontogenetic_Distractor_Nonthreat_target","800","ongrid","p","8","Ontogenetic","true","experimental"
"","null","html-keyboard-response","321","1133964","0.0-13.0-2.36","ZzDFfWWXmW","6155083c1e4cee887b92d482","6617fad957f7c6a12ea16e26","6622cb4dd7348145f4ffdd87","
    <div id=""grid-container"">
        <!-- Grid items will be dynamically added here -->
    </div>    ","null","","","","","","","","","","","",""
"","null","html-keyboard-response","322","1134666","0.0-13.0-0.37","ZzDFfWWXmW","6155083c1e4cee887b92d482","6617fad957f7c6a12ea16e26","6622cb4dd7348145f4ffdd87","fixation cross","null","","","","","","","","","","","",""
"","null","html-keyboard-response","323","1135468","0.0-13.0-1.37","ZzDFfWWXmW","6155083c1e4cee887b92d482","6617fad957f7c6a12ea16e26","6622cb4dd7348145f4ffdd87","
        <div id=""grid-container"">
        <!-- Grid items will be dynamically added here -->
    </div>    ","null","","","","","","","","","","","",""
"","1188","html-keyboard-response","324","1135858","0.0-13.0-2.37","ZzDFfWWXmW","6155083c1e4cee887b92d482","6617fad957f7c6a12ea16e26","6622cb4dd7348145f4ffdd87","mask grid","p","","","","","Ontogenetic_Distractor_Nonthreat_target","800","onmask","p","3","Ontogenetic","true","experimental"
"","null","html-keyboard-response","325","1136562","0.0-13.0-0.38","ZzDFfWWXmW","6155083c1e4cee887b92d482","6617fad957f7c6a12ea16e26","6622cb4dd7348145f4ffdd87","fixation cross","null","","","","","","","","","","","",""
"","null","html-keyboard-response","326","1137364","0.0-13.0-1.38","ZzDFfWWXmW","6155083c1e4cee887b92d482","6617fad957f7c6a12ea16e26","6622cb4dd7348145f4ffdd87","
        <div id=""grid-container"">
        <!-- Grid items will be dynamically added here -->
    </div>    ","null","","","","","","","","","","","",""
"","954","html-keyboard-response","327","1137519","0.0-13.0-2.38","ZzDFfWWXmW","6155083c1e4cee887b92d482","6617fad957f7c6a12ea16e26","6622cb4dd7348145f4ffdd87","mask grid"," ","","","","","Ontogenetic_Distractor_Nonthreat_target","800","onmask","p","1","Ontogenetic","false","experimental"
"","null","html-keyboard-response","328","1138224","0.0-13.0-0.39","ZzDFfWWXmW","6155083c1e4cee887b92d482","6617fad957f7c6a12ea16e26","6622cb4dd7348145f4ffdd87","fixation cross","null","","","","","","","","","","","",""
"","687","html-keyboard-response","329","1138912","0.0-13.0-1.39","ZzDFfWWXmW","6155083c1e4cee887b92d482","6617fad957f7c6a12ea16e26","6622cb4dd7348145f4ffdd87","image grid"," ","","","","","Ontogenetic_Distractor_Nonthreat_target","800","ongrid","p","8","Ontogenetic","false","experimental"
"","null","html-keyboard-response","330","1139066","0.0-13.0-2.39","ZzDFfWWXmW","6155083c1e4cee887b92d482","6617fad957f7c6a12ea16e26","6622cb4dd7348145f4ffdd87","
    <div id=""grid-container"">
        <!-- Grid items will be dynamically added here -->
    </div>    ","null","","","","","","","","","","","",""
"","2358","html-keyboard-response","331","1141627","0.0-14.0","ZzDFfWWXmW","6155083c1e4cee887b92d482","6617fad957f7c6a12ea16e26","6622cb4dd7348145f4ffdd87","break screen","p","","","","","","","","","","","",""
"","null","html-keyboard-response","332","1144130","0.0-15.0-0.0","ZzDFfWWXmW","6155083c1e4cee887b92d482","6617fad957f7c6a12ea16e26","6622cb4dd7348145f4ffdd87","fixation cross","null","","","","","","","","","","","",""
"","null","html-keyboard-response","333","1144932","0.0-15.0-1.0","ZzDFfWWXmW","6155083c1e4cee887b92d482","6617fad957f7c6a12ea16e26","6622cb4dd7348145f4ffdd87","
        <div id=""grid-container"">
        <!-- Grid items will be dynamically added here -->
    </div>    ","null","","","","","","","","","","","",""
"","1216","html-keyboard-response","334","1145349","0.0-15.0-2.0","ZzDFfWWXmW","6155083c1e4cee887b92d482","6617fad957f7c6a12ea16e26","6622cb4dd7348145f4ffdd87","mask grid","p","","","","","Ontogenetic_Distractor_Nonthreat_target","800","onmask","p","8","Ontogenetic","true","experimental"
"","null","html-keyboard-response","335","1146054","0.0-15.0-0.1","ZzDFfWWXmW","6155083c1e4cee887b92d482","6617fad957f7c6a12ea16e26","6622cb4dd7348145f4ffdd87","fixation cross","null","","","","","","","","","","","",""
"","null","html-keyboard-response","336","1146856","0.0-15.0-1.1","ZzDFfWWXmW","6155083c1e4cee887b92d482","6617fad957f7c6a12ea16e26","6622cb4dd7348145f4ffdd87","
        <div id=""grid-container"">
        <!-- Grid items will be dynamically added here -->
    </div>    ","null","","","","","","","","","","","",""
"","895","html-keyboard-response","337","1146953","0.0-15.0-2.1","ZzDFfWWXmW","6155083c1e4cee887b92d482","6617fad957f7c6a12ea16e26","6622cb4dd7348145f4ffdd87","mask grid","q","","","","","Ontogenetic_Distractor_Threat_target","800","onmask","q","6","Ontogenetic","true","experimental"
"","null","html-keyboard-response","338","1147657","0.0-15.0-0.2","ZzDFfWWXmW","6155083c1e4cee887b92d482","6617fad957f7c6a12ea16e26","6622cb4dd7348145f4ffdd87","fixation cross","null","","","","","","","","","","","",""
"","null","html-keyboard-response","339","1148459","0.0-15.0-1.2","ZzDFfWWXmW","6155083c1e4cee887b92d482","6617fad957f7c6a12ea16e26","6622cb4dd7348145f4ffdd87","
        <div id=""grid-container"">
        <!-- Grid items will be dynamically added here -->
    </div>    ","null","","","","","","","","","","","",""
"","1034","html-keyboard-response","340","1148694","0.0-15.0-2.2","ZzDFfWWXmW","6155083c1e4cee887b92d482","6617fad957f7c6a12ea16e26","6622cb4dd7348145f4ffdd87","mask grid","p","","","","","Ontogenetic_Distractor_Nonthreat_target","800","onmask","p","3","Ontogenetic","true","experimental"
"","null","html-keyboard-response","341","1149399","0.0-15.0-0.3","ZzDFfWWXmW","6155083c1e4cee887b92d482","6617fad957f7c6a12ea16e26","6622cb4dd7348145f4ffdd87","fixation cross","null","","","","","","","","","","","",""
"","671","html-keyboard-response","342","1150072","0.0-15.0-1.3","ZzDFfWWXmW","6155083c1e4cee887b92d482","6617fad957f7c6a12ea16e26","6622cb4dd7348145f4ffdd87","image grid","p","","","","","Ontogenetic_Distractor_Nonthreat_target","800","ongrid","p","3","Ontogenetic","true","experimental"
"","null","html-keyboard-response","343","1150226","0.0-15.0-2.3","ZzDFfWWXmW","6155083c1e4cee887b92d482","6617fad957f7c6a12ea16e26","6622cb4dd7348145f4ffdd87","
    <div id=""grid-container"">
        <!-- Grid items will be dynamically added here -->
    </div>    ","null","","","","","","","","","","","",""
"","null","html-keyboard-response","344","1150928","0.0-15.0-0.4","ZzDFfWWXmW","6155083c1e4cee887b92d482","6617fad957f7c6a12ea16e26","6622cb4dd7348145f4ffdd87","fixation cross","null","","","","","","","","","","","",""
"","618","html-keyboard-response","345","1151548","0.0-15.0-1.4","ZzDFfWWXmW","6155083c1e4cee887b92d482","6617fad957f7c6a12ea16e26","6622cb4dd7348145f4ffdd87","image grid"," ","","","","","Ontogenetic_Distractor_Nonthreat_target","800","ongrid","p","5","Ontogenetic","false","experimental"
"","null","html-keyboard-response","346","1151702","0.0-15.0-2.4","ZzDFfWWXmW","6155083c1e4cee887b92d482","6617fad957f7c6a12ea16e26","6622cb4dd7348145f4ffdd87","
    <div id=""grid-container"">
        <!-- Grid items will be dynamically added here -->
    </div>    ","null","","","","","","","","","","","",""
"","null","html-keyboard-response","347","1152405","0.0-15.0-0.5","ZzDFfWWXmW","6155083c1e4cee887b92d482","6617fad957f7c6a12ea16e26","6622cb4dd7348145f4ffdd87","fixation cross","null","","","","","","","","","","","",""
"","781","html-keyboard-response","348","1153187","0.0-15.0-1.5","ZzDFfWWXmW","6155083c1e4cee887b92d482","6617fad957f7c6a12ea16e26","6622cb4dd7348145f4ffdd87","image grid","q","","","","","Ontogenetic_Distractor_Threat_target","800","ongrid","q","9","Ontogenetic","true","experimental"
"","null","html-keyboard-response","349","1153342","0.0-15.0-2.5","ZzDFfWWXmW","6155083c1e4cee887b92d482","6617fad957f7c6a12ea16e26","6622cb4dd7348145f4ffdd87","
    <div id=""grid-container"">
        <!-- Grid items will be dynamically added here -->
    </div>    ","null","","","","","","","","","","","",""
"","null","html-keyboard-response","350","1154044","0.0-15.0-0.6","ZzDFfWWXmW","6155083c1e4cee887b92d482","6617fad957f7c6a12ea16e26","6622cb4dd7348145f4ffdd87","fixation cross","null","","","","","","","","","","","",""
"","661","html-keyboard-response","351","1154706","0.0-15.0-1.6","ZzDFfWWXmW","6155083c1e4cee887b92d482","6617fad957f7c6a12ea16e26","6622cb4dd7348145f4ffdd87","image grid","q","","","","","Ontogenetic_Distractor_Threat_target","800","ongrid","q","7","Ontogenetic","true","experimental"
"","null","html-keyboard-response","352","1154860","0.0-15.0-2.6","ZzDFfWWXmW","6155083c1e4cee887b92d482","6617fad957f7c6a12ea16e26","6622cb4dd7348145f4ffdd87","
    <div id=""grid-container"">
        <!-- Grid items will be dynamically added here -->
    </div>    ","null","","","","","","","","","","","",""
"","null","html-keyboard-response","353","1155562","0.0-15.0-0.7","ZzDFfWWXmW","6155083c1e4cee887b92d482","6617fad957f7c6a12ea16e26","6622cb4dd7348145f4ffdd87","fixation cross","null","","","","","","","","","","","",""
"","749","html-keyboard-response","354","1156312","0.0-15.0-1.7","ZzDFfWWXmW","6155083c1e4cee887b92d482","6617fad957f7c6a12ea16e26","6622cb4dd7348145f4ffdd87","image grid","p","","","","","Ontogenetic_Distractor_Nonthreat_target","800","ongrid","p","1","Ontogenetic","true","experimental"
"","null","html-keyboard-response","355","1156467","0.0-15.0-2.7","ZzDFfWWXmW","6155083c1e4cee887b92d482","6617fad957f7c6a12ea16e26","6622cb4dd7348145f4ffdd87","
    <div id=""grid-container"">
        <!-- Grid items will be dynamically added here -->
    </div>    ","null","","","","","","","","","","","",""
"","null","html-keyboard-response","356","1157169","0.0-15.0-0.8","ZzDFfWWXmW","6155083c1e4cee887b92d482","6617fad957f7c6a12ea16e26","6622cb4dd7348145f4ffdd87","fixation cross","null","","","","","","","","","","","",""
"","678","html-keyboard-response","357","1157848","0.0-15.0-1.8","ZzDFfWWXmW","6155083c1e4cee887b92d482","6617fad957f7c6a12ea16e26","6622cb4dd7348145f4ffdd87","image grid"," ","","","","","Ontogenetic_Distractor_notarget","800","ongrid"," ","6","Ontogenetic","true","experimental"
"","null","html-keyboard-response","358","1158004","0.0-15.0-2.8","ZzDFfWWXmW","6155083c1e4cee887b92d482","6617fad957f7c6a12ea16e26","6622cb4dd7348145f4ffdd87","
    <div id=""grid-container"">
        <!-- Grid items will be dynamically added here -->
    </div>    ","null","","","","","","","","","","","",""
"","null","html-keyboard-response","359","1158706","0.0-15.0-0.9","ZzDFfWWXmW","6155083c1e4cee887b92d482","6617fad957f7c6a12ea16e26","6622cb4dd7348145f4ffdd87","fixation cross","null","","","","","","","","","","","",""
"","null","html-keyboard-response","360","1159508","0.0-15.0-1.9","ZzDFfWWXmW","6155083c1e4cee887b92d482","6617fad957f7c6a12ea16e26","6622cb4dd7348145f4ffdd87","
        <div id=""grid-container"">
        <!-- Grid items will be dynamically added here -->
    </div>    ","null","","","","","","","","","","","",""
"","1255","html-keyboard-response","361","1159965","0.0-15.0-2.9","ZzDFfWWXmW","6155083c1e4cee887b92d482","6617fad957f7c6a12ea16e26","6622cb4dd7348145f4ffdd87","mask grid","p","","","","","Ontogenetic_Distractor_notarget","800","onmask"," ","2","Ontogenetic","false","experimental"
"","null","html-keyboard-response","362","1160670","0.0-15.0-0.10","ZzDFfWWXmW","6155083c1e4cee887b92d482","6617fad957f7c6a12ea16e26","6622cb4dd7348145f4ffdd87","fixation cross","null","","","","","","","","","","","",""
"","731","html-keyboard-response","363","1161402","0.0-15.0-1.10","ZzDFfWWXmW","6155083c1e4cee887b92d482","6617fad957f7c6a12ea16e26","6622cb4dd7348145f4ffdd87","image grid","q","","","","","Ontogenetic_Distractor_Threat_target","800","ongrid","q","3","Ontogenetic","true","experimental"
"","null","html-keyboard-response","364","1161557","0.0-15.0-2.10","ZzDFfWWXmW","6155083c1e4cee887b92d482","6617fad957f7c6a12ea16e26","6622cb4dd7348145f4ffdd87","
    <div id=""grid-container"">
        <!-- Grid items will be dynamically added here -->
    </div>    ","null","","","","","","","","","","","",""
"","null","html-keyboard-response","365","1162259","0.0-15.0-0.11","ZzDFfWWXmW","6155083c1e4cee887b92d482","6617fad957f7c6a12ea16e26","6622cb4dd7348145f4ffdd87","fixation cross","null","","","","","","","","","","","",""
"","null","html-keyboard-response","366","1163061","0.0-15.0-1.11","ZzDFfWWXmW","6155083c1e4cee887b92d482","6617fad957f7c6a12ea16e26","6622cb4dd7348145f4ffdd87","
        <div id=""grid-container"">
        <!-- Grid items will be dynamically added here -->
    </div>    ","null","","","","","","","","","","","",""
"","863","html-keyboard-response","367","1163125","0.0-15.0-2.11","ZzDFfWWXmW","6155083c1e4cee887b92d482","6617fad957f7c6a12ea16e26","6622cb4dd7348145f4ffdd87","mask grid","q","","","","","Ontogenetic_Distractor_Threat_target","800","onmask","q","4","Ontogenetic","true","experimental"
"","null","html-keyboard-response","368","1163829","0.0-15.0-0.12","ZzDFfWWXmW","6155083c1e4cee887b92d482","6617fad957f7c6a12ea16e26","6622cb4dd7348145f4ffdd87","fixation cross","null","","","","","","","","","","","",""
