"success","rt","trial_type","trial_index","time_elapsed","internal_node_id","unique_identifier","subject_id","study_id","session_id","stimulus","response","timeout","failed_images","failed_audio","failed_video","task","time_manipulation","respondedwhen","correctresponse","targetimagelocation","blocktype","correct","roundtype"
"true","6561","fullscreen","0","7574","0.0-0.0","7TcbMDuIpD","63d811a348905b30f4006887","6617fad957f7c6a12ea16e26","6622cb7ab0961b742ba67a4d","","","","","","","","","","","","","",""
"","6050","html-keyboard-response","1","13627","0.0-1.0","7TcbMDuIpD","63d811a348905b30f4006887","6617fad957f7c6a12ea16e26","6622cb7ab0961b742ba67a4d","instruction screen 0","d","","","","","","","","","","","",""
"true","","preload","2","15706","0.0-2.0","7TcbMDuIpD","63d811a348905b30f4006887","6617fad957f7c6a12ea16e26","6622cb7ab0961b742ba67a4d","","","false","[]","[]","[]","","","","","","","",""
"","8667","html-keyboard-response","3","24374","0.0-3.0","7TcbMDuIpD","63d811a348905b30f4006887","6617fad957f7c6a12ea16e26","6622cb7ab0961b742ba67a4d","instruction screen 1","2","","","","","","","","","","","",""
"","7430","html-keyboard-response","4","31810","0.0-4.0","7TcbMDuIpD","63d811a348905b30f4006887","6617fad957f7c6a12ea16e26","6622cb7ab0961b742ba67a4d","instruction screen 2","q","","","","","","","","","","","",""
"","6420","html-keyboard-response","5","38239","0.0-5.0","7TcbMDuIpD","63d811a348905b30f4006887","6617fad957f7c6a12ea16e26","6622cb7ab0961b742ba67a4d","instruction screen 3","p","","","","","","","","","","","",""
"","2818","html-keyboard-response","6","41064","0.0-6.0","7TcbMDuIpD","63d811a348905b30f4006887","6617fad957f7c6a12ea16e26","6622cb7ab0961b742ba67a4d","instruction screen 4"," ","","","","","","","","","","","",""
"","4630","html-keyboard-response","7","45703","0.0-7.0","7TcbMDuIpD","63d811a348905b30f4006887","6617fad957f7c6a12ea16e26","6622cb7ab0961b742ba67a4d","instruction screen 5"," ","","","","","","","","","","","",""
"","null","html-keyboard-response","8","46213","0.0-8.0","7TcbMDuIpD","63d811a348905b30f4006887","6617fad957f7c6a12ea16e26","6622cb7ab0961b742ba67a4d","fixation cross","null","","","","","","","","","","","",""
"","null","html-keyboard-response","9","46715","0.0-9.0-0.0","7TcbMDuIpD","63d811a348905b30f4006887","6617fad957f7c6a12ea16e26","6622cb7ab0961b742ba67a4d","fixation cross","null","","","","","","","","","","","",""
"","2401","html-keyboard-response","10","49117","0.0-9.0-1.0","7TcbMDuIpD","63d811a348905b30f4006887","6617fad957f7c6a12ea16e26","6622cb7ab0961b742ba67a4d","image grid","q","","","","","Ontogenetic_Distractor_Threat_target","3000","ongrid","q","1","Ontogenetic","true","practice"
"","null","html-keyboard-response","11","49269","0.0-9.0-2.0","7TcbMDuIpD","63d811a348905b30f4006887","6617fad957f7c6a12ea16e26","6622cb7ab0961b742ba67a4d","
    <div id=""grid-container"">
        <!-- Grid items will be dynamically added here -->
    </div>    ","null","","","","","","","","","","","",""
"","null","html-keyboard-response","12","50473","0.0-9.0-3.0","7TcbMDuIpD","63d811a348905b30f4006887","6617fad957f7c6a12ea16e26","6622cb7ab0961b742ba67a4d","feedback screen","null","","","","","","","","","","","",""
"","null","html-keyboard-response","13","50982","0.0-9.0-0.1","7TcbMDuIpD","63d811a348905b30f4006887","6617fad957f7c6a12ea16e26","6622cb7ab0961b742ba67a4d","fixation cross","null","","","","","","","","","","","",""
"","1547","html-keyboard-response","14","52530","0.0-9.0-1.1","7TcbMDuIpD","63d811a348905b30f4006887","6617fad957f7c6a12ea16e26","6622cb7ab0961b742ba67a4d","image grid","p","","","","","Ontogenetic_Distractor_Nonthreat_target","2900","ongrid","p","9","Ontogenetic","true","practice"
"","null","html-keyboard-response","15","52682","0.0-9.0-2.1","7TcbMDuIpD","63d811a348905b30f4006887","6617fad957f7c6a12ea16e26","6622cb7ab0961b742ba67a4d","
    <div id=""grid-container"">
        <!-- Grid items will be dynamically added here -->
    </div>    ","null","","","","","","","","","","","",""
"","null","html-keyboard-response","16","53885","0.0-9.0-3.1","7TcbMDuIpD","63d811a348905b30f4006887","6617fad957f7c6a12ea16e26","6622cb7ab0961b742ba67a4d","feedback screen","null","","","","","","","","","","","",""
"","null","html-keyboard-response","17","54402","0.0-9.0-0.2","7TcbMDuIpD","63d811a348905b30f4006887","6617fad957f7c6a12ea16e26","6622cb7ab0961b742ba67a4d","fixation cross","null","","","","","","","","","","","",""
"","2030","html-keyboard-response","18","56433","0.0-9.0-1.2","7TcbMDuIpD","63d811a348905b30f4006887","6617fad957f7c6a12ea16e26","6622cb7ab0961b742ba67a4d","image grid","q","","","","","Phylogenetic_Distractor_notarget","2800","ongrid"," ","3","Ontogenetic","false","practice"
"","null","html-keyboard-response","19","56585","0.0-9.0-2.2","7TcbMDuIpD","63d811a348905b30f4006887","6617fad957f7c6a12ea16e26","6622cb7ab0961b742ba67a4d","
    <div id=""grid-container"">
        <!-- Grid items will be dynamically added here -->
    </div>    ","null","","","","","","","","","","","",""
"","null","html-keyboard-response","20","57788","0.0-9.0-3.2","7TcbMDuIpD","63d811a348905b30f4006887","6617fad957f7c6a12ea16e26","6622cb7ab0961b742ba67a4d","feedback screen","null","","","","","","","","","","","",""
"","null","html-keyboard-response","21","58294","0.0-9.0-0.3","7TcbMDuIpD","63d811a348905b30f4006887","6617fad957f7c6a12ea16e26","6622cb7ab0961b742ba67a4d","fixation cross","null","","","","","","","","","","","",""
"","1193","html-keyboard-response","22","59488","0.0-9.0-1.3","7TcbMDuIpD","63d811a348905b30f4006887","6617fad957f7c6a12ea16e26","6622cb7ab0961b742ba67a4d","image grid","q","","","","","Ontogenetic_Distractor_Threat_target","2700","ongrid","q","8","Ontogenetic","true","practice"
"","null","html-keyboard-response","23","59639","0.0-9.0-2.3","7TcbMDuIpD","63d811a348905b30f4006887","6617fad957f7c6a12ea16e26","6622cb7ab0961b742ba67a4d","
    <div id=""grid-container"">
        <!-- Grid items will be dynamically added here -->
    </div>    ","null","","","","","","","","","","","",""
"","null","html-keyboard-response","24","60844","0.0-9.0-3.3","7TcbMDuIpD","63d811a348905b30f4006887","6617fad957f7c6a12ea16e26","6622cb7ab0961b742ba67a4d","feedback screen","null","","","","","","","","","","","",""
"","null","html-keyboard-response","25","61352","0.0-9.0-0.4","7TcbMDuIpD","63d811a348905b30f4006887","6617fad957f7c6a12ea16e26","6622cb7ab0961b742ba67a4d","fixation cross","null","","","","","","","","","","","",""
"","1765","html-keyboard-response","26","63118","0.0-9.0-1.4","7TcbMDuIpD","63d811a348905b30f4006887","6617fad957f7c6a12ea16e26","6622cb7ab0961b742ba67a4d","image grid","q","","","","","Phylogenetic_Distractor_Threat_target","2600","ongrid","q","4","Ontogenetic","true","practice"
"","null","html-keyboard-response","27","63270","0.0-9.0-2.4","7TcbMDuIpD","63d811a348905b30f4006887","6617fad957f7c6a12ea16e26","6622cb7ab0961b742ba67a4d","
    <div id=""grid-container"">
        <!-- Grid items will be dynamically added here -->
    </div>    ","null","","","","","","","","","","","",""
"","null","html-keyboard-response","28","64473","0.0-9.0-3.4","7TcbMDuIpD","63d811a348905b30f4006887","6617fad957f7c6a12ea16e26","6622cb7ab0961b742ba67a4d","feedback screen","null","","","","","","","","","","","",""
"","null","html-keyboard-response","29","64981","0.0-9.0-0.5","7TcbMDuIpD","63d811a348905b30f4006887","6617fad957f7c6a12ea16e26","6622cb7ab0961b742ba67a4d","fixation cross","null","","","","","","","","","","","",""
"","1162","html-keyboard-response","30","66144","0.0-9.0-1.5","7TcbMDuIpD","63d811a348905b30f4006887","6617fad957f7c6a12ea16e26","6622cb7ab0961b742ba67a4d","image grid","p","","","","","Ontogenetic_Distractor_Nonthreat_target","2500","ongrid","p","6","Ontogenetic","true","practice"
"","null","html-keyboard-response","31","66296","0.0-9.0-2.5","7TcbMDuIpD","63d811a348905b30f4006887","6617fad957f7c6a12ea16e26","6622cb7ab0961b742ba67a4d","
    <div id=""grid-container"">
        <!-- Grid items will be dynamically added here -->
    </div>    ","null","","","","","","","","","","","",""
"","null","html-keyboard-response","32","67499","0.0-9.0-3.5","7TcbMDuIpD","63d811a348905b30f4006887","6617fad957f7c6a12ea16e26","6622cb7ab0961b742ba67a4d","feedback screen","null","","","","","","","","","","","",""
"","null","html-keyboard-response","33","68007","0.0-9.0-0.6","7TcbMDuIpD","63d811a348905b30f4006887","6617fad957f7c6a12ea16e26","6622cb7ab0961b742ba67a4d","fixation cross","null","","","","","","","","","","","",""
"","1074","html-keyboard-response","34","69082","0.0-9.0-1.6","7TcbMDuIpD","63d811a348905b30f4006887","6617fad957f7c6a12ea16e26","6622cb7ab0961b742ba67a4d","image grid","q","","","","","Phylogenetic_Distractor_Threat_target","2400","ongrid","q","6","Ontogenetic","true","practice"
"","null","html-keyboard-response","35","69234","0.0-9.0-2.6","7TcbMDuIpD","63d811a348905b30f4006887","6617fad957f7c6a12ea16e26","6622cb7ab0961b742ba67a4d","
    <div id=""grid-container"">
        <!-- Grid items will be dynamically added here -->
    </div>    ","null","","","","","","","","","","","",""
"","null","html-keyboard-response","36","70436","0.0-9.0-3.6","7TcbMDuIpD","63d811a348905b30f4006887","6617fad957f7c6a12ea16e26","6622cb7ab0961b742ba67a4d","feedback screen","null","","","","","","","","","","","",""
"","null","html-keyboard-response","37","70946","0.0-9.0-0.7","7TcbMDuIpD","63d811a348905b30f4006887","6617fad957f7c6a12ea16e26","6622cb7ab0961b742ba67a4d","fixation cross","null","","","","","","","","","","","",""
"","1320","html-keyboard-response","38","72266","0.0-9.0-1.7","7TcbMDuIpD","63d811a348905b30f4006887","6617fad957f7c6a12ea16e26","6622cb7ab0961b742ba67a4d","image grid","p","","","","","Phylogenetic_Distractor_Nonthreat_target","2300","ongrid","p","2","Ontogenetic","true","practice"
"","null","html-keyboard-response","39","72418","0.0-9.0-2.7","7TcbMDuIpD","63d811a348905b30f4006887","6617fad957f7c6a12ea16e26","6622cb7ab0961b742ba67a4d","
    <div id=""grid-container"">
        <!-- Grid items will be dynamically added here -->
    </div>    ","null","","","","","","","","","","","",""
"","null","html-keyboard-response","40","73621","0.0-9.0-3.7","7TcbMDuIpD","63d811a348905b30f4006887","6617fad957f7c6a12ea16e26","6622cb7ab0961b742ba67a4d","feedback screen","null","","","","","","","","","","","",""
"","null","html-keyboard-response","41","74130","0.0-9.0-0.8","7TcbMDuIpD","63d811a348905b30f4006887","6617fad957f7c6a12ea16e26","6622cb7ab0961b742ba67a4d","fixation cross","null","","","","","","","","","","","",""
"","1467","html-keyboard-response","42","75598","0.0-9.0-1.8","7TcbMDuIpD","63d811a348905b30f4006887","6617fad957f7c6a12ea16e26","6622cb7ab0961b742ba67a4d","image grid","q","","","","","Phylogenetic_Distractor_Threat_target","2200","ongrid","q","9","Ontogenetic","true","practice"
"","null","html-keyboard-response","43","75749","0.0-9.0-2.8","7TcbMDuIpD","63d811a348905b30f4006887","6617fad957f7c6a12ea16e26","6622cb7ab0961b742ba67a4d","
    <div id=""grid-container"">
        <!-- Grid items will be dynamically added here -->
    </div>    ","null","","","","","","","","","","","",""
"","null","html-keyboard-response","44","76951","0.0-9.0-3.8","7TcbMDuIpD","63d811a348905b30f4006887","6617fad957f7c6a12ea16e26","6622cb7ab0961b742ba67a4d","feedback screen","null","","","","","","","","","","","",""
"","null","html-keyboard-response","45","77460","0.0-9.0-0.9","7TcbMDuIpD","63d811a348905b30f4006887","6617fad957f7c6a12ea16e26","6622cb7ab0961b742ba67a4d","fixation cross","null","","","","","","","","","","","",""
"","1517","html-keyboard-response","46","78978","0.0-9.0-1.9","7TcbMDuIpD","63d811a348905b30f4006887","6617fad957f7c6a12ea16e26","6622cb7ab0961b742ba67a4d","image grid"," ","","","","","Ontogenetic_Distractor_notarget","2100","ongrid"," ","3","Ontogenetic","true","practice"
"","null","html-keyboard-response","47","79130","0.0-9.0-2.9","7TcbMDuIpD","63d811a348905b30f4006887","6617fad957f7c6a12ea16e26","6622cb7ab0961b742ba67a4d","
    <div id=""grid-container"">
        <!-- Grid items will be dynamically added here -->
    </div>    ","null","","","","","","","","","","","",""
"","null","html-keyboard-response","48","80333","0.0-9.0-3.9","7TcbMDuIpD","63d811a348905b30f4006887","6617fad957f7c6a12ea16e26","6622cb7ab0961b742ba67a4d","feedback screen","null","","","","","","","","","","","",""
"","null","html-keyboard-response","49","80842","0.0-9.0-0.10","7TcbMDuIpD","63d811a348905b30f4006887","6617fad957f7c6a12ea16e26","6622cb7ab0961b742ba67a4d","fixation cross","null","","","","","","","","","","","",""
"","1481","html-keyboard-response","50","82324","0.0-9.0-1.10","7TcbMDuIpD","63d811a348905b30f4006887","6617fad957f7c6a12ea16e26","6622cb7ab0961b742ba67a4d","image grid"," ","","","","","Phylogenetic_Distractor_notarget","2000","ongrid"," ","2","Ontogenetic","true","practice"
"","null","html-keyboard-response","51","82476","0.0-9.0-2.10","7TcbMDuIpD","63d811a348905b30f4006887","6617fad957f7c6a12ea16e26","6622cb7ab0961b742ba67a4d","
    <div id=""grid-container"">
        <!-- Grid items will be dynamically added here -->
    </div>    ","null","","","","","","","","","","","",""
"","null","html-keyboard-response","52","83679","0.0-9.0-3.10","7TcbMDuIpD","63d811a348905b30f4006887","6617fad957f7c6a12ea16e26","6622cb7ab0961b742ba67a4d","feedback screen","null","","","","","","","","","","","",""
"","null","html-keyboard-response","53","84188","0.0-9.0-0.11","7TcbMDuIpD","63d811a348905b30f4006887","6617fad957f7c6a12ea16e26","6622cb7ab0961b742ba67a4d","fixation cross","null","","","","","","","","","","","",""
"","1078","html-keyboard-response","54","85268","0.0-9.0-1.11","7TcbMDuIpD","63d811a348905b30f4006887","6617fad957f7c6a12ea16e26","6622cb7ab0961b742ba67a4d","image grid","p","","","","","Ontogenetic_Distractor_Nonthreat_target","1900","ongrid","p","1","Ontogenetic","true","practice"
"","null","html-keyboard-response","55","85420","0.0-9.0-2.11","7TcbMDuIpD","63d811a348905b30f4006887","6617fad957f7c6a12ea16e26","6622cb7ab0961b742ba67a4d","
    <div id=""grid-container"">
        <!-- Grid items will be dynamically added here -->
    </div>    ","null","","","","","","","","","","","",""
"","null","html-keyboard-response","56","86624","0.0-9.0-3.11","7TcbMDuIpD","63d811a348905b30f4006887","6617fad957f7c6a12ea16e26","6622cb7ab0961b742ba67a4d","feedback screen","null","","","","","","","","","","","",""
"","null","html-keyboard-response","57","87133","0.0-9.0-0.12","7TcbMDuIpD","63d811a348905b30f4006887","6617fad957f7c6a12ea16e26","6622cb7ab0961b742ba67a4d","fixation cross","null","","","","","","","","","","","",""
"","1611","html-keyboard-response","58","88745","0.0-9.0-1.12","7TcbMDuIpD","63d811a348905b30f4006887","6617fad957f7c6a12ea16e26","6622cb7ab0961b742ba67a4d","image grid","p","","","","","Phylogenetic_Distractor_Nonthreat_target","1800","ongrid","p","3","Ontogenetic","true","practice"
"","null","html-keyboard-response","59","88898","0.0-9.0-2.12","7TcbMDuIpD","63d811a348905b30f4006887","6617fad957f7c6a12ea16e26","6622cb7ab0961b742ba67a4d","
    <div id=""grid-container"">
        <!-- Grid items will be dynamically added here -->
    </div>    ","null","","","","","","","","","","","",""
"","null","html-keyboard-response","60","90101","0.0-9.0-3.12","7TcbMDuIpD","63d811a348905b30f4006887","6617fad957f7c6a12ea16e26","6622cb7ab0961b742ba67a4d","feedback screen","null","","","","","","","","","","","",""
"","null","html-keyboard-response","61","90610","0.0-9.0-0.13","7TcbMDuIpD","63d811a348905b30f4006887","6617fad957f7c6a12ea16e26","6622cb7ab0961b742ba67a4d","fixation cross","null","","","","","","","","","","","",""
"","1562","html-keyboard-response","62","92173","0.0-9.0-1.13","7TcbMDuIpD","63d811a348905b30f4006887","6617fad957f7c6a12ea16e26","6622cb7ab0961b742ba67a4d","image grid","p","","","","","Phylogenetic_Distractor_Nonthreat_target","1700","ongrid","p","9","Ontogenetic","true","practice"
"","null","html-keyboard-response","63","92325","0.0-9.0-2.13","7TcbMDuIpD","63d811a348905b30f4006887","6617fad957f7c6a12ea16e26","6622cb7ab0961b742ba67a4d","
    <div id=""grid-container"">
        <!-- Grid items will be dynamically added here -->
    </div>    ","null","","","","","","","","","","","",""
"","null","html-keyboard-response","64","93528","0.0-9.0-3.13","7TcbMDuIpD","63d811a348905b30f4006887","6617fad957f7c6a12ea16e26","6622cb7ab0961b742ba67a4d","feedback screen","null","","","","","","","","","","","",""
"","null","html-keyboard-response","65","94037","0.0-9.0-0.14","7TcbMDuIpD","63d811a348905b30f4006887","6617fad957f7c6a12ea16e26","6622cb7ab0961b742ba67a4d","fixation cross","null","","","","","","","","","","","",""
"","893","html-keyboard-response","66","94931","0.0-9.0-1.14","7TcbMDuIpD","63d811a348905b30f4006887","6617fad957f7c6a12ea16e26","6622cb7ab0961b742ba67a4d","image grid","q","","","","","Phylogenetic_Distractor_Threat_target","1600","ongrid","q","7","Ontogenetic","true","practice"
"","null","html-keyboard-response","67","95083","0.0-9.0-2.14","7TcbMDuIpD","63d811a348905b30f4006887","6617fad957f7c6a12ea16e26","6622cb7ab0961b742ba67a4d","
    <div id=""grid-container"">
        <!-- Grid items will be dynamically added here -->
    </div>    ","null","","","","","","","","","","","",""
"","null","html-keyboard-response","68","96286","0.0-9.0-3.14","7TcbMDuIpD","63d811a348905b30f4006887","6617fad957f7c6a12ea16e26","6622cb7ab0961b742ba67a4d","feedback screen","null","","","","","","","","","","","",""
"","null","html-keyboard-response","69","96795","0.0-9.0-0.15","7TcbMDuIpD","63d811a348905b30f4006887","6617fad957f7c6a12ea16e26","6622cb7ab0961b742ba67a4d","fixation cross","null","","","","","","","","","","","",""
"","null","html-keyboard-response","70","98297","0.0-9.0-1.15","7TcbMDuIpD","63d811a348905b30f4006887","6617fad957f7c6a12ea16e26","6622cb7ab0961b742ba67a4d","
        <div id=""grid-container"">
        <!-- Grid items will be dynamically added here -->
    </div>    ","null","","","","","","","","","","","",""
"","1518","html-keyboard-response","71","98316","0.0-9.0-2.15","7TcbMDuIpD","63d811a348905b30f4006887","6617fad957f7c6a12ea16e26","6622cb7ab0961b742ba67a4d","mask grid","p","","","","","Ontogenetic_Distractor_Nonthreat_target","1500","onmask","p","1","Ontogenetic","true","practice"
"","null","html-keyboard-response","72","99518","0.0-9.0-3.15","7TcbMDuIpD","63d811a348905b30f4006887","6617fad957f7c6a12ea16e26","6622cb7ab0961b742ba67a4d","feedback screen","null","","","","","","","","","","","",""
"","null","html-keyboard-response","73","100027","0.0-9.0-0.16","7TcbMDuIpD","63d811a348905b30f4006887","6617fad957f7c6a12ea16e26","6622cb7ab0961b742ba67a4d","fixation cross","null","","","","","","","","","","","",""
"","null","html-keyboard-response","74","101430","0.0-9.0-1.16","7TcbMDuIpD","63d811a348905b30f4006887","6617fad957f7c6a12ea16e26","6622cb7ab0961b742ba67a4d","
        <div id=""grid-container"">
        <!-- Grid items will be dynamically added here -->
    </div>    ","null","","","","","","","","","","","",""
"","1545","html-keyboard-response","75","101576","0.0-9.0-2.16","7TcbMDuIpD","63d811a348905b30f4006887","6617fad957f7c6a12ea16e26","6622cb7ab0961b742ba67a4d","mask grid","p","","","","","Phylogenetic_Distractor_Nonthreat_target","1400","onmask","p","2","Ontogenetic","true","practice"
"","null","html-keyboard-response","76","102780","0.0-9.0-3.16","7TcbMDuIpD","63d811a348905b30f4006887","6617fad957f7c6a12ea16e26","6622cb7ab0961b742ba67a4d","feedback screen","null","","","","","","","","","","","",""
"","null","html-keyboard-response","77","103289","0.0-9.0-0.17","7TcbMDuIpD","63d811a348905b30f4006887","6617fad957f7c6a12ea16e26","6622cb7ab0961b742ba67a4d","fixation cross","null","","","","","","","","","","","",""
"","936","html-keyboard-response","78","104226","0.0-9.0-1.17","7TcbMDuIpD","63d811a348905b30f4006887","6617fad957f7c6a12ea16e26","6622cb7ab0961b742ba67a4d","image grid"," ","","","","","Ontogenetic_Distractor_Threat_target","1300","ongrid","q","1","Ontogenetic","false","practice"
"","null","html-keyboard-response","79","104378","0.0-9.0-2.17","7TcbMDuIpD","63d811a348905b30f4006887","6617fad957f7c6a12ea16e26","6622cb7ab0961b742ba67a4d","
    <div id=""grid-container"">
        <!-- Grid items will be dynamically added here -->
    </div>    ","null","","","","","","","","","","","",""
"","null","html-keyboard-response","80","105580","0.0-9.0-3.17","7TcbMDuIpD","63d811a348905b30f4006887","6617fad957f7c6a12ea16e26","6622cb7ab0961b742ba67a4d","feedback screen","null","","","","","","","","","","","",""
"","null","html-keyboard-response","81","106089","0.0-9.0-0.18","7TcbMDuIpD","63d811a348905b30f4006887","6617fad957f7c6a12ea16e26","6622cb7ab0961b742ba67a4d","fixation cross","null","","","","","","","","","","","",""
"","null","html-keyboard-response","82","107291","0.0-9.0-1.18","7TcbMDuIpD","63d811a348905b30f4006887","6617fad957f7c6a12ea16e26","6622cb7ab0961b742ba67a4d","
        <div id=""grid-container"">
        <!-- Grid items will be dynamically added here -->
    </div>    ","null","","","","","","","","","","","",""
"","1254","html-keyboard-response","83","107346","0.0-9.0-2.18","7TcbMDuIpD","63d811a348905b30f4006887","6617fad957f7c6a12ea16e26","6622cb7ab0961b742ba67a4d","mask grid"," ","","","","","Ontogenetic_Distractor_notarget","1200","onmask"," ","5","Ontogenetic","true","practice"
"","null","html-keyboard-response","84","108548","0.0-9.0-3.18","7TcbMDuIpD","63d811a348905b30f4006887","6617fad957f7c6a12ea16e26","6622cb7ab0961b742ba67a4d","feedback screen","null","","","","","","","","","","","",""
"","null","html-keyboard-response","85","109058","0.0-9.0-0.19","7TcbMDuIpD","63d811a348905b30f4006887","6617fad957f7c6a12ea16e26","6622cb7ab0961b742ba67a4d","fixation cross","null","","","","","","","","","","","",""
"","null","html-keyboard-response","86","110160","0.0-9.0-1.19","7TcbMDuIpD","63d811a348905b30f4006887","6617fad957f7c6a12ea16e26","6622cb7ab0961b742ba67a4d","
        <div id=""grid-container"">
        <!-- Grid items will be dynamically added here -->
    </div>    ","null","","","","","","","","","","","",""
"","3293","html-keyboard-response","87","112354","0.0-9.0-2.19","7TcbMDuIpD","63d811a348905b30f4006887","6617fad957f7c6a12ea16e26","6622cb7ab0961b742ba67a4d","mask grid","q","","","","","Ontogenetic_Distractor_Threat_target","1100","onmask","q","8","Ontogenetic","true","practice"
"","null","html-keyboard-response","88","113558","0.0-9.0-3.19","7TcbMDuIpD","63d811a348905b30f4006887","6617fad957f7c6a12ea16e26","6622cb7ab0961b742ba67a4d","feedback screen","null","","","","","","","","","","","",""
"","8934","html-keyboard-response","89","122569","0.0-10.0","7TcbMDuIpD","63d811a348905b30f4006887","6617fad957f7c6a12ea16e26","6622cb7ab0961b742ba67a4d","pre-experimental_briefing"," ","","","","","","","","","","","",""
"","null","html-keyboard-response","90","125137","0.0-11.0-0.0","7TcbMDuIpD","63d811a348905b30f4006887","6617fad957f7c6a12ea16e26","6622cb7ab0961b742ba67a4d","fixation cross","null","","","","","","","","","","","",""
"","1954","html-keyboard-response","91","127092","0.0-11.0-1.0","7TcbMDuIpD","63d811a348905b30f4006887","6617fad957f7c6a12ea16e26","6622cb7ab0961b742ba67a4d","image grid","p","","","","","Ontogenetic_Distractor_Nonthreat_target","2500","ongrid","p","5","Ontogenetic","true","experimental"
"","null","html-keyboard-response","92","127244","0.0-11.0-2.0","7TcbMDuIpD","63d811a348905b30f4006887","6617fad957f7c6a12ea16e26","6622cb7ab0961b742ba67a4d","
    <div id=""grid-container"">
        <!-- Grid items will be dynamically added here -->
    </div>    ","null","","","","","","","","","","","",""
"","null","html-keyboard-response","93","127946","0.0-11.0-0.1","7TcbMDuIpD","63d811a348905b30f4006887","6617fad957f7c6a12ea16e26","6622cb7ab0961b742ba67a4d","fixation cross","null","","","","","","","","","","","",""
"","1153","html-keyboard-response","94","129100","0.0-11.0-1.1","7TcbMDuIpD","63d811a348905b30f4006887","6617fad957f7c6a12ea16e26","6622cb7ab0961b742ba67a4d","image grid","q","","","","","Ontogenetic_Distractor_Threat_target","2500","ongrid","q","5","Ontogenetic","true","experimental"
"","null","html-keyboard-response","95","129252","0.0-11.0-2.1","7TcbMDuIpD","63d811a348905b30f4006887","6617fad957f7c6a12ea16e26","6622cb7ab0961b742ba67a4d","
    <div id=""grid-container"">
        <!-- Grid items will be dynamically added here -->
    </div>    ","null","","","","","","","","","","","",""
"","null","html-keyboard-response","96","129955","0.0-11.0-0.2","7TcbMDuIpD","63d811a348905b30f4006887","6617fad957f7c6a12ea16e26","6622cb7ab0961b742ba67a4d","fixation cross","null","","","","","","","","","","","",""
"","null","html-keyboard-response","97","132457","0.0-11.0-1.2","7TcbMDuIpD","63d811a348905b30f4006887","6617fad957f7c6a12ea16e26","6622cb7ab0961b742ba67a4d","
        <div id=""grid-container"">
        <!-- Grid items will be dynamically added here -->
    </div>    ","null","","","","","","","","","","","",""
"","2525","html-keyboard-response","98","132482","0.0-11.0-2.2","7TcbMDuIpD","63d811a348905b30f4006887","6617fad957f7c6a12ea16e26","6622cb7ab0961b742ba67a4d","mask grid","p","","","","","Ontogenetic_Distractor_Nonthreat_target","2500","onmask","p","6","Ontogenetic","true","experimental"
"","null","html-keyboard-response","99","133186","0.0-11.0-0.3","7TcbMDuIpD","63d811a348905b30f4006887","6617fad957f7c6a12ea16e26","6622cb7ab0961b742ba67a4d","fixation cross","null","","","","","","","","","","","",""
"","1166","html-keyboard-response","100","134354","0.0-11.0-1.3","7TcbMDuIpD","63d811a348905b30f4006887","6617fad957f7c6a12ea16e26","6622cb7ab0961b742ba67a4d","image grid","q","","","","","Ontogenetic_Distractor_Threat_target","2500","ongrid","q","5","Ontogenetic","true","experimental"
"","null","html-keyboard-response","101","134505","0.0-11.0-2.3","7TcbMDuIpD","63d811a348905b30f4006887","6617fad957f7c6a12ea16e26","6622cb7ab0961b742ba67a4d","
    <div id=""grid-container"">
        <!-- Grid items will be dynamically added here -->
    </div>    ","null","","","","","","","","","","","",""
"","null","html-keyboard-response","102","135208","0.0-11.0-0.4","7TcbMDuIpD","63d811a348905b30f4006887","6617fad957f7c6a12ea16e26","6622cb7ab0961b742ba67a4d","fixation cross","null","","","","","","","","","","","",""
"","1127","html-keyboard-response","103","136336","0.0-11.0-1.4","7TcbMDuIpD","63d811a348905b30f4006887","6617fad957f7c6a12ea16e26","6622cb7ab0961b742ba67a4d","image grid","q","","","","","Ontogenetic_Distractor_Threat_target","2500","ongrid","q","1","Ontogenetic","true","experimental"
"","null","html-keyboard-response","104","136501","0.0-11.0-2.4","7TcbMDuIpD","63d811a348905b30f4006887","6617fad957f7c6a12ea16e26","6622cb7ab0961b742ba67a4d","
    <div id=""grid-container"">
        <!-- Grid items will be dynamically added here -->
    </div>    ","null","","","","","","","","","","","",""
"","null","html-keyboard-response","105","137204","0.0-11.0-0.5","7TcbMDuIpD","63d811a348905b30f4006887","6617fad957f7c6a12ea16e26","6622cb7ab0961b742ba67a4d","fixation cross","null","","","","","","","","","","","",""
"","1480","html-keyboard-response","106","138685","0.0-11.0-1.5","7TcbMDuIpD","63d811a348905b30f4006887","6617fad957f7c6a12ea16e26","6622cb7ab0961b742ba67a4d","image grid","p","","","","","Ontogenetic_Distractor_Nonthreat_target","2500","ongrid","p","4","Ontogenetic","true","experimental"
"","null","html-keyboard-response","107","138838","0.0-11.0-2.5","7TcbMDuIpD","63d811a348905b30f4006887","6617fad957f7c6a12ea16e26","6622cb7ab0961b742ba67a4d","
    <div id=""grid-container"">
        <!-- Grid items will be dynamically added here -->
    </div>    ","null","","","","","","","","","","","",""
"","null","html-keyboard-response","108","139540","0.0-11.0-0.6","7TcbMDuIpD","63d811a348905b30f4006887","6617fad957f7c6a12ea16e26","6622cb7ab0961b742ba67a4d","fixation cross","null","","","","","","","","","","","",""
"","924","html-keyboard-response","109","140465","0.0-11.0-1.6","7TcbMDuIpD","63d811a348905b30f4006887","6617fad957f7c6a12ea16e26","6622cb7ab0961b742ba67a4d","image grid","q","","","","","Ontogenetic_Distractor_Threat_target","2500","ongrid","q","4","Ontogenetic","true","experimental"
"","null","html-keyboard-response","110","140618","0.0-11.0-2.6","7TcbMDuIpD","63d811a348905b30f4006887","6617fad957f7c6a12ea16e26","6622cb7ab0961b742ba67a4d","
    <div id=""grid-container"">
        <!-- Grid items will be dynamically added here -->
    </div>    ","null","","","","","","","","","","","",""
"","null","html-keyboard-response","111","141321","0.0-11.0-0.7","7TcbMDuIpD","63d811a348905b30f4006887","6617fad957f7c6a12ea16e26","6622cb7ab0961b742ba67a4d","fixation cross","null","","","","","","","","","","","",""
"","858","html-keyboard-response","112","142180","0.0-11.0-1.7","7TcbMDuIpD","63d811a348905b30f4006887","6617fad957f7c6a12ea16e26","6622cb7ab0961b742ba67a4d","image grid","q","","","","","Ontogenetic_Distractor_Threat_target","2500","ongrid","q","1","Ontogenetic","true","experimental"
"","null","html-keyboard-response","113","142331","0.0-11.0-2.7","7TcbMDuIpD","63d811a348905b30f4006887","6617fad957f7c6a12ea16e26","6622cb7ab0961b742ba67a4d","
    <div id=""grid-container"">
        <!-- Grid items will be dynamically added here -->
    </div>    ","null","","","","","","","","","","","",""
"","null","html-keyboard-response","114","143033","0.0-11.0-0.8","7TcbMDuIpD","63d811a348905b30f4006887","6617fad957f7c6a12ea16e26","6622cb7ab0961b742ba67a4d","fixation cross","null","","","","","","","","","","","",""
"","909","html-keyboard-response","115","143943","0.0-11.0-1.8","7TcbMDuIpD","63d811a348905b30f4006887","6617fad957f7c6a12ea16e26","6622cb7ab0961b742ba67a4d","image grid","q","","","","","Ontogenetic_Distractor_Threat_target","2500","ongrid","q","6","Ontogenetic","true","experimental"
"","null","html-keyboard-response","116","144095","0.0-11.0-2.8","7TcbMDuIpD","63d811a348905b30f4006887","6617fad957f7c6a12ea16e26","6622cb7ab0961b742ba67a4d","
    <div id=""grid-container"">
        <!-- Grid items will be dynamically added here -->
    </div>    ","null","","","","","","","","","","","",""
"","null","html-keyboard-response","117","144797","0.0-11.0-0.9","7TcbMDuIpD","63d811a348905b30f4006887","6617fad957f7c6a12ea16e26","6622cb7ab0961b742ba67a4d","fixation cross","null","","","","","","","","","","","",""
"","1027","html-keyboard-response","118","145825","0.0-11.0-1.9","7TcbMDuIpD","63d811a348905b30f4006887","6617fad957f7c6a12ea16e26","6622cb7ab0961b742ba67a4d","image grid","p","","","","","Ontogenetic_Distractor_Nonthreat_target","2500","ongrid","p","2","Ontogenetic","true","experimental"
"","null","html-keyboard-response","119","145977","0.0-11.0-2.9","7TcbMDuIpD","63d811a348905b30f4006887","6617fad957f7c6a12ea16e26","6622cb7ab0961b742ba67a4d","
    <div id=""grid-container"">
        <!-- Grid items will be dynamically added here -->
    </div>    ","null","","","","","","","","","","","",""
"","null","html-keyboard-response","120","146680","0.0-11.0-0.10","7TcbMDuIpD","63d811a348905b30f4006887","6617fad957f7c6a12ea16e26","6622cb7ab0961b742ba67a4d","fixation cross","null","","","","","","","","","","","",""
"","1690","html-keyboard-response","121","148371","0.0-11.0-1.10","7TcbMDuIpD","63d811a348905b30f4006887","6617fad957f7c6a12ea16e26","6622cb7ab0961b742ba67a4d","image grid"," ","","","","","Ontogenetic_Distractor_notarget","2500","ongrid"," ","6","Ontogenetic","true","experimental"
"","null","html-keyboard-response","122","148523","0.0-11.0-2.10","7TcbMDuIpD","63d811a348905b30f4006887","6617fad957f7c6a12ea16e26","6622cb7ab0961b742ba67a4d","
    <div id=""grid-container"">
        <!-- Grid items will be dynamically added here -->
    </div>    ","null","","","","","","","","","","","",""
"","null","html-keyboard-response","123","149225","0.0-11.0-0.11","7TcbMDuIpD","63d811a348905b30f4006887","6617fad957f7c6a12ea16e26","6622cb7ab0961b742ba67a4d","fixation cross","null","","","","","","","","","","","",""
"","1470","html-keyboard-response","124","150696","0.0-11.0-1.11","7TcbMDuIpD","63d811a348905b30f4006887","6617fad957f7c6a12ea16e26","6622cb7ab0961b742ba67a4d","image grid"," ","","","","","Ontogenetic_Distractor_Nonthreat_target","2500","ongrid","p","8","Ontogenetic","false","experimental"
"","null","html-keyboard-response","125","150849","0.0-11.0-2.11","7TcbMDuIpD","63d811a348905b30f4006887","6617fad957f7c6a12ea16e26","6622cb7ab0961b742ba67a4d","
    <div id=""grid-container"">
        <!-- Grid items will be dynamically added here -->
    </div>    ","null","","","","","","","","","","","",""
"","null","html-keyboard-response","126","151551","0.0-11.0-0.12","7TcbMDuIpD","63d811a348905b30f4006887","6617fad957f7c6a12ea16e26","6622cb7ab0961b742ba67a4d","fixation cross","null","","","","","","","","","","","",""
"","946","html-keyboard-response","127","152498","0.0-11.0-1.12","7TcbMDuIpD","63d811a348905b30f4006887","6617fad957f7c6a12ea16e26","6622cb7ab0961b742ba67a4d","image grid","p","","","","","Ontogenetic_Distractor_Nonthreat_target","2500","ongrid","p","4","Ontogenetic","true","experimental"
"","null","html-keyboard-response","128","152651","0.0-11.0-2.12","7TcbMDuIpD","63d811a348905b30f4006887","6617fad957f7c6a12ea16e26","6622cb7ab0961b742ba67a4d","
    <div id=""grid-container"">
        <!-- Grid items will be dynamically added here -->
    </div>    ","null","","","","","","","","","","","",""
"","null","html-keyboard-response","129","153360","0.0-11.0-0.13","7TcbMDuIpD","63d811a348905b30f4006887","6617fad957f7c6a12ea16e26","6622cb7ab0961b742ba67a4d","fixation cross","null","","","","","","","","","","","",""
"","773","html-keyboard-response","130","154134","0.0-11.0-1.13","7TcbMDuIpD","63d811a348905b30f4006887","6617fad957f7c6a12ea16e26","6622cb7ab0961b742ba67a4d","image grid","p","","","","","Ontogenetic_Distractor_Nonthreat_target","2500","ongrid","p","1","Ontogenetic","true","experimental"
"","null","html-keyboard-response","131","154287","0.0-11.0-2.13","7TcbMDuIpD","63d811a348905b30f4006887","6617fad957f7c6a12ea16e26","6622cb7ab0961b742ba67a4d","
    <div id=""grid-container"">
        <!-- Grid items will be dynamically added here -->
    </div>    ","null","","","","","","","","","","","",""
"","null","html-keyboard-response","132","154990","0.0-11.0-0.14","7TcbMDuIpD","63d811a348905b30f4006887","6617fad957f7c6a12ea16e26","6622cb7ab0961b742ba67a4d","fixation cross","null","","","","","","","","","","","",""
"","996","html-keyboard-response","133","155986","0.0-11.0-1.14","7TcbMDuIpD","63d811a348905b30f4006887","6617fad957f7c6a12ea16e26","6622cb7ab0961b742ba67a4d","image grid","p","","","","","Ontogenetic_Distractor_Nonthreat_target","2500","ongrid","p","3","Ontogenetic","true","experimental"
"","null","html-keyboard-response","134","156139","0.0-11.0-2.14","7TcbMDuIpD","63d811a348905b30f4006887","6617fad957f7c6a12ea16e26","6622cb7ab0961b742ba67a4d","
    <div id=""grid-container"">
        <!-- Grid items will be dynamically added here -->
    </div>    ","null","","","","","","","","","","","",""
"","null","html-keyboard-response","135","156840","0.0-11.0-0.15","7TcbMDuIpD","63d811a348905b30f4006887","6617fad957f7c6a12ea16e26","6622cb7ab0961b742ba67a4d","fixation cross","null","","","","","","","","","","","",""
"","770","html-keyboard-response","136","157611","0.0-11.0-1.15","7TcbMDuIpD","63d811a348905b30f4006887","6617fad957f7c6a12ea16e26","6622cb7ab0961b742ba67a4d","image grid","q","","","","","Ontogenetic_Distractor_Threat_target","2500","ongrid","q","4","Ontogenetic","true","experimental"
"","null","html-keyboard-response","137","157764","0.0-11.0-2.15","7TcbMDuIpD","63d811a348905b30f4006887","6617fad957f7c6a12ea16e26","6622cb7ab0961b742ba67a4d","
    <div id=""grid-container"">
        <!-- Grid items will be dynamically added here -->
    </div>    ","null","","","","","","","","","","","",""
"","null","html-keyboard-response","138","158482","0.0-11.0-0.16","7TcbMDuIpD","63d811a348905b30f4006887","6617fad957f7c6a12ea16e26","6622cb7ab0961b742ba67a4d","fixation cross","null","","","","","","","","","","","",""
"","1130","html-keyboard-response","139","159613","0.0-11.0-1.16","7TcbMDuIpD","63d811a348905b30f4006887","6617fad957f7c6a12ea16e26","6622cb7ab0961b742ba67a4d","image grid"," ","","","","","Ontogenetic_Distractor_notarget","2500","ongrid"," ","1","Ontogenetic","true","experimental"
"","null","html-keyboard-response","140","159766","0.0-11.0-2.16","7TcbMDuIpD","63d811a348905b30f4006887","6617fad957f7c6a12ea16e26","6622cb7ab0961b742ba67a4d","
    <div id=""grid-container"">
        <!-- Grid items will be dynamically added here -->
    </div>    ","null","","","","","","","","","","","",""
"","null","html-keyboard-response","141","160467","0.0-11.0-0.17","7TcbMDuIpD","63d811a348905b30f4006887","6617fad957f7c6a12ea16e26","6622cb7ab0961b742ba67a4d","fixation cross","null","","","","","","","","","","","",""
"","920","html-keyboard-response","142","161389","0.0-11.0-1.17","7TcbMDuIpD","63d811a348905b30f4006887","6617fad957f7c6a12ea16e26","6622cb7ab0961b742ba67a4d","image grid","p","","","","","Ontogenetic_Distractor_Nonthreat_target","2500","ongrid","p","4","Ontogenetic","true","experimental"
"","null","html-keyboard-response","143","161541","0.0-11.0-2.17","7TcbMDuIpD","63d811a348905b30f4006887","6617fad957f7c6a12ea16e26","6622cb7ab0961b742ba67a4d","
    <div id=""grid-container"">
        <!-- Grid items will be dynamically added here -->
    </div>    ","null","","","","","","","","","","","",""
"","null","html-keyboard-response","144","162244","0.0-11.0-0.18","7TcbMDuIpD","63d811a348905b30f4006887","6617fad957f7c6a12ea16e26","6622cb7ab0961b742ba67a4d","fixation cross","null","","","","","","","","","","","",""
"","881","html-keyboard-response","145","163126","0.0-11.0-1.18","7TcbMDuIpD","63d811a348905b30f4006887","6617fad957f7c6a12ea16e26","6622cb7ab0961b742ba67a4d","image grid","q","","","","","Ontogenetic_Distractor_Threat_target","2500","ongrid","q","9","Ontogenetic","true","experimental"
"","null","html-keyboard-response","146","163279","0.0-11.0-2.18","7TcbMDuIpD","63d811a348905b30f4006887","6617fad957f7c6a12ea16e26","6622cb7ab0961b742ba67a4d","
    <div id=""grid-container"">
        <!-- Grid items will be dynamically added here -->
    </div>    ","null","","","","","","","","","","","",""
"","null","html-keyboard-response","147","163982","0.0-11.0-0.19","7TcbMDuIpD","63d811a348905b30f4006887","6617fad957f7c6a12ea16e26","6622cb7ab0961b742ba67a4d","fixation cross","null","","","","","","","","","","","",""
"","680","html-keyboard-response","148","164663","0.0-11.0-1.19","7TcbMDuIpD","63d811a348905b30f4006887","6617fad957f7c6a12ea16e26","6622cb7ab0961b742ba67a4d","image grid","q","","","","","Ontogenetic_Distractor_Threat_target","2500","ongrid","q","2","Ontogenetic","true","experimental"
"","null","html-keyboard-response","149","164814","0.0-11.0-2.19","7TcbMDuIpD","63d811a348905b30f4006887","6617fad957f7c6a12ea16e26","6622cb7ab0961b742ba67a4d","
    <div id=""grid-container"">
        <!-- Grid items will be dynamically added here -->
    </div>    ","null","","","","","","","","","","","",""
"","null","html-keyboard-response","150","165518","0.0-11.0-0.20","7TcbMDuIpD","63d811a348905b30f4006887","6617fad957f7c6a12ea16e26","6622cb7ab0961b742ba67a4d","fixation cross","null","","","","","","","","","","","",""
"","808","html-keyboard-response","151","166327","0.0-11.0-1.20","7TcbMDuIpD","63d811a348905b30f4006887","6617fad957f7c6a12ea16e26","6622cb7ab0961b742ba67a4d","image grid","p","","","","","Ontogenetic_Distractor_Nonthreat_target","2500","ongrid","p","1","Ontogenetic","true","experimental"
"","null","html-keyboard-response","152","166480","0.0-11.0-2.20","7TcbMDuIpD","63d811a348905b30f4006887","6617fad957f7c6a12ea16e26","6622cb7ab0961b742ba67a4d","
    <div id=""grid-container"">
        <!-- Grid items will be dynamically added here -->
    </div>    ","null","","","","","","","","","","","",""
"","null","html-keyboard-response","153","167182","0.0-11.0-0.21","7TcbMDuIpD","63d811a348905b30f4006887","6617fad957f7c6a12ea16e26","6622cb7ab0961b742ba67a4d","fixation cross","null","","","","","","","","","","","",""
"","1212","html-keyboard-response","154","168395","0.0-11.0-1.21","7TcbMDuIpD","63d811a348905b30f4006887","6617fad957f7c6a12ea16e26","6622cb7ab0961b742ba67a4d","image grid"," ","","","","","Ontogenetic_Distractor_notarget","2500","ongrid"," ","9","Ontogenetic","true","experimental"
"","null","html-keyboard-response","155","168548","0.0-11.0-2.21","7TcbMDuIpD","63d811a348905b30f4006887","6617fad957f7c6a12ea16e26","6622cb7ab0961b742ba67a4d","
    <div id=""grid-container"">
        <!-- Grid items will be dynamically added here -->
    </div>    ","null","","","","","","","","","","","",""
"","null","html-keyboard-response","156","169251","0.0-11.0-0.22","7TcbMDuIpD","63d811a348905b30f4006887","6617fad957f7c6a12ea16e26","6622cb7ab0961b742ba67a4d","fixation cross","null","","","","","","","","","","","",""
"","641","html-keyboard-response","157","169892","0.0-11.0-1.22","7TcbMDuIpD","63d811a348905b30f4006887","6617fad957f7c6a12ea16e26","6622cb7ab0961b742ba67a4d","image grid","q","","","","","Ontogenetic_Distractor_Threat_target","2500","ongrid","q","6","Ontogenetic","true","experimental"
"","null","html-keyboard-response","158","170046","0.0-11.0-2.22","7TcbMDuIpD","63d811a348905b30f4006887","6617fad957f7c6a12ea16e26","6622cb7ab0961b742ba67a4d","
    <div id=""grid-container"">
        <!-- Grid items will be dynamically added here -->
    </div>    ","null","","","","","","","","","","","",""
"","null","html-keyboard-response","159","170762","0.0-11.0-0.23","7TcbMDuIpD","63d811a348905b30f4006887","6617fad957f7c6a12ea16e26","6622cb7ab0961b742ba67a4d","fixation cross","null","","","","","","","","","","","",""
"","676","html-keyboard-response","160","171439","0.0-11.0-1.23","7TcbMDuIpD","63d811a348905b30f4006887","6617fad957f7c6a12ea16e26","6622cb7ab0961b742ba67a4d","image grid","q","","","","","Ontogenetic_Distractor_Threat_target","2500","ongrid","q","4","Ontogenetic","true","experimental"
"","null","html-keyboard-response","161","171592","0.0-11.0-2.23","7TcbMDuIpD","63d811a348905b30f4006887","6617fad957f7c6a12ea16e26","6622cb7ab0961b742ba67a4d","
    <div id=""grid-container"">
        <!-- Grid items will be dynamically added here -->
    </div>    ","null","","","","","","","","","","","",""
"","null","html-keyboard-response","162","172295","0.0-11.0-0.24","7TcbMDuIpD","63d811a348905b30f4006887","6617fad957f7c6a12ea16e26","6622cb7ab0961b742ba67a4d","fixation cross","null","","","","","","","","","","","",""
"","836","html-keyboard-response","163","173132","0.0-11.0-1.24","7TcbMDuIpD","63d811a348905b30f4006887","6617fad957f7c6a12ea16e26","6622cb7ab0961b742ba67a4d","image grid","p","","","","","Ontogenetic_Distractor_Nonthreat_target","2500","ongrid","p","3","Ontogenetic","true","experimental"
"","null","html-keyboard-response","164","173284","0.0-11.0-2.24","7TcbMDuIpD","63d811a348905b30f4006887","6617fad957f7c6a12ea16e26","6622cb7ab0961b742ba67a4d","
    <div id=""grid-container"">
        <!-- Grid items will be dynamically added here -->
    </div>    ","null","","","","","","","","","","","",""
"","null","html-keyboard-response","165","173986","0.0-11.0-0.25","7TcbMDuIpD","63d811a348905b30f4006887","6617fad957f7c6a12ea16e26","6622cb7ab0961b742ba67a4d","fixation cross","null","","","","","","","","","","","",""
"","1331","html-keyboard-response","166","175318","0.0-11.0-1.25","7TcbMDuIpD","63d811a348905b30f4006887","6617fad957f7c6a12ea16e26","6622cb7ab0961b742ba67a4d","image grid","p","","","","","Ontogenetic_Distractor_Nonthreat_target","2500","ongrid","p","2","Ontogenetic","true","experimental"
"","null","html-keyboard-response","167","175470","0.0-11.0-2.25","7TcbMDuIpD","63d811a348905b30f4006887","6617fad957f7c6a12ea16e26","6622cb7ab0961b742ba67a4d","
    <div id=""grid-container"">
        <!-- Grid items will be dynamically added here -->
    </div>    ","null","","","","","","","","","","","",""
"","null","html-keyboard-response","168","176173","0.0-11.0-0.26","7TcbMDuIpD","63d811a348905b30f4006887","6617fad957f7c6a12ea16e26","6622cb7ab0961b742ba67a4d","fixation cross","null","","","","","","","","","","","",""
"","951","html-keyboard-response","169","177125","0.0-11.0-1.26","7TcbMDuIpD","63d811a348905b30f4006887","6617fad957f7c6a12ea16e26","6622cb7ab0961b742ba67a4d","image grid","p","","","","","Ontogenetic_Distractor_Nonthreat_target","2500","ongrid","p","2","Ontogenetic","true","experimental"
"","null","html-keyboard-response","170","177277","0.0-11.0-2.26","7TcbMDuIpD","63d811a348905b30f4006887","6617fad957f7c6a12ea16e26","6622cb7ab0961b742ba67a4d","
    <div id=""grid-container"">
        <!-- Grid items will be dynamically added here -->
    </div>    ","null","","","","","","","","","","","",""
"","null","html-keyboard-response","171","177980","0.0-11.0-0.27","7TcbMDuIpD","63d811a348905b30f4006887","6617fad957f7c6a12ea16e26","6622cb7ab0961b742ba67a4d","fixation cross","null","","","","","","","","","","","",""
"","523","html-keyboard-response","172","178504","0.0-11.0-1.27","7TcbMDuIpD","63d811a348905b30f4006887","6617fad957f7c6a12ea16e26","6622cb7ab0961b742ba67a4d","image grid","p","","","","","Ontogenetic_Distractor_Nonthreat_target","2500","ongrid","p","2","Ontogenetic","true","experimental"
"","null","html-keyboard-response","173","178657","0.0-11.0-2.27","7TcbMDuIpD","63d811a348905b30f4006887","6617fad957f7c6a12ea16e26","6622cb7ab0961b742ba67a4d","
    <div id=""grid-container"">
        <!-- Grid items will be dynamically added here -->
    </div>    ","null","","","","","","","","","","","",""
"","null","html-keyboard-response","174","179359","0.0-11.0-0.28","7TcbMDuIpD","63d811a348905b30f4006887","6617fad957f7c6a12ea16e26","6622cb7ab0961b742ba67a4d","fixation cross","null","","","","","","","","","","","",""
"","582","html-keyboard-response","175","179942","0.0-11.0-1.28","7TcbMDuIpD","63d811a348905b30f4006887","6617fad957f7c6a12ea16e26","6622cb7ab0961b742ba67a4d","image grid","p","","","","","Ontogenetic_Distractor_Nonthreat_target","2500","ongrid","p","3","Ontogenetic","true","experimental"
"","null","html-keyboard-response","176","180095","0.0-11.0-2.28","7TcbMDuIpD","63d811a348905b30f4006887","6617fad957f7c6a12ea16e26","6622cb7ab0961b742ba67a4d","
    <div id=""grid-container"">
        <!-- Grid items will be dynamically added here -->
    </div>    ","null","","","","","","","","","","","",""
"","null","html-keyboard-response","177","180797","0.0-11.0-0.29","7TcbMDuIpD","63d811a348905b30f4006887","6617fad957f7c6a12ea16e26","6622cb7ab0961b742ba67a4d","fixation cross","null","","","","","","","","","","","",""
"","681","html-keyboard-response","178","181478","0.0-11.0-1.29","7TcbMDuIpD","63d811a348905b30f4006887","6617fad957f7c6a12ea16e26","6622cb7ab0961b742ba67a4d","image grid","p","","","","","Ontogenetic_Distractor_Nonthreat_target","2500","ongrid","p","4","Ontogenetic","true","experimental"
"","null","html-keyboard-response","179","181630","0.0-11.0-2.29","7TcbMDuIpD","63d811a348905b30f4006887","6617fad957f7c6a12ea16e26","6622cb7ab0961b742ba67a4d","
    <div id=""grid-container"">
        <!-- Grid items will be dynamically added here -->
    </div>    ","null","","","","","","","","","","","",""
"","null","html-keyboard-response","180","182332","0.0-11.0-0.30","7TcbMDuIpD","63d811a348905b30f4006887","6617fad957f7c6a12ea16e26","6622cb7ab0961b742ba67a4d","fixation cross","null","","","","","","","","","","","",""
"","1160","html-keyboard-response","181","183493","0.0-11.0-1.30","7TcbMDuIpD","63d811a348905b30f4006887","6617fad957f7c6a12ea16e26","6622cb7ab0961b742ba67a4d","image grid","q","","","","","Ontogenetic_Distractor_Threat_target","2500","ongrid","q","8","Ontogenetic","true","experimental"
"","null","html-keyboard-response","182","183645","0.0-11.0-2.30","7TcbMDuIpD","63d811a348905b30f4006887","6617fad957f7c6a12ea16e26","6622cb7ab0961b742ba67a4d","
    <div id=""grid-container"">
        <!-- Grid items will be dynamically added here -->
    </div>    ","null","","","","","","","","","","","",""
"","null","html-keyboard-response","183","184347","0.0-11.0-0.31","7TcbMDuIpD","63d811a348905b30f4006887","6617fad957f7c6a12ea16e26","6622cb7ab0961b742ba67a4d","fixation cross","null","","","","","","","","","","","",""
"","726","html-keyboard-response","184","185074","0.0-11.0-1.31","7TcbMDuIpD","63d811a348905b30f4006887","6617fad957f7c6a12ea16e26","6622cb7ab0961b742ba67a4d","image grid","q","","","","","Ontogenetic_Distractor_Threat_target","2500","ongrid","q","6","Ontogenetic","true","experimental"
"","null","html-keyboard-response","185","185227","0.0-11.0-2.31","7TcbMDuIpD","63d811a348905b30f4006887","6617fad957f7c6a12ea16e26","6622cb7ab0961b742ba67a4d","
    <div id=""grid-container"">
        <!-- Grid items will be dynamically added here -->
    </div>    ","null","","","","","","","","","","","",""
"","null","html-keyboard-response","186","185929","0.0-11.0-0.32","7TcbMDuIpD","63d811a348905b30f4006887","6617fad957f7c6a12ea16e26","6622cb7ab0961b742ba67a4d","fixation cross","null","","","","","","","","","","","",""
"","1087","html-keyboard-response","187","187017","0.0-11.0-1.32","7TcbMDuIpD","63d811a348905b30f4006887","6617fad957f7c6a12ea16e26","6622cb7ab0961b742ba67a4d","image grid"," ","","","","","Ontogenetic_Distractor_notarget","2500","ongrid"," ","4","Ontogenetic","true","experimental"
"","null","html-keyboard-response","188","187170","0.0-11.0-2.32","7TcbMDuIpD","63d811a348905b30f4006887","6617fad957f7c6a12ea16e26","6622cb7ab0961b742ba67a4d","
    <div id=""grid-container"">
        <!-- Grid items will be dynamically added here -->
    </div>    ","null","","","","","","","","","","","",""
"","null","html-keyboard-response","189","187873","0.0-11.0-0.33","7TcbMDuIpD","63d811a348905b30f4006887","6617fad957f7c6a12ea16e26","6622cb7ab0961b742ba67a4d","fixation cross","null","","","","","","","","","","","",""
"","967","html-keyboard-response","190","188840","0.0-11.0-1.33","7TcbMDuIpD","63d811a348905b30f4006887","6617fad957f7c6a12ea16e26","6622cb7ab0961b742ba67a4d","image grid","q","","","","","Ontogenetic_Distractor_Threat_target","2500","ongrid","q","8","Ontogenetic","true","experimental"
"","null","html-keyboard-response","191","188993","0.0-11.0-2.33","7TcbMDuIpD","63d811a348905b30f4006887","6617fad957f7c6a12ea16e26","6622cb7ab0961b742ba67a4d","
    <div id=""grid-container"">
        <!-- Grid items will be dynamically added here -->
    </div>    ","null","","","","","","","","","","","",""
"","null","html-keyboard-response","192","189696","0.0-11.0-0.34","7TcbMDuIpD","63d811a348905b30f4006887","6617fad957f7c6a12ea16e26","6622cb7ab0961b742ba67a4d","fixation cross","null","","","","","","","","","","","",""
"","1044","html-keyboard-response","193","190741","0.0-11.0-1.34","7TcbMDuIpD","63d811a348905b30f4006887","6617fad957f7c6a12ea16e26","6622cb7ab0961b742ba67a4d","image grid","q","","","","","Ontogenetic_Distractor_Threat_target","2500","ongrid","q","5","Ontogenetic","true","experimental"
"","null","html-keyboard-response","194","190893","0.0-11.0-2.34","7TcbMDuIpD","63d811a348905b30f4006887","6617fad957f7c6a12ea16e26","6622cb7ab0961b742ba67a4d","
    <div id=""grid-container"">
        <!-- Grid items will be dynamically added here -->
    </div>    ","null","","","","","","","","","","","",""
"","null","html-keyboard-response","195","191595","0.0-11.0-0.35","7TcbMDuIpD","63d811a348905b30f4006887","6617fad957f7c6a12ea16e26","6622cb7ab0961b742ba67a4d","fixation cross","null","","","","","","","","","","","",""
"","564","html-keyboard-response","196","192160","0.0-11.0-1.35","7TcbMDuIpD","63d811a348905b30f4006887","6617fad957f7c6a12ea16e26","6622cb7ab0961b742ba67a4d","image grid","q","","","","","Ontogenetic_Distractor_Threat_target","2500","ongrid","q","4","Ontogenetic","true","experimental"
"","null","html-keyboard-response","197","192313","0.0-11.0-2.35","7TcbMDuIpD","63d811a348905b30f4006887","6617fad957f7c6a12ea16e26","6622cb7ab0961b742ba67a4d","
    <div id=""grid-container"">
        <!-- Grid items will be dynamically added here -->
    </div>    ","null","","","","","","","","","","","",""
"","null","html-keyboard-response","198","193015","0.0-11.0-0.36","7TcbMDuIpD","63d811a348905b30f4006887","6617fad957f7c6a12ea16e26","6622cb7ab0961b742ba67a4d","fixation cross","null","","","","","","","","","","","",""
"","751","html-keyboard-response","199","193768","0.0-11.0-1.36","7TcbMDuIpD","63d811a348905b30f4006887","6617fad957f7c6a12ea16e26","6622cb7ab0961b742ba67a4d","image grid","q","","","","","Ontogenetic_Distractor_Threat_target","2500","ongrid","q","7","Ontogenetic","true","experimental"
"","null","html-keyboard-response","200","193921","0.0-11.0-2.36","7TcbMDuIpD","63d811a348905b30f4006887","6617fad957f7c6a12ea16e26","6622cb7ab0961b742ba67a4d","
    <div id=""grid-container"">
        <!-- Grid items will be dynamically added here -->
    </div>    ","null","","","","","","","","","","","",""
"","null","html-keyboard-response","201","194623","0.0-11.0-0.37","7TcbMDuIpD","63d811a348905b30f4006887","6617fad957f7c6a12ea16e26","6622cb7ab0961b742ba67a4d","fixation cross","null","","","","","","","","","","","",""
"","501","html-keyboard-response","202","195125","0.0-11.0-1.37","7TcbMDuIpD","63d811a348905b30f4006887","6617fad957f7c6a12ea16e26","6622cb7ab0961b742ba67a4d","image grid","q","","","","","Ontogenetic_Distractor_Threat_target","2500","ongrid","q","6","Ontogenetic","true","experimental"
"","null","html-keyboard-response","203","195278","0.0-11.0-2.37","7TcbMDuIpD","63d811a348905b30f4006887","6617fad957f7c6a12ea16e26","6622cb7ab0961b742ba67a4d","
    <div id=""grid-container"">
        <!-- Grid items will be dynamically added here -->
    </div>    ","null","","","","","","","","","","","",""
"","null","html-keyboard-response","204","195980","0.0-11.0-0.38","7TcbMDuIpD","63d811a348905b30f4006887","6617fad957f7c6a12ea16e26","6622cb7ab0961b742ba67a4d","fixation cross","null","","","","","","","","","","","",""
"","2410","html-keyboard-response","205","198390","0.0-11.0-1.38","7TcbMDuIpD","63d811a348905b30f4006887","6617fad957f7c6a12ea16e26","6622cb7ab0961b742ba67a4d","image grid"," ","","","","","Ontogenetic_Distractor_Nonthreat_target","2500","ongrid","p","6","Ontogenetic","false","experimental"
"","null","html-keyboard-response","206","198542","0.0-11.0-2.38","7TcbMDuIpD","63d811a348905b30f4006887","6617fad957f7c6a12ea16e26","6622cb7ab0961b742ba67a4d","
    <div id=""grid-container"">
        <!-- Grid items will be dynamically added here -->
    </div>    ","null","","","","","","","","","","","",""
"","null","html-keyboard-response","207","199245","0.0-11.0-0.39","7TcbMDuIpD","63d811a348905b30f4006887","6617fad957f7c6a12ea16e26","6622cb7ab0961b742ba67a4d","fixation cross","null","","","","","","","","","","","",""
"","1642","html-keyboard-response","208","200888","0.0-11.0-1.39","7TcbMDuIpD","63d811a348905b30f4006887","6617fad957f7c6a12ea16e26","6622cb7ab0961b742ba67a4d","image grid","p","","","","","Ontogenetic_Distractor_Nonthreat_target","2500","ongrid","p","8","Ontogenetic","true","experimental"
"","null","html-keyboard-response","209","201040","0.0-11.0-2.39","7TcbMDuIpD","63d811a348905b30f4006887","6617fad957f7c6a12ea16e26","6622cb7ab0961b742ba67a4d","
    <div id=""grid-container"">
        <!-- Grid items will be dynamically added here -->
    </div>    ","null","","","","","","","","","","","",""
"","3438","html-keyboard-response","210","204717","0.0-12.0","7TcbMDuIpD","63d811a348905b30f4006887","6617fad957f7c6a12ea16e26","6622cb7ab0961b742ba67a4d","break screen"," ","","","","","","","","","","","",""
"","null","html-keyboard-response","211","207221","0.0-13.0-0.0","7TcbMDuIpD","63d811a348905b30f4006887","6617fad957f7c6a12ea16e26","6622cb7ab0961b742ba67a4d","fixation cross","null","","","","","","","","","","","",""
"","null","html-keyboard-response","212","208022","0.0-13.0-1.0","7TcbMDuIpD","63d811a348905b30f4006887","6617fad957f7c6a12ea16e26","6622cb7ab0961b742ba67a4d","
        <div id=""grid-container"">
        <!-- Grid items will be dynamically added here -->
    </div>    ","null","","","","","","","","","","","",""
"","2396","html-keyboard-response","213","209618","0.0-13.0-2.0","7TcbMDuIpD","63d811a348905b30f4006887","6617fad957f7c6a12ea16e26","6622cb7ab0961b742ba67a4d","mask grid","p","","","","","Phylogenetic_Distractor_Nonthreat_target","800","onmask","p","9","Phylogenetic","true","experimental"
"","null","html-keyboard-response","214","210321","0.0-13.0-0.1","7TcbMDuIpD","63d811a348905b30f4006887","6617fad957f7c6a12ea16e26","6622cb7ab0961b742ba67a4d","fixation cross","null","","","","","","","","","","","",""
"","null","html-keyboard-response","215","211132","0.0-13.0-1.1","7TcbMDuIpD","63d811a348905b30f4006887","6617fad957f7c6a12ea16e26","6622cb7ab0961b742ba67a4d","
        <div id=""grid-container"">
        <!-- Grid items will be dynamically added here -->
    </div>    ","null","","","","","","","","","","","",""
"","1569","html-keyboard-response","216","211901","0.0-13.0-2.1","7TcbMDuIpD","63d811a348905b30f4006887","6617fad957f7c6a12ea16e26","6622cb7ab0961b742ba67a4d","mask grid","q","","","","","Phylogenetic_Distractor_Nonthreat_target","800","onmask","p","8","Phylogenetic","false","experimental"
"","null","html-keyboard-response","217","212605","0.0-13.0-0.2","7TcbMDuIpD","63d811a348905b30f4006887","6617fad957f7c6a12ea16e26","6622cb7ab0961b742ba67a4d","fixation cross","null","","","","","","","","","","","",""
"","null","html-keyboard-response","218","213406","0.0-13.0-1.2","7TcbMDuIpD","63d811a348905b30f4006887","6617fad957f7c6a12ea16e26","6622cb7ab0961b742ba67a4d","
        <div id=""grid-container"">
        <!-- Grid items will be dynamically added here -->
    </div>    ","null","","","","","","","","","","","",""
"","1235","html-keyboard-response","219","213842","0.0-13.0-2.2","7TcbMDuIpD","63d811a348905b30f4006887","6617fad957f7c6a12ea16e26","6622cb7ab0961b742ba67a4d","mask grid","q","","","","","Phylogenetic_Distractor_Threat_target","800","onmask","q","7","Phylogenetic","true","experimental"
"","null","html-keyboard-response","220","214546","0.0-13.0-0.3","7TcbMDuIpD","63d811a348905b30f4006887","6617fad957f7c6a12ea16e26","6622cb7ab0961b742ba67a4d","fixation cross","null","","","","","","","","","","","",""
"","null","html-keyboard-response","221","215349","0.0-13.0-1.3","7TcbMDuIpD","63d811a348905b30f4006887","6617fad957f7c6a12ea16e26","6622cb7ab0961b742ba67a4d","
        <div id=""grid-container"">
        <!-- Grid items will be dynamically added here -->
    </div>    ","null","","","","","","","","","","","",""
"","1177","html-keyboard-response","222","215727","0.0-13.0-2.3","7TcbMDuIpD","63d811a348905b30f4006887","6617fad957f7c6a12ea16e26","6622cb7ab0961b742ba67a4d","mask grid","q","","","","","Phylogenetic_Distractor_Threat_target","800","onmask","q","5","Phylogenetic","true","experimental"
"","null","html-keyboard-response","223","216432","0.0-13.0-0.4","7TcbMDuIpD","63d811a348905b30f4006887","6617fad957f7c6a12ea16e26","6622cb7ab0961b742ba67a4d","fixation cross","null","","","","","","","","","","","",""
"","798","html-keyboard-response","224","217231","0.0-13.0-1.4","7TcbMDuIpD","63d811a348905b30f4006887","6617fad957f7c6a12ea16e26","6622cb7ab0961b742ba67a4d","image grid","q","","","","","Phylogenetic_Distractor_Threat_target","800","ongrid","q","3","Phylogenetic","true","experimental"
"","null","html-keyboard-response","225","217384","0.0-13.0-2.4","7TcbMDuIpD","63d811a348905b30f4006887","6617fad957f7c6a12ea16e26","6622cb7ab0961b742ba67a4d","
    <div id=""grid-container"">
        <!-- Grid items will be dynamically added here -->
    </div>    ","null","","","","","","","","","","","",""
"","null","html-keyboard-response","226","218085","0.0-13.0-0.5","7TcbMDuIpD","63d811a348905b30f4006887","6617fad957f7c6a12ea16e26","6622cb7ab0961b742ba67a4d","fixation cross","null","","","","","","","","","","","",""
"","null","html-keyboard-response","227","218887","0.0-13.0-1.5","7TcbMDuIpD","63d811a348905b30f4006887","6617fad957f7c6a12ea16e26","6622cb7ab0961b742ba67a4d","
        <div id=""grid-container"">
        <!-- Grid items will be dynamically added here -->
    </div>    ","null","","","","","","","","","","","",""
"","1325","html-keyboard-response","228","219413","0.0-13.0-2.5","7TcbMDuIpD","63d811a348905b30f4006887","6617fad957f7c6a12ea16e26","6622cb7ab0961b742ba67a4d","mask grid","p","","","","","Phylogenetic_Distractor_Nonthreat_target","800","onmask","p","6","Phylogenetic","true","experimental"
"","null","html-keyboard-response","229","220118","0.0-13.0-0.6","7TcbMDuIpD","63d811a348905b30f4006887","6617fad957f7c6a12ea16e26","6622cb7ab0961b742ba67a4d","fixation cross","null","","","","","","","","","","","",""
"","null","html-keyboard-response","230","220921","0.0-13.0-1.6","7TcbMDuIpD","63d811a348905b30f4006887","6617fad957f7c6a12ea16e26","6622cb7ab0961b742ba67a4d","
        <div id=""grid-container"">
        <!-- Grid items will be dynamically added here -->
    </div>    ","null","","","","","","","","","","","",""
"","1924","html-keyboard-response","231","222045","0.0-13.0-2.6","7TcbMDuIpD","63d811a348905b30f4006887","6617fad957f7c6a12ea16e26","6622cb7ab0961b742ba67a4d","mask grid","q","","","","","Phylogenetic_Distractor_notarget","800","onmask"," ","9","Phylogenetic","false","experimental"
"","null","html-keyboard-response","232","222759","0.0-13.0-0.7","7TcbMDuIpD","63d811a348905b30f4006887","6617fad957f7c6a12ea16e26","6622cb7ab0961b742ba67a4d","fixation cross","null","","","","","","","","","","","",""
"","null","html-keyboard-response","233","223561","0.0-13.0-1.7","7TcbMDuIpD","63d811a348905b30f4006887","6617fad957f7c6a12ea16e26","6622cb7ab0961b742ba67a4d","
        <div id=""grid-container"">
        <!-- Grid items will be dynamically added here -->
    </div>    ","null","","","","","","","","","","","",""
"","1461","html-keyboard-response","234","224223","0.0-13.0-2.7","7TcbMDuIpD","63d811a348905b30f4006887","6617fad957f7c6a12ea16e26","6622cb7ab0961b742ba67a4d","mask grid","q","","","","","Phylogenetic_Distractor_Threat_target","800","onmask","q","3","Phylogenetic","true","experimental"
"","null","html-keyboard-response","235","224927","0.0-13.0-0.8","7TcbMDuIpD","63d811a348905b30f4006887","6617fad957f7c6a12ea16e26","6622cb7ab0961b742ba67a4d","fixation cross","null","","","","","","","","","","","",""
"","null","html-keyboard-response","236","225729","0.0-13.0-1.8","7TcbMDuIpD","63d811a348905b30f4006887","6617fad957f7c6a12ea16e26","6622cb7ab0961b742ba67a4d","
        <div id=""grid-container"">
        <!-- Grid items will be dynamically added here -->
    </div>    ","null","","","","","","","","","","","",""
"","1553","html-keyboard-response","237","226483","0.0-13.0-2.8","7TcbMDuIpD","63d811a348905b30f4006887","6617fad957f7c6a12ea16e26","6622cb7ab0961b742ba67a4d","mask grid"," ","","","","","Phylogenetic_Distractor_Nonthreat_target","800","onmask","p","3","Phylogenetic","false","experimental"
"","null","html-keyboard-response","238","227186","0.0-13.0-0.9","7TcbMDuIpD","63d811a348905b30f4006887","6617fad957f7c6a12ea16e26","6622cb7ab0961b742ba67a4d","fixation cross","null","","","","","","","","","","","",""
"","null","html-keyboard-response","239","227989","0.0-13.0-1.9","7TcbMDuIpD","63d811a348905b30f4006887","6617fad957f7c6a12ea16e26","6622cb7ab0961b742ba67a4d","
        <div id=""grid-container"">
        <!-- Grid items will be dynamically added here -->
    </div>    ","null","","","","","","","","","","","",""
"","1335","html-keyboard-response","240","228524","0.0-13.0-2.9","7TcbMDuIpD","63d811a348905b30f4006887","6617fad957f7c6a12ea16e26","6622cb7ab0961b742ba67a4d","mask grid","q","","","","","Phylogenetic_Distractor_Threat_target","800","onmask","q","3","Phylogenetic","true","experimental"
"","null","html-keyboard-response","241","229233","0.0-13.0-0.10","7TcbMDuIpD","63d811a348905b30f4006887","6617fad957f7c6a12ea16e26","6622cb7ab0961b742ba67a4d","fixation cross","null","","","","","","","","","","","",""
"","null","html-keyboard-response","242","230036","0.0-13.0-1.10","7TcbMDuIpD","63d811a348905b30f4006887","6617fad957f7c6a12ea16e26","6622cb7ab0961b742ba67a4d","
        <div id=""grid-container"">
        <!-- Grid items will be dynamically added here -->
    </div>    ","null","","","","","","","","","","","",""
"","1318","html-keyboard-response","243","230555","0.0-13.0-2.10","7TcbMDuIpD","63d811a348905b30f4006887","6617fad957f7c6a12ea16e26","6622cb7ab0961b742ba67a4d","mask grid"," ","","","","","Phylogenetic_Distractor_notarget","800","onmask"," ","2","Phylogenetic","true","experimental"
"","null","html-keyboard-response","244","231259","0.0-13.0-0.11","7TcbMDuIpD","63d811a348905b30f4006887","6617fad957f7c6a12ea16e26","6622cb7ab0961b742ba67a4d","fixation cross","null","","","","","","","","","","","",""
"","null","html-keyboard-response","245","232061","0.0-13.0-1.11","7TcbMDuIpD","63d811a348905b30f4006887","6617fad957f7c6a12ea16e26","6622cb7ab0961b742ba67a4d","
        <div id=""grid-container"">
        <!-- Grid items will be dynamically added here -->
    </div>    ","null","","","","","","","","","","","",""
"","1636","html-keyboard-response","246","232898","0.0-13.0-2.11","7TcbMDuIpD","63d811a348905b30f4006887","6617fad957f7c6a12ea16e26","6622cb7ab0961b742ba67a4d","mask grid","p","","","","","Phylogenetic_Distractor_Nonthreat_target","800","onmask","p","7","Phylogenetic","true","experimental"
"","null","html-keyboard-response","247","233603","0.0-13.0-0.12","7TcbMDuIpD","63d811a348905b30f4006887","6617fad957f7c6a12ea16e26","6622cb7ab0961b742ba67a4d","fixation cross","null","","","","","","","","","","","",""
"","null","html-keyboard-response","248","234405","0.0-13.0-1.12","7TcbMDuIpD","63d811a348905b30f4006887","6617fad957f7c6a12ea16e26","6622cb7ab0961b742ba67a4d","
        <div id=""grid-container"">
        <!-- Grid items will be dynamically added here -->
    </div>    ","null","","","","","","","","","","","",""
"","935","html-keyboard-response","249","234541","0.0-13.0-2.12","7TcbMDuIpD","63d811a348905b30f4006887","6617fad957f7c6a12ea16e26","6622cb7ab0961b742ba67a4d","mask grid","q","","","","","Phylogenetic_Distractor_Threat_target","800","onmask","q","8","Phylogenetic","true","experimental"
"","null","html-keyboard-response","250","235245","0.0-13.0-0.13","7TcbMDuIpD","63d811a348905b30f4006887","6617fad957f7c6a12ea16e26","6622cb7ab0961b742ba67a4d","fixation cross","null","","","","","","","","","","","",""
"","null","html-keyboard-response","251","236047","0.0-13.0-1.13","7TcbMDuIpD","63d811a348905b30f4006887","6617fad957f7c6a12ea16e26","6622cb7ab0961b742ba67a4d","
        <div id=""grid-container"">
        <!-- Grid items will be dynamically added here -->
    </div>    ","null","","","","","","","","","","","",""
"","1135","html-keyboard-response","252","236383","0.0-13.0-2.13","7TcbMDuIpD","63d811a348905b30f4006887","6617fad957f7c6a12ea16e26","6622cb7ab0961b742ba67a4d","mask grid","p","","","","","Phylogenetic_Distractor_Nonthreat_target","800","onmask","p","9","Phylogenetic","true","experimental"
"","null","html-keyboard-response","253","237093","0.0-13.0-0.14","7TcbMDuIpD","63d811a348905b30f4006887","6617fad957f7c6a12ea16e26","6622cb7ab0961b742ba67a4d","fixation cross","null","","","","","","","","","","","",""
"","null","html-keyboard-response","254","237894","0.0-13.0-1.14","7TcbMDuIpD","63d811a348905b30f4006887","6617fad957f7c6a12ea16e26","6622cb7ab0961b742ba67a4d","
        <div id=""grid-container"">
        <!-- Grid items will be dynamically added here -->
    </div>    ","null","","","","","","","","","","","",""
"","1356","html-keyboard-response","255","238451","0.0-13.0-2.14","7TcbMDuIpD","63d811a348905b30f4006887","6617fad957f7c6a12ea16e26","6622cb7ab0961b742ba67a4d","mask grid","p","","","","","Phylogenetic_Distractor_Nonthreat_target","800","onmask","p","5","Phylogenetic","true","experimental"
"","null","html-keyboard-response","256","239155","0.0-13.0-0.15","7TcbMDuIpD","63d811a348905b30f4006887","6617fad957f7c6a12ea16e26","6622cb7ab0961b742ba67a4d","fixation cross","null","","","","","","","","","","","",""
"","null","html-keyboard-response","257","239957","0.0-13.0-1.15","7TcbMDuIpD","63d811a348905b30f4006887","6617fad957f7c6a12ea16e26","6622cb7ab0961b742ba67a4d","
        <div id=""grid-container"">
        <!-- Grid items will be dynamically added here -->
    </div>    ","null","","","","","","","","","","","",""
"","1077","html-keyboard-response","258","240235","0.0-13.0-2.15","7TcbMDuIpD","63d811a348905b30f4006887","6617fad957f7c6a12ea16e26","6622cb7ab0961b742ba67a4d","mask grid","q","","","","","Phylogenetic_Distractor_Threat_target","800","onmask","q","2","Phylogenetic","true","experimental"
"","null","html-keyboard-response","259","240940","0.0-13.0-0.16","7TcbMDuIpD","63d811a348905b30f4006887","6617fad957f7c6a12ea16e26","6622cb7ab0961b742ba67a4d","fixation cross","null","","","","","","","","","","","",""
"","null","html-keyboard-response","260","241741","0.0-13.0-1.16","7TcbMDuIpD","63d811a348905b30f4006887","6617fad957f7c6a12ea16e26","6622cb7ab0961b742ba67a4d","
        <div id=""grid-container"">
        <!-- Grid items will be dynamically added here -->
    </div>    ","null","","","","","","","","","","","",""
"","1028","html-keyboard-response","261","241971","0.0-13.0-2.16","7TcbMDuIpD","63d811a348905b30f4006887","6617fad957f7c6a12ea16e26","6622cb7ab0961b742ba67a4d","mask grid","q","","","","","Phylogenetic_Distractor_Threat_target","800","onmask","q","3","Phylogenetic","true","experimental"
"","null","html-keyboard-response","262","242675","0.0-13.0-0.17","7TcbMDuIpD","63d811a348905b30f4006887","6617fad957f7c6a12ea16e26","6622cb7ab0961b742ba67a4d","fixation cross","null","","","","","","","","","","","",""
"","634","html-keyboard-response","263","243310","0.0-13.0-1.17","7TcbMDuIpD","63d811a348905b30f4006887","6617fad957f7c6a12ea16e26","6622cb7ab0961b742ba67a4d","image grid","q","","","","","Phylogenetic_Distractor_Threat_target","800","ongrid","q","4","Phylogenetic","true","experimental"
"","null","html-keyboard-response","264","243463","0.0-13.0-2.17","7TcbMDuIpD","63d811a348905b30f4006887","6617fad957f7c6a12ea16e26","6622cb7ab0961b742ba67a4d","
    <div id=""grid-container"">
        <!-- Grid items will be dynamically added here -->
    </div>    ","null","","","","","","","","","","","",""
"","null","html-keyboard-response","265","244164","0.0-13.0-0.18","7TcbMDuIpD","63d811a348905b30f4006887","6617fad957f7c6a12ea16e26","6622cb7ab0961b742ba67a4d","fixation cross","null","","","","","","","","","","","",""
"","535","html-keyboard-response","266","244700","0.0-13.0-1.18","7TcbMDuIpD","63d811a348905b30f4006887","6617fad957f7c6a12ea16e26","6622cb7ab0961b742ba67a4d","image grid","q","","","","","Phylogenetic_Distractor_Threat_target","800","ongrid","q","2","Phylogenetic","true","experimental"
"","null","html-keyboard-response","267","244852","0.0-13.0-2.18","7TcbMDuIpD","63d811a348905b30f4006887","6617fad957f7c6a12ea16e26","6622cb7ab0961b742ba67a4d","
    <div id=""grid-container"">
        <!-- Grid items will be dynamically added here -->
    </div>    ","null","","","","","","","","","","","",""
"","null","html-keyboard-response","268","245555","0.0-13.0-0.19","7TcbMDuIpD","63d811a348905b30f4006887","6617fad957f7c6a12ea16e26","6622cb7ab0961b742ba67a4d","fixation cross","null","","","","","","","","","","","",""
"","719","html-keyboard-response","269","246274","0.0-13.0-1.19","7TcbMDuIpD","63d811a348905b30f4006887","6617fad957f7c6a12ea16e26","6622cb7ab0961b742ba67a4d","image grid","p","","","","","Phylogenetic_Distractor_Nonthreat_target","800","ongrid","p","3","Phylogenetic","true","experimental"
"","null","html-keyboard-response","270","246426","0.0-13.0-2.19","7TcbMDuIpD","63d811a348905b30f4006887","6617fad957f7c6a12ea16e26","6622cb7ab0961b742ba67a4d","
    <div id=""grid-container"">
        <!-- Grid items will be dynamically added here -->
    </div>    ","null","","","","","","","","","","","",""
"","null","html-keyboard-response","271","247128","0.0-13.0-0.20","7TcbMDuIpD","63d811a348905b30f4006887","6617fad957f7c6a12ea16e26","6622cb7ab0961b742ba67a4d","fixation cross","null","","","","","","","","","","","",""
"","666","html-keyboard-response","272","247794","0.0-13.0-1.20","7TcbMDuIpD","63d811a348905b30f4006887","6617fad957f7c6a12ea16e26","6622cb7ab0961b742ba67a4d","image grid","q","","","","","Phylogenetic_Distractor_Threat_target","800","ongrid","q","4","Phylogenetic","true","experimental"
"","null","html-keyboard-response","273","247946","0.0-13.0-2.20","7TcbMDuIpD","63d811a348905b30f4006887","6617fad957f7c6a12ea16e26","6622cb7ab0961b742ba67a4d","
    <div id=""grid-container"">
        <!-- Grid items will be dynamically added here -->
    </div>    ","null","","","","","","","","","","","",""
"","null","html-keyboard-response","274","248649","0.0-13.0-0.21","7TcbMDuIpD","63d811a348905b30f4006887","6617fad957f7c6a12ea16e26","6622cb7ab0961b742ba67a4d","fixation cross","null","","","","","","","","","","","",""
"","626","html-keyboard-response","275","249276","0.0-13.0-1.21","7TcbMDuIpD","63d811a348905b30f4006887","6617fad957f7c6a12ea16e26","6622cb7ab0961b742ba67a4d","image grid","q","","","","","Phylogenetic_Distractor_Threat_target","800","ongrid","q","6","Phylogenetic","true","experimental"
"","null","html-keyboard-response","276","249429","0.0-13.0-2.21","7TcbMDuIpD","63d811a348905b30f4006887","6617fad957f7c6a12ea16e26","6622cb7ab0961b742ba67a4d","
    <div id=""grid-container"">
        <!-- Grid items will be dynamically added here -->
    </div>    ","null","","","","","","","","","","","",""
"","null","html-keyboard-response","277","250132","0.0-13.0-0.22","7TcbMDuIpD","63d811a348905b30f4006887","6617fad957f7c6a12ea16e26","6622cb7ab0961b742ba67a4d","fixation cross","null","","","","","","","","","","","",""
"","null","html-keyboard-response","278","250934","0.0-13.0-1.22","7TcbMDuIpD","63d811a348905b30f4006887","6617fad957f7c6a12ea16e26","6622cb7ab0961b742ba67a4d","
        <div id=""grid-container"">
        <!-- Grid items will be dynamically added here -->
    </div>    ","null","","","","","","","","","","","",""
"","878","html-keyboard-response","279","251012","0.0-13.0-2.22","7TcbMDuIpD","63d811a348905b30f4006887","6617fad957f7c6a12ea16e26","6622cb7ab0961b742ba67a4d","mask grid"," ","","","","","Phylogenetic_Distractor_notarget","800","onmask"," ","7","Phylogenetic","true","experimental"
"","null","html-keyboard-response","280","251715","0.0-13.0-0.23","7TcbMDuIpD","63d811a348905b30f4006887","6617fad957f7c6a12ea16e26","6622cb7ab0961b742ba67a4d","fixation cross","null","","","","","","","","","","","",""
"","null","html-keyboard-response","281","252517","0.0-13.0-1.23","7TcbMDuIpD","63d811a348905b30f4006887","6617fad957f7c6a12ea16e26","6622cb7ab0961b742ba67a4d","
        <div id=""grid-container"">
        <!-- Grid items will be dynamically added here -->
    </div>    ","null","","","","","","","","","","","",""
"","982","html-keyboard-response","282","252700","0.0-13.0-2.23","7TcbMDuIpD","63d811a348905b30f4006887","6617fad957f7c6a12ea16e26","6622cb7ab0961b742ba67a4d","mask grid","p","","","","","Phylogenetic_Distractor_Nonthreat_target","800","onmask","p","9","Phylogenetic","true","experimental"
"","null","html-keyboard-response","283","253403","0.0-13.0-0.24","7TcbMDuIpD","63d811a348905b30f4006887","6617fad957f7c6a12ea16e26","6622cb7ab0961b742ba67a4d","fixation cross","null","","","","","","","","","","","",""
"","null","html-keyboard-response","284","254205","0.0-13.0-1.24","7TcbMDuIpD","63d811a348905b30f4006887","6617fad957f7c6a12ea16e26","6622cb7ab0961b742ba67a4d","
        <div id=""grid-container"">
        <!-- Grid items will be dynamically added here -->
    </div>    ","null","","","","","","","","","","","",""
"","903","html-keyboard-response","285","254308","0.0-13.0-2.24","7TcbMDuIpD","63d811a348905b30f4006887","6617fad957f7c6a12ea16e26","6622cb7ab0961b742ba67a4d","mask grid","p","","","","","Phylogenetic_Distractor_Nonthreat_target","800","onmask","p","4","Phylogenetic","true","experimental"
"","null","html-keyboard-response","286","255010","0.0-13.0-0.25","7TcbMDuIpD","63d811a348905b30f4006887","6617fad957f7c6a12ea16e26","6622cb7ab0961b742ba67a4d","fixation cross","null","","","","","","","","","","","",""
"","693","html-keyboard-response","287","255704","0.0-13.0-1.25","7TcbMDuIpD","63d811a348905b30f4006887","6617fad957f7c6a12ea16e26","6622cb7ab0961b742ba67a4d","image grid","p","","","","","Phylogenetic_Distractor_Nonthreat_target","800","ongrid","p","9","Phylogenetic","true","experimental"
"","null","html-keyboard-response","288","255857","0.0-13.0-2.25","7TcbMDuIpD","63d811a348905b30f4006887","6617fad957f7c6a12ea16e26","6622cb7ab0961b742ba67a4d","
    <div id=""grid-container"">
        <!-- Grid items will be dynamically added here -->
    </div>    ","null","","","","","","","","","","","",""
"","null","html-keyboard-response","289","256560","0.0-13.0-0.26","7TcbMDuIpD","63d811a348905b30f4006887","6617fad957f7c6a12ea16e26","6622cb7ab0961b742ba67a4d","fixation cross","null","","","","","","","","","","","",""
"","null","html-keyboard-response","290","257362","0.0-13.0-1.26","7TcbMDuIpD","63d811a348905b30f4006887","6617fad957f7c6a12ea16e26","6622cb7ab0961b742ba67a4d","
        <div id=""grid-container"">
        <!-- Grid items will be dynamically added here -->
    </div>    ","null","","","","","","","","","","","",""
"","1350","html-keyboard-response","291","257913","0.0-13.0-2.26","7TcbMDuIpD","63d811a348905b30f4006887","6617fad957f7c6a12ea16e26","6622cb7ab0961b742ba67a4d","mask grid"," ","","","","","Phylogenetic_Distractor_Nonthreat_target","800","onmask","p","8","Phylogenetic","false","experimental"
"","null","html-keyboard-response","292","258616","0.0-13.0-0.27","7TcbMDuIpD","63d811a348905b30f4006887","6617fad957f7c6a12ea16e26","6622cb7ab0961b742ba67a4d","fixation cross","null","","","","","","","","","","","",""
"","653","html-keyboard-response","293","259270","0.0-13.0-1.27","7TcbMDuIpD","63d811a348905b30f4006887","6617fad957f7c6a12ea16e26","6622cb7ab0961b742ba67a4d","image grid","q","","","","","Phylogenetic_Distractor_Threat_target","800","ongrid","q","1","Phylogenetic","true","experimental"
"","null","html-keyboard-response","294","259423","0.0-13.0-2.27","7TcbMDuIpD","63d811a348905b30f4006887","6617fad957f7c6a12ea16e26","6622cb7ab0961b742ba67a4d","
    <div id=""grid-container"">
        <!-- Grid items will be dynamically added here -->
    </div>    ","null","","","","","","","","","","","",""
"","null","html-keyboard-response","295","260125","0.0-13.0-0.28","7TcbMDuIpD","63d811a348905b30f4006887","6617fad957f7c6a12ea16e26","6622cb7ab0961b742ba67a4d","fixation cross","null","","","","","","","","","","","",""
"","null","html-keyboard-response","296","260927","0.0-13.0-1.28","7TcbMDuIpD","63d811a348905b30f4006887","6617fad957f7c6a12ea16e26","6622cb7ab0961b742ba67a4d","
        <div id=""grid-container"">
        <!-- Grid items will be dynamically added here -->
    </div>    ","null","","","","","","","","","","","",""
"","1135","html-keyboard-response","297","261262","0.0-13.0-2.28","7TcbMDuIpD","63d811a348905b30f4006887","6617fad957f7c6a12ea16e26","6622cb7ab0961b742ba67a4d","mask grid","q","","","","","Phylogenetic_Distractor_Threat_target","800","onmask","q","4","Phylogenetic","true","experimental"
"","null","html-keyboard-response","298","261963","0.0-13.0-0.29","7TcbMDuIpD","63d811a348905b30f4006887","6617fad957f7c6a12ea16e26","6622cb7ab0961b742ba67a4d","fixation cross","null","","","","","","","","","","","",""
"","637","html-keyboard-response","299","262601","0.0-13.0-1.29","7TcbMDuIpD","63d811a348905b30f4006887","6617fad957f7c6a12ea16e26","6622cb7ab0961b742ba67a4d","image grid","q","","","","","Phylogenetic_Distractor_Threat_target","800","ongrid","q","1","Phylogenetic","true","experimental"
"","null","html-keyboard-response","300","262755","0.0-13.0-2.29","7TcbMDuIpD","63d811a348905b30f4006887","6617fad957f7c6a12ea16e26","6622cb7ab0961b742ba67a4d","
    <div id=""grid-container"">
        <!-- Grid items will be dynamically added here -->
    </div>    ","null","","","","","","","","","","","",""
"","null","html-keyboard-response","301","263457","0.0-13.0-0.30","7TcbMDuIpD","63d811a348905b30f4006887","6617fad957f7c6a12ea16e26","6622cb7ab0961b742ba67a4d","fixation cross","null","","","","","","","","","","","",""
"","735","html-keyboard-response","302","264193","0.0-13.0-1.30","7TcbMDuIpD","63d811a348905b30f4006887","6617fad957f7c6a12ea16e26","6622cb7ab0961b742ba67a4d","image grid","p","","","","","Phylogenetic_Distractor_Nonthreat_target","800","ongrid","p","7","Phylogenetic","true","experimental"
"","null","html-keyboard-response","303","264346","0.0-13.0-2.30","7TcbMDuIpD","63d811a348905b30f4006887","6617fad957f7c6a12ea16e26","6622cb7ab0961b742ba67a4d","
    <div id=""grid-container"">
        <!-- Grid items will be dynamically added here -->
    </div>    ","null","","","","","","","","","","","",""
"","null","html-keyboard-response","304","265050","0.0-13.0-0.31","7TcbMDuIpD","63d811a348905b30f4006887","6617fad957f7c6a12ea16e26","6622cb7ab0961b742ba67a4d","fixation cross","null","","","","","","","","","","","",""
"","null","html-keyboard-response","305","265852","0.0-13.0-1.31","7TcbMDuIpD","63d811a348905b30f4006887","6617fad957f7c6a12ea16e26","6622cb7ab0961b742ba67a4d","
        <div id=""grid-container"">
        <!-- Grid items will be dynamically added here -->
    </div>    ","null","","","","","","","","","","","",""
"","929","html-keyboard-response","306","265982","0.0-13.0-2.31","7TcbMDuIpD","63d811a348905b30f4006887","6617fad957f7c6a12ea16e26","6622cb7ab0961b742ba67a4d","mask grid","p","","","","","Phylogenetic_Distractor_Nonthreat_target","800","onmask","p","1","Phylogenetic","true","experimental"
"","null","html-keyboard-response","307","266685","0.0-13.0-0.32","7TcbMDuIpD","63d811a348905b30f4006887","6617fad957f7c6a12ea16e26","6622cb7ab0961b742ba67a4d","fixation cross","null","","","","","","","","","","","",""
"","null","html-keyboard-response","308","267487","0.0-13.0-1.32","7TcbMDuIpD","63d811a348905b30f4006887","6617fad957f7c6a12ea16e26","6622cb7ab0961b742ba67a4d","
        <div id=""grid-container"">
        <!-- Grid items will be dynamically added here -->
    </div>    ","null","","","","","","","","","","","",""
"","1288","html-keyboard-response","309","267976","0.0-13.0-2.32","7TcbMDuIpD","63d811a348905b30f4006887","6617fad957f7c6a12ea16e26","6622cb7ab0961b742ba67a4d","mask grid"," ","","","","","Phylogenetic_Distractor_notarget","800","onmask"," ","6","Phylogenetic","true","experimental"
"","null","html-keyboard-response","310","268706","0.0-13.0-0.33","7TcbMDuIpD","63d811a348905b30f4006887","6617fad957f7c6a12ea16e26","6622cb7ab0961b742ba67a4d","fixation cross","null","","","","","","","","","","","",""
"","null","html-keyboard-response","311","269508","0.0-13.0-1.33","7TcbMDuIpD","63d811a348905b30f4006887","6617fad957f7c6a12ea16e26","6622cb7ab0961b742ba67a4d","
        <div id=""grid-container"">
        <!-- Grid items will be dynamically added here -->
    </div>    ","null","","","","","","","","","","","",""
"","875","html-keyboard-response","312","269583","0.0-13.0-2.33","7TcbMDuIpD","63d811a348905b30f4006887","6617fad957f7c6a12ea16e26","6622cb7ab0961b742ba67a4d","mask grid","q","","","","","Phylogenetic_Distractor_Threat_target","800","onmask","q","7","Phylogenetic","true","experimental"
"","null","html-keyboard-response","313","270285","0.0-13.0-0.34","7TcbMDuIpD","63d811a348905b30f4006887","6617fad957f7c6a12ea16e26","6622cb7ab0961b742ba67a4d","fixation cross","null","","","","","","","","","","","",""
"","null","html-keyboard-response","314","271087","0.0-13.0-1.34","7TcbMDuIpD","63d811a348905b30f4006887","6617fad957f7c6a12ea16e26","6622cb7ab0961b742ba67a4d","
        <div id=""grid-container"">
        <!-- Grid items will be dynamically added here -->
    </div>    ","null","","","","","","","","","","","",""
"","862","html-keyboard-response","315","271150","0.0-13.0-2.34","7TcbMDuIpD","63d811a348905b30f4006887","6617fad957f7c6a12ea16e26","6622cb7ab0961b742ba67a4d","mask grid","q","","","","","Phylogenetic_Distractor_Threat_target","800","onmask","q","2","Phylogenetic","true","experimental"
"","null","html-keyboard-response","316","271853","0.0-13.0-0.35","7TcbMDuIpD","63d811a348905b30f4006887","6617fad957f7c6a12ea16e26","6622cb7ab0961b742ba67a4d","fixation cross","null","","","","","","","","","","","",""
"","null","html-keyboard-response","317","272654","0.0-13.0-1.35","7TcbMDuIpD","63d811a348905b30f4006887","6617fad957f7c6a12ea16e26","6622cb7ab0961b742ba67a4d","
        <div id=""grid-container"">
        <!-- Grid items will be dynamically added here -->
    </div>    ","null","","","","","","","","","","","",""
"","1110","html-keyboard-response","318","272965","0.0-13.0-2.35","7TcbMDuIpD","63d811a348905b30f4006887","6617fad957f7c6a12ea16e26","6622cb7ab0961b742ba67a4d","mask grid","p","","","","","Phylogenetic_Distractor_Nonthreat_target","800","onmask","p","2","Phylogenetic","true","experimental"
"","null","html-keyboard-response","319","273669","0.0-13.0-0.36","7TcbMDuIpD","63d811a348905b30f4006887","6617fad957f7c6a12ea16e26","6622cb7ab0961b742ba67a4d","fixation cross","null","","","","","","","","","","","",""
"","null","html-keyboard-response","320","274471","0.0-13.0-1.36","7TcbMDuIpD","63d811a348905b30f4006887","6617fad957f7c6a12ea16e26","6622cb7ab0961b742ba67a4d","
        <div id=""grid-container"">
        <!-- Grid items will be dynamically added here -->
    </div>    ","null","","","","","","","","","","","",""
"","936","html-keyboard-response","321","274607","0.0-13.0-2.36","7TcbMDuIpD","63d811a348905b30f4006887","6617fad957f7c6a12ea16e26","6622cb7ab0961b742ba67a4d","mask grid","p","","","","","Phylogenetic_Distractor_Nonthreat_target","800","onmask","p","1","Phylogenetic","true","experimental"
"","null","html-keyboard-response","322","275311","0.0-13.0-0.37","7TcbMDuIpD","63d811a348905b30f4006887","6617fad957f7c6a12ea16e26","6622cb7ab0961b742ba67a4d","fixation cross","null","","","","","","","","","","","",""
"","null","html-keyboard-response","323","276113","0.0-13.0-1.37","7TcbMDuIpD","63d811a348905b30f4006887","6617fad957f7c6a12ea16e26","6622cb7ab0961b742ba67a4d","
        <div id=""grid-container"">
        <!-- Grid items will be dynamically added here -->
    </div>    ","null","","","","","","","","","","","",""
"","1238","html-keyboard-response","324","276552","0.0-13.0-2.37","7TcbMDuIpD","63d811a348905b30f4006887","6617fad957f7c6a12ea16e26","6622cb7ab0961b742ba67a4d","mask grid"," ","","","","","Phylogenetic_Distractor_Nonthreat_target","800","onmask","p","4","Phylogenetic","false","experimental"
"","null","html-keyboard-response","325","277256","0.0-13.0-0.38","7TcbMDuIpD","63d811a348905b30f4006887","6617fad957f7c6a12ea16e26","6622cb7ab0961b742ba67a4d","fixation cross","null","","","","","","","","","","","",""
"","677","html-keyboard-response","326","277934","0.0-13.0-1.38","7TcbMDuIpD","63d811a348905b30f4006887","6617fad957f7c6a12ea16e26","6622cb7ab0961b742ba67a4d","image grid","q","","","","","Phylogenetic_Distractor_Threat_target","800","ongrid","q","2","Phylogenetic","true","experimental"
"","null","html-keyboard-response","327","278086","0.0-13.0-2.38","7TcbMDuIpD","63d811a348905b30f4006887","6617fad957f7c6a12ea16e26","6622cb7ab0961b742ba67a4d","
    <div id=""grid-container"">
        <!-- Grid items will be dynamically added here -->
    </div>    ","null","","","","","","","","","","","",""
"","null","html-keyboard-response","328","278790","0.0-13.0-0.39","7TcbMDuIpD","63d811a348905b30f4006887","6617fad957f7c6a12ea16e26","6622cb7ab0961b742ba67a4d","fixation cross","null","","","","","","","","","","","",""
"","null","html-keyboard-response","329","279592","0.0-13.0-1.39","7TcbMDuIpD","63d811a348905b30f4006887","6617fad957f7c6a12ea16e26","6622cb7ab0961b742ba67a4d","
        <div id=""grid-container"">
        <!-- Grid items will be dynamically added here -->
    </div>    ","null","","","","","","","","","","","",""
"","1180","html-keyboard-response","330","279973","0.0-13.0-2.39","7TcbMDuIpD","63d811a348905b30f4006887","6617fad957f7c6a12ea16e26","6622cb7ab0961b742ba67a4d","mask grid","p","","","","","Phylogenetic_Distractor_Nonthreat_target","800","onmask","p","7","Phylogenetic","true","experimental"
"","2764","html-keyboard-response","331","282942","0.0-14.0","7TcbMDuIpD","63d811a348905b30f4006887","6617fad957f7c6a12ea16e26","6622cb7ab0961b742ba67a4d","break screen"," ","","","","","","","","","","","",""
"","null","html-keyboard-response","332","285444","0.0-15.0-0.0","7TcbMDuIpD","63d811a348905b30f4006887","6617fad957f7c6a12ea16e26","6622cb7ab0961b742ba67a4d","fixation cross","null","","","","","","","","","","","",""
"","1251","html-keyboard-response","333","286695","0.0-15.0-1.0","7TcbMDuIpD","63d811a348905b30f4006887","6617fad957f7c6a12ea16e26","6622cb7ab0961b742ba67a4d","image grid","p","","","","","Ontogenetic_Distractor_Nonthreat_target","2500","ongrid","p","1","Ontogenetic","true","experimental"
"","null","html-keyboard-response","334","286850","0.0-15.0-2.0","7TcbMDuIpD","63d811a348905b30f4006887","6617fad957f7c6a12ea16e26","6622cb7ab0961b742ba67a4d","
    <div id=""grid-container"">
        <!-- Grid items will be dynamically added here -->
    </div>    ","null","","","","","","","","","","","",""
"","null","html-keyboard-response","335","287553","0.0-15.0-0.1","7TcbMDuIpD","63d811a348905b30f4006887","6617fad957f7c6a12ea16e26","6622cb7ab0961b742ba67a4d","fixation cross","null","","","","","","","","","","","",""
"","614","html-keyboard-response","336","288168","0.0-15.0-1.1","7TcbMDuIpD","63d811a348905b30f4006887","6617fad957f7c6a12ea16e26","6622cb7ab0961b742ba67a4d","image grid","p","","","","","Ontogenetic_Distractor_Nonthreat_target","2500","ongrid","p","1","Ontogenetic","true","experimental"
"","null","html-keyboard-response","337","288322","0.0-15.0-2.1","7TcbMDuIpD","63d811a348905b30f4006887","6617fad957f7c6a12ea16e26","6622cb7ab0961b742ba67a4d","
    <div id=""grid-container"">
        <!-- Grid items will be dynamically added here -->
    </div>    ","null","","","","","","","","","","","",""
"","null","html-keyboard-response","338","289025","0.0-15.0-0.2","7TcbMDuIpD","63d811a348905b30f4006887","6617fad957f7c6a12ea16e26","6622cb7ab0961b742ba67a4d","fixation cross","null","","","","","","","","","","","",""
"","593","html-keyboard-response","339","289619","0.0-15.0-1.2","7TcbMDuIpD","63d811a348905b30f4006887","6617fad957f7c6a12ea16e26","6622cb7ab0961b742ba67a4d","image grid","q","","","","","Ontogenetic_Distractor_Threat_target","2500","ongrid","q","8","Ontogenetic","true","experimental"
"","null","html-keyboard-response","340","289773","0.0-15.0-2.2","7TcbMDuIpD","63d811a348905b30f4006887","6617fad957f7c6a12ea16e26","6622cb7ab0961b742ba67a4d","
    <div id=""grid-container"">
        <!-- Grid items will be dynamically added here -->
    </div>    ","null","","","","","","","","","","","",""
"","null","html-keyboard-response","341","290475","0.0-15.0-0.3","7TcbMDuIpD","63d811a348905b30f4006887","6617fad957f7c6a12ea16e26","6622cb7ab0961b742ba67a4d","fixation cross","null","","","","","","","","","","","",""
"","913","html-keyboard-response","342","291389","0.0-15.0-1.3","7TcbMDuIpD","63d811a348905b30f4006887","6617fad957f7c6a12ea16e26","6622cb7ab0961b742ba67a4d","image grid","p","","","","","Ontogenetic_Distractor_Nonthreat_target","2500","ongrid","p","9","Ontogenetic","true","experimental"
"","null","html-keyboard-response","343","291544","0.0-15.0-2.3","7TcbMDuIpD","63d811a348905b30f4006887","6617fad957f7c6a12ea16e26","6622cb7ab0961b742ba67a4d","
    <div id=""grid-container"">
        <!-- Grid items will be dynamically added here -->
    </div>    ","null","","","","","","","","","","","",""
"","null","html-keyboard-response","344","292246","0.0-15.0-0.4","7TcbMDuIpD","63d811a348905b30f4006887","6617fad957f7c6a12ea16e26","6622cb7ab0961b742ba67a4d","fixation cross","null","","","","","","","","","","","",""
"","647","html-keyboard-response","345","292894","0.0-15.0-1.4","7TcbMDuIpD","63d811a348905b30f4006887","6617fad957f7c6a12ea16e26","6622cb7ab0961b742ba67a4d","image grid","p","","","","","Ontogenetic_Distractor_Nonthreat_target","2500","ongrid","p","2","Ontogenetic","true","experimental"
"","null","html-keyboard-response","346","293048","0.0-15.0-2.4","7TcbMDuIpD","63d811a348905b30f4006887","6617fad957f7c6a12ea16e26","6622cb7ab0961b742ba67a4d","
    <div id=""grid-container"">
        <!-- Grid items will be dynamically added here -->
    </div>    ","null","","","","","","","","","","","",""
"","null","html-keyboard-response","347","293751","0.0-15.0-0.5","7TcbMDuIpD","63d811a348905b30f4006887","6617fad957f7c6a12ea16e26","6622cb7ab0961b742ba67a4d","fixation cross","null","","","","","","","","","","","",""
"","627","html-keyboard-response","348","294379","0.0-15.0-1.5","7TcbMDuIpD","63d811a348905b30f4006887","6617fad957f7c6a12ea16e26","6622cb7ab0961b742ba67a4d","image grid","q","","","","","Ontogenetic_Distractor_Threat_target","2500","ongrid","q","2","Ontogenetic","true","experimental"
"","null","html-keyboard-response","349","294533","0.0-15.0-2.5","7TcbMDuIpD","63d811a348905b30f4006887","6617fad957f7c6a12ea16e26","6622cb7ab0961b742ba67a4d","
    <div id=""grid-container"">
        <!-- Grid items will be dynamically added here -->
    </div>    ","null","","","","","","","","","","","",""
"","null","html-keyboard-response","350","295236","0.0-15.0-0.6","7TcbMDuIpD","63d811a348905b30f4006887","6617fad957f7c6a12ea16e26","6622cb7ab0961b742ba67a4d","fixation cross","null","","","","","","","","","","","",""
"","821","html-keyboard-response","351","296058","0.0-15.0-1.6","7TcbMDuIpD","63d811a348905b30f4006887","6617fad957f7c6a12ea16e26","6622cb7ab0961b742ba67a4d","image grid"," ","","","","","Ontogenetic_Distractor_notarget","2500","ongrid"," ","3","Ontogenetic","true","experimental"
"","null","html-keyboard-response","352","296211","0.0-15.0-2.6","7TcbMDuIpD","63d811a348905b30f4006887","6617fad957f7c6a12ea16e26","6622cb7ab0961b742ba67a4d","
    <div id=""grid-container"">
        <!-- Grid items will be dynamically added here -->
    </div>    ","null","","","","","","","","","","","",""
"","null","html-keyboard-response","353","296913","0.0-15.0-0.7","7TcbMDuIpD","63d811a348905b30f4006887","6617fad957f7c6a12ea16e26","6622cb7ab0961b742ba67a4d","fixation cross","null","","","","","","","","","","","",""
"","817","html-keyboard-response","354","297731","0.0-15.0-1.7","7TcbMDuIpD","63d811a348905b30f4006887","6617fad957f7c6a12ea16e26","6622cb7ab0961b742ba67a4d","image grid","p","","","","","Ontogenetic_Distractor_Nonthreat_target","2500","ongrid","p","2","Ontogenetic","true","experimental"
"","null","html-keyboard-response","355","297885","0.0-15.0-2.7","7TcbMDuIpD","63d811a348905b30f4006887","6617fad957f7c6a12ea16e26","6622cb7ab0961b742ba67a4d","
    <div id=""grid-container"">
        <!-- Grid items will be dynamically added here -->
    </div>    ","null","","","","","","","","","","","",""
"","null","html-keyboard-response","356","298588","0.0-15.0-0.8","7TcbMDuIpD","63d811a348905b30f4006887","6617fad957f7c6a12ea16e26","6622cb7ab0961b742ba67a4d","fixation cross","null","","","","","","","","","","","",""
"","960","html-keyboard-response","357","299549","0.0-15.0-1.8","7TcbMDuIpD","63d811a348905b30f4006887","6617fad957f7c6a12ea16e26","6622cb7ab0961b742ba67a4d","image grid","p","","","","","Ontogenetic_Distractor_Nonthreat_target","2500","ongrid","p","1","Ontogenetic","true","experimental"
"","null","html-keyboard-response","358","299703","0.0-15.0-2.8","7TcbMDuIpD","63d811a348905b30f4006887","6617fad957f7c6a12ea16e26","6622cb7ab0961b742ba67a4d","
    <div id=""grid-container"">
        <!-- Grid items will be dynamically added here -->
    </div>    ","null","","","","","","","","","","","",""
"","null","html-keyboard-response","359","300406","0.0-15.0-0.9","7TcbMDuIpD","63d811a348905b30f4006887","6617fad957f7c6a12ea16e26","6622cb7ab0961b742ba67a4d","fixation cross","null","","","","","","","","","","","",""
"","816","html-keyboard-response","360","301223","0.0-15.0-1.9","7TcbMDuIpD","63d811a348905b30f4006887","6617fad957f7c6a12ea16e26","6622cb7ab0961b742ba67a4d","image grid","p","","","","","Ontogenetic_Distractor_Nonthreat_target","2500","ongrid","p","6","Ontogenetic","true","experimental"
"","null","html-keyboard-response","361","301374","0.0-15.0-2.9","7TcbMDuIpD","63d811a348905b30f4006887","6617fad957f7c6a12ea16e26","6622cb7ab0961b742ba67a4d","
    <div id=""grid-container"">
        <!-- Grid items will be dynamically added here -->
    </div>    ","null","","","","","","","","","","","",""
"","null","html-keyboard-response","362","302076","0.0-15.0-0.10","7TcbMDuIpD","63d811a348905b30f4006887","6617fad957f7c6a12ea16e26","6622cb7ab0961b742ba67a4d","fixation cross","null","","","","","","","","","","","",""
"","598","html-keyboard-response","363","302674","0.0-15.0-1.10","7TcbMDuIpD","63d811a348905b30f4006887","6617fad957f7c6a12ea16e26","6622cb7ab0961b742ba67a4d","image grid","p","","","","","Ontogenetic_Distractor_Nonthreat_target","2500","ongrid","p","4","Ontogenetic","true","experimental"
"","null","html-keyboard-response","364","302830","0.0-15.0-2.10","7TcbMDuIpD","63d811a348905b30f4006887","6617fad957f7c6a12ea16e26","6622cb7ab0961b742ba67a4d","
    <div id=""grid-container"">
        <!-- Grid items will be dynamically added here -->
    </div>    ","null","","","","","","","","","","","",""
"","null","html-keyboard-response","365","303533","0.0-15.0-0.11","7TcbMDuIpD","63d811a348905b30f4006887","6617fad957f7c6a12ea16e26","6622cb7ab0961b742ba67a4d","fixation cross","null","","","","","","","","","","","",""
"","805","html-keyboard-response","366","304339","0.0-15.0-1.11","7TcbMDuIpD","63d811a348905b30f4006887","6617fad957f7c6a12ea16e26","6622cb7ab0961b742ba67a4d","image grid","p","","","","","Ontogenetic_Distractor_Nonthreat_target","2500","ongrid","p","7","Ontogenetic","true","experimental"
"","null","html-keyboard-response","367","304494","0.0-15.0-2.11","7TcbMDuIpD","63d811a348905b30f4006887","6617fad957f7c6a12ea16e26","6622cb7ab0961b742ba67a4d","
    <div id=""grid-container"">
        <!-- Grid items will be dynamically added here -->
    </div>    ","null","","","","","","","","","","","",""
"","null","html-keyboard-response","368","305195","0.0-15.0-0.12","7TcbMDuIpD","63d811a348905b30f4006887","6617fad957f7c6a12ea16e26","6622cb7ab0961b742ba67a4d","fixation cross","null","","","","","","","","","","","",""
"","514","html-keyboard-response","369","305710","0.0-15.0-1.12","7TcbMDuIpD","63d811a348905b30f4006887","6617fad957f7c6a12ea16e26","6622cb7ab0961b742ba67a4d","image grid","p","","","","","Ontogenetic_Distractor_Nonthreat_target","2500","ongrid","p","3","Ontogenetic","true","experimental"
"","null","html-keyboard-response","370","305871","0.0-15.0-2.12","7TcbMDuIpD","63d811a348905b30f4006887","6617fad957f7c6a12ea16e26","6622cb7ab0961b742ba67a4d","
    <div id=""grid-container"">
        <!-- Grid items will be dynamically added here -->
