"success","rt","trial_type","trial_index","time_elapsed","internal_node_id","unique_identifier","subject_id","study_id","session_id","stimulus","response","timeout","failed_images","failed_audio","failed_video","task","time_manipulation","respondedwhen","correctresponse","targetimagelocation","blocktype","correct","roundtype"
"true","2663","fullscreen","0","3670","0.0-0.0","6vk5B4lUyx","653efdb0f60588dbb6c205cf","6617fad957f7c6a12ea16e26","6622cf97ae72a4821e85b291","","","","","","","","","","","","","",""
"","15356","html-keyboard-response","1","19035","0.0-1.0","6vk5B4lUyx","653efdb0f60588dbb6c205cf","6617fad957f7c6a12ea16e26","6622cf97ae72a4821e85b291","instruction screen 0"," ","","","","","","","","","","","",""
"true","","preload","2","29044","0.0-2.0","6vk5B4lUyx","653efdb0f60588dbb6c205cf","6617fad957f7c6a12ea16e26","6622cf97ae72a4821e85b291","","","false","[]","[]","[]","","","","","","","",""
"","7644","html-keyboard-response","3","36690","0.0-3.0","6vk5B4lUyx","653efdb0f60588dbb6c205cf","6617fad957f7c6a12ea16e26","6622cf97ae72a4821e85b291","instruction screen 1"," ","","","","","","","","","","","",""
"","1847","html-keyboard-response","4","38552","0.0-4.0","6vk5B4lUyx","653efdb0f60588dbb6c205cf","6617fad957f7c6a12ea16e26","6622cf97ae72a4821e85b291","instruction screen 2","q","","","","","","","","","","","",""
"","1802","html-keyboard-response","5","40362","0.0-5.0","6vk5B4lUyx","653efdb0f60588dbb6c205cf","6617fad957f7c6a12ea16e26","6622cf97ae72a4821e85b291","instruction screen 3","p","","","","","","","","","","","",""
"","8982","html-keyboard-response","6","49360","0.0-6.0","6vk5B4lUyx","653efdb0f60588dbb6c205cf","6617fad957f7c6a12ea16e26","6622cf97ae72a4821e85b291","instruction screen 4"," ","","","","","","","","","","","",""
"","2637","html-keyboard-response","7","52002","0.0-7.0","6vk5B4lUyx","653efdb0f60588dbb6c205cf","6617fad957f7c6a12ea16e26","6622cf97ae72a4821e85b291","instruction screen 5","p","","","","","","","","","","","",""
"","null","html-keyboard-response","8","52524","0.0-8.0","6vk5B4lUyx","653efdb0f60588dbb6c205cf","6617fad957f7c6a12ea16e26","6622cf97ae72a4821e85b291","fixation cross","null","","","","","","","","","","","",""
"","null","html-keyboard-response","9","53030","0.0-9.0-0.0","6vk5B4lUyx","653efdb0f60588dbb6c205cf","6617fad957f7c6a12ea16e26","6622cf97ae72a4821e85b291","fixation cross","null","","","","","","","","","","","",""
"","1032","html-keyboard-response","10","54063","0.0-9.0-1.0","6vk5B4lUyx","653efdb0f60588dbb6c205cf","6617fad957f7c6a12ea16e26","6622cf97ae72a4821e85b291","image grid","q","","","","","Phylogenetic_Distractor_Nonthreat_target","3000","ongrid","p","2","Ontogenetic","false","practice"
"","null","html-keyboard-response","11","54218","0.0-9.0-2.0","6vk5B4lUyx","653efdb0f60588dbb6c205cf","6617fad957f7c6a12ea16e26","6622cf97ae72a4821e85b291","
    <div id=""grid-container"">
        <!-- Grid items will be dynamically added here -->
    </div>    ","null","","","","","","","","","","","",""
"","null","html-keyboard-response","12","55433","0.0-9.0-3.0","6vk5B4lUyx","653efdb0f60588dbb6c205cf","6617fad957f7c6a12ea16e26","6622cf97ae72a4821e85b291","feedback screen","null","","","","","","","","","","","",""
"","null","html-keyboard-response","13","55954","0.0-9.0-0.1","6vk5B4lUyx","653efdb0f60588dbb6c205cf","6617fad957f7c6a12ea16e26","6622cf97ae72a4821e85b291","fixation cross","null","","","","","","","","","","","",""
"","1380","html-keyboard-response","14","57335","0.0-9.0-1.1","6vk5B4lUyx","653efdb0f60588dbb6c205cf","6617fad957f7c6a12ea16e26","6622cf97ae72a4821e85b291","image grid","q","","","","","Ontogenetic_Distractor_Threat_target","2900","ongrid","q","5","Ontogenetic","true","practice"
"","null","html-keyboard-response","15","57498","0.0-9.0-2.1","6vk5B4lUyx","653efdb0f60588dbb6c205cf","6617fad957f7c6a12ea16e26","6622cf97ae72a4821e85b291","
    <div id=""grid-container"">
        <!-- Grid items will be dynamically added here -->
    </div>    ","null","","","","","","","","","","","",""
"","null","html-keyboard-response","16","58729","0.0-9.0-3.1","6vk5B4lUyx","653efdb0f60588dbb6c205cf","6617fad957f7c6a12ea16e26","6622cf97ae72a4821e85b291","feedback screen","null","","","","","","","","","","","",""
"","null","html-keyboard-response","17","59237","0.0-9.0-0.2","6vk5B4lUyx","653efdb0f60588dbb6c205cf","6617fad957f7c6a12ea16e26","6622cf97ae72a4821e85b291","fixation cross","null","","","","","","","","","","","",""
"","441","html-keyboard-response","18","59680","0.0-9.0-1.2","6vk5B4lUyx","653efdb0f60588dbb6c205cf","6617fad957f7c6a12ea16e26","6622cf97ae72a4821e85b291","image grid","p","","","","","Phylogenetic_Distractor_Threat_target","2800","ongrid","q","3","Ontogenetic","false","practice"
"","null","html-keyboard-response","19","59845","0.0-9.0-2.2","6vk5B4lUyx","653efdb0f60588dbb6c205cf","6617fad957f7c6a12ea16e26","6622cf97ae72a4821e85b291","
    <div id=""grid-container"">
        <!-- Grid items will be dynamically added here -->
    </div>    ","null","","","","","","","","","","","",""
"","null","html-keyboard-response","20","61074","0.0-9.0-3.2","6vk5B4lUyx","653efdb0f60588dbb6c205cf","6617fad957f7c6a12ea16e26","6622cf97ae72a4821e85b291","feedback screen","null","","","","","","","","","","","",""
"","null","html-keyboard-response","21","61581","0.0-9.0-0.3","6vk5B4lUyx","653efdb0f60588dbb6c205cf","6617fad957f7c6a12ea16e26","6622cf97ae72a4821e85b291","fixation cross","null","","","","","","","","","","","",""
"","1538","html-keyboard-response","22","63120","0.0-9.0-1.3","6vk5B4lUyx","653efdb0f60588dbb6c205cf","6617fad957f7c6a12ea16e26","6622cf97ae72a4821e85b291","image grid","q","","","","","Phylogenetic_Distractor_notarget","2700","ongrid"," ","8","Ontogenetic","false","practice"
"","null","html-keyboard-response","23","63272","0.0-9.0-2.3","6vk5B4lUyx","653efdb0f60588dbb6c205cf","6617fad957f7c6a12ea16e26","6622cf97ae72a4821e85b291","
    <div id=""grid-container"">
        <!-- Grid items will be dynamically added here -->
    </div>    ","null","","","","","","","","","","","",""
"","null","html-keyboard-response","24","64496","0.0-9.0-3.3","6vk5B4lUyx","653efdb0f60588dbb6c205cf","6617fad957f7c6a12ea16e26","6622cf97ae72a4821e85b291","feedback screen","null","","","","","","","","","","","",""
"","null","html-keyboard-response","25","65012","0.0-9.0-0.4","6vk5B4lUyx","653efdb0f60588dbb6c205cf","6617fad957f7c6a12ea16e26","6622cf97ae72a4821e85b291","fixation cross","null","","","","","","","","","","","",""
"","845","html-keyboard-response","26","65860","0.0-9.0-1.4","6vk5B4lUyx","653efdb0f60588dbb6c205cf","6617fad957f7c6a12ea16e26","6622cf97ae72a4821e85b291","image grid","q","","","","","Ontogenetic_Distractor_Nonthreat_target","2600","ongrid","p","7","Ontogenetic","false","practice"
"","null","html-keyboard-response","27","66017","0.0-9.0-2.4","6vk5B4lUyx","653efdb0f60588dbb6c205cf","6617fad957f7c6a12ea16e26","6622cf97ae72a4821e85b291","
    <div id=""grid-container"">
        <!-- Grid items will be dynamically added here -->
    </div>    ","null","","","","","","","","","","","",""
"","null","html-keyboard-response","28","67236","0.0-9.0-3.4","6vk5B4lUyx","653efdb0f60588dbb6c205cf","6617fad957f7c6a12ea16e26","6622cf97ae72a4821e85b291","feedback screen","null","","","","","","","","","","","",""
"","null","html-keyboard-response","29","67746","0.0-9.0-0.5","6vk5B4lUyx","653efdb0f60588dbb6c205cf","6617fad957f7c6a12ea16e26","6622cf97ae72a4821e85b291","fixation cross","null","","","","","","","","","","","",""
"","468","html-keyboard-response","30","68215","0.0-9.0-1.5","6vk5B4lUyx","653efdb0f60588dbb6c205cf","6617fad957f7c6a12ea16e26","6622cf97ae72a4821e85b291","image grid","p","","","","","Ontogenetic_Distractor_Threat_target","2500","ongrid","q","3","Ontogenetic","false","practice"
"","null","html-keyboard-response","31","68375","0.0-9.0-2.5","6vk5B4lUyx","653efdb0f60588dbb6c205cf","6617fad957f7c6a12ea16e26","6622cf97ae72a4821e85b291","
    <div id=""grid-container"">
        <!-- Grid items will be dynamically added here -->
    </div>    ","null","","","","","","","","","","","",""
"","null","html-keyboard-response","32","69603","0.0-9.0-3.5","6vk5B4lUyx","653efdb0f60588dbb6c205cf","6617fad957f7c6a12ea16e26","6622cf97ae72a4821e85b291","feedback screen","null","","","","","","","","","","","",""
"","null","html-keyboard-response","33","70121","0.0-9.0-0.6","6vk5B4lUyx","653efdb0f60588dbb6c205cf","6617fad957f7c6a12ea16e26","6622cf97ae72a4821e85b291","fixation cross","null","","","","","","","","","","","",""
"","398","html-keyboard-response","34","70520","0.0-9.0-1.6","6vk5B4lUyx","653efdb0f60588dbb6c205cf","6617fad957f7c6a12ea16e26","6622cf97ae72a4821e85b291","image grid","p","","","","","Ontogenetic_Distractor_Threat_target","2400","ongrid","q","1","Ontogenetic","false","practice"
"","null","html-keyboard-response","35","70673","0.0-9.0-2.6","6vk5B4lUyx","653efdb0f60588dbb6c205cf","6617fad957f7c6a12ea16e26","6622cf97ae72a4821e85b291","
    <div id=""grid-container"">
        <!-- Grid items will be dynamically added here -->
    </div>    ","null","","","","","","","","","","","",""
"","null","html-keyboard-response","36","71891","0.0-9.0-3.6","6vk5B4lUyx","653efdb0f60588dbb6c205cf","6617fad957f7c6a12ea16e26","6622cf97ae72a4821e85b291","feedback screen","null","","","","","","","","","","","",""
"","null","html-keyboard-response","37","72398","0.0-9.0-0.7","6vk5B4lUyx","653efdb0f60588dbb6c205cf","6617fad957f7c6a12ea16e26","6622cf97ae72a4821e85b291","fixation cross","null","","","","","","","","","","","",""
"","352","html-keyboard-response","38","72751","0.0-9.0-1.7","6vk5B4lUyx","653efdb0f60588dbb6c205cf","6617fad957f7c6a12ea16e26","6622cf97ae72a4821e85b291","image grid","q","","","","","Ontogenetic_Distractor_Nonthreat_target","2300","ongrid","p","7","Ontogenetic","false","practice"
"","null","html-keyboard-response","39","72905","0.0-9.0-2.7","6vk5B4lUyx","653efdb0f60588dbb6c205cf","6617fad957f7c6a12ea16e26","6622cf97ae72a4821e85b291","
    <div id=""grid-container"">
        <!-- Grid items will be dynamically added here -->
    </div>    ","null","","","","","","","","","","","",""
"","null","html-keyboard-response","40","74112","0.0-9.0-3.7","6vk5B4lUyx","653efdb0f60588dbb6c205cf","6617fad957f7c6a12ea16e26","6622cf97ae72a4821e85b291","feedback screen","null","","","","","","","","","","","",""
"","null","html-keyboard-response","41","74627","0.0-9.0-0.8","6vk5B4lUyx","653efdb0f60588dbb6c205cf","6617fad957f7c6a12ea16e26","6622cf97ae72a4821e85b291","fixation cross","null","","","","","","","","","","","",""
"","790","html-keyboard-response","42","75418","0.0-9.0-1.8","6vk5B4lUyx","653efdb0f60588dbb6c205cf","6617fad957f7c6a12ea16e26","6622cf97ae72a4821e85b291","image grid","p","","","","","Phylogenetic_Distractor_Nonthreat_target","2200","ongrid","p","1","Ontogenetic","true","practice"
"","null","html-keyboard-response","43","75574","0.0-9.0-2.8","6vk5B4lUyx","653efdb0f60588dbb6c205cf","6617fad957f7c6a12ea16e26","6622cf97ae72a4821e85b291","
    <div id=""grid-container"">
        <!-- Grid items will be dynamically added here -->
    </div>    ","null","","","","","","","","","","","",""
"","null","html-keyboard-response","44","76809","0.0-9.0-3.8","6vk5B4lUyx","653efdb0f60588dbb6c205cf","6617fad957f7c6a12ea16e26","6622cf97ae72a4821e85b291","feedback screen","null","","","","","","","","","","","",""
"","null","html-keyboard-response","45","77338","0.0-9.0-0.9","6vk5B4lUyx","653efdb0f60588dbb6c205cf","6617fad957f7c6a12ea16e26","6622cf97ae72a4821e85b291","fixation cross","null","","","","","","","","","","","",""
"","797","html-keyboard-response","46","78135","0.0-9.0-1.9","6vk5B4lUyx","653efdb0f60588dbb6c205cf","6617fad957f7c6a12ea16e26","6622cf97ae72a4821e85b291","image grid","p","","","","","Phylogenetic_Distractor_Threat_target","2100","ongrid","q","9","Ontogenetic","false","practice"
"","null","html-keyboard-response","47","78293","0.0-9.0-2.9","6vk5B4lUyx","653efdb0f60588dbb6c205cf","6617fad957f7c6a12ea16e26","6622cf97ae72a4821e85b291","
    <div id=""grid-container"">
        <!-- Grid items will be dynamically added here -->
    </div>    ","null","","","","","","","","","","","",""
"","null","html-keyboard-response","48","79514","0.0-9.0-3.9","6vk5B4lUyx","653efdb0f60588dbb6c205cf","6617fad957f7c6a12ea16e26","6622cf97ae72a4821e85b291","feedback screen","null","","","","","","","","","","","",""
"","null","html-keyboard-response","49","80042","0.0-9.0-0.10","6vk5B4lUyx","653efdb0f60588dbb6c205cf","6617fad957f7c6a12ea16e26","6622cf97ae72a4821e85b291","fixation cross","null","","","","","","","","","","","",""
"","710","html-keyboard-response","50","80754","0.0-9.0-1.10","6vk5B4lUyx","653efdb0f60588dbb6c205cf","6617fad957f7c6a12ea16e26","6622cf97ae72a4821e85b291","image grid","q","","","","","Phylogenetic_Distractor_Threat_target","2000","ongrid","q","1","Ontogenetic","true","practice"
"","null","html-keyboard-response","51","80911","0.0-9.0-2.10","6vk5B4lUyx","653efdb0f60588dbb6c205cf","6617fad957f7c6a12ea16e26","6622cf97ae72a4821e85b291","
    <div id=""grid-container"">
        <!-- Grid items will be dynamically added here -->
    </div>    ","null","","","","","","","","","","","",""
"","null","html-keyboard-response","52","82128","0.0-9.0-3.10","6vk5B4lUyx","653efdb0f60588dbb6c205cf","6617fad957f7c6a12ea16e26","6622cf97ae72a4821e85b291","feedback screen","null","","","","","","","","","","","",""
"","null","html-keyboard-response","53","82636","0.0-9.0-0.11","6vk5B4lUyx","653efdb0f60588dbb6c205cf","6617fad957f7c6a12ea16e26","6622cf97ae72a4821e85b291","fixation cross","null","","","","","","","","","","","",""
"","780","html-keyboard-response","54","83418","0.0-9.0-1.11","6vk5B4lUyx","653efdb0f60588dbb6c205cf","6617fad957f7c6a12ea16e26","6622cf97ae72a4821e85b291","image grid","q","","","","","Ontogenetic_Distractor_Nonthreat_target","1900","ongrid","p","7","Ontogenetic","false","practice"
"","null","html-keyboard-response","55","83584","0.0-9.0-2.11","6vk5B4lUyx","653efdb0f60588dbb6c205cf","6617fad957f7c6a12ea16e26","6622cf97ae72a4821e85b291","
    <div id=""grid-container"">
        <!-- Grid items will be dynamically added here -->
    </div>    ","null","","","","","","","","","","","",""
"","null","html-keyboard-response","56","84806","0.0-9.0-3.11","6vk5B4lUyx","653efdb0f60588dbb6c205cf","6617fad957f7c6a12ea16e26","6622cf97ae72a4821e85b291","feedback screen","null","","","","","","","","","","","",""
"","null","html-keyboard-response","57","85336","0.0-9.0-0.12","6vk5B4lUyx","653efdb0f60588dbb6c205cf","6617fad957f7c6a12ea16e26","6622cf97ae72a4821e85b291","fixation cross","null","","","","","","","","","","","",""
"","702","html-keyboard-response","58","86048","0.0-9.0-1.12","6vk5B4lUyx","653efdb0f60588dbb6c205cf","6617fad957f7c6a12ea16e26","6622cf97ae72a4821e85b291","image grid","p","","","","","Phylogenetic_Distractor_Nonthreat_target","1800","ongrid","p","3","Ontogenetic","true","practice"
"","null","html-keyboard-response","59","86210","0.0-9.0-2.12","6vk5B4lUyx","653efdb0f60588dbb6c205cf","6617fad957f7c6a12ea16e26","6622cf97ae72a4821e85b291","
    <div id=""grid-container"">
        <!-- Grid items will be dynamically added here -->
    </div>    ","null","","","","","","","","","","","",""
"","null","html-keyboard-response","60","87427","0.0-9.0-3.12","6vk5B4lUyx","653efdb0f60588dbb6c205cf","6617fad957f7c6a12ea16e26","6622cf97ae72a4821e85b291","feedback screen","null","","","","","","","","","","","",""
"","null","html-keyboard-response","61","87934","0.0-9.0-0.13","6vk5B4lUyx","653efdb0f60588dbb6c205cf","6617fad957f7c6a12ea16e26","6622cf97ae72a4821e85b291","fixation cross","null","","","","","","","","","","","",""
"","684","html-keyboard-response","62","88619","0.0-9.0-1.13","6vk5B4lUyx","653efdb0f60588dbb6c205cf","6617fad957f7c6a12ea16e26","6622cf97ae72a4821e85b291","image grid","p","","","","","Phylogenetic_Distractor_notarget","1700","ongrid"," ","4","Ontogenetic","false","practice"
"","null","html-keyboard-response","63","88778","0.0-9.0-2.13","6vk5B4lUyx","653efdb0f60588dbb6c205cf","6617fad957f7c6a12ea16e26","6622cf97ae72a4821e85b291","
    <div id=""grid-container"">
        <!-- Grid items will be dynamically added here -->
    </div>    ","null","","","","","","","","","","","",""
"","null","html-keyboard-response","64","89992","0.0-9.0-3.13","6vk5B4lUyx","653efdb0f60588dbb6c205cf","6617fad957f7c6a12ea16e26","6622cf97ae72a4821e85b291","feedback screen","null","","","","","","","","","","","",""
"","null","html-keyboard-response","65","90514","0.0-9.0-0.14","6vk5B4lUyx","653efdb0f60588dbb6c205cf","6617fad957f7c6a12ea16e26","6622cf97ae72a4821e85b291","fixation cross","null","","","","","","","","","","","",""
"","399","html-keyboard-response","66","90916","0.0-9.0-1.14","6vk5B4lUyx","653efdb0f60588dbb6c205cf","6617fad957f7c6a12ea16e26","6622cf97ae72a4821e85b291","image grid","p","","","","","Ontogenetic_Distractor_Threat_target","1600","ongrid","q","8","Ontogenetic","false","practice"
"","null","html-keyboard-response","67","91069","0.0-9.0-2.14","6vk5B4lUyx","653efdb0f60588dbb6c205cf","6617fad957f7c6a12ea16e26","6622cf97ae72a4821e85b291","
    <div id=""grid-container"">
        <!-- Grid items will be dynamically added here -->
    </div>    ","null","","","","","","","","","","","",""
"","null","html-keyboard-response","68","92295","0.0-9.0-3.14","6vk5B4lUyx","653efdb0f60588dbb6c205cf","6617fad957f7c6a12ea16e26","6622cf97ae72a4821e85b291","feedback screen","null","","","","","","","","","","","",""
"","null","html-keyboard-response","69","92815","0.0-9.0-0.15","6vk5B4lUyx","653efdb0f60588dbb6c205cf","6617fad957f7c6a12ea16e26","6622cf97ae72a4821e85b291","fixation cross","null","","","","","","","","","","","",""
"","168","html-keyboard-response","70","92985","0.0-9.0-1.15","6vk5B4lUyx","653efdb0f60588dbb6c205cf","6617fad957f7c6a12ea16e26","6622cf97ae72a4821e85b291","image grid","q","","","","","Phylogenetic_Distractor_Threat_target","1500","ongrid","q","5","Ontogenetic","true","practice"
"","null","html-keyboard-response","71","93144","0.0-9.0-2.15","6vk5B4lUyx","653efdb0f60588dbb6c205cf","6617fad957f7c6a12ea16e26","6622cf97ae72a4821e85b291","
    <div id=""grid-container"">
        <!-- Grid items will be dynamically added here -->
    </div>    ","null","","","","","","","","","","","",""
"","null","html-keyboard-response","72","94372","0.0-9.0-3.15","6vk5B4lUyx","653efdb0f60588dbb6c205cf","6617fad957f7c6a12ea16e26","6622cf97ae72a4821e85b291","feedback screen","null","","","","","","","","","","","",""
"","8","html-keyboard-response","73","94890","0.0-9.0-0.16","6vk5B4lUyx","653efdb0f60588dbb6c205cf","6617fad957f7c6a12ea16e26","6622cf97ae72a4821e85b291","fixation cross","p","","","","","","","","","","","",""
"","693","html-keyboard-response","74","95584","0.0-9.0-1.16","6vk5B4lUyx","653efdb0f60588dbb6c205cf","6617fad957f7c6a12ea16e26","6622cf97ae72a4821e85b291","image grid","q","","","","","Ontogenetic_Distractor_notarget","1400","ongrid"," ","7","Ontogenetic","false","practice"
"","null","html-keyboard-response","75","95742","0.0-9.0-2.16","6vk5B4lUyx","653efdb0f60588dbb6c205cf","6617fad957f7c6a12ea16e26","6622cf97ae72a4821e85b291","
    <div id=""grid-container"">
        <!-- Grid items will be dynamically added here -->
    </div>    ","null","","","","","","","","","","","",""
"","null","html-keyboard-response","76","96958","0.0-9.0-3.16","6vk5B4lUyx","653efdb0f60588dbb6c205cf","6617fad957f7c6a12ea16e26","6622cf97ae72a4821e85b291","feedback screen","null","","","","","","","","","","","",""
"","null","html-keyboard-response","77","97469","0.0-9.0-0.17","6vk5B4lUyx","653efdb0f60588dbb6c205cf","6617fad957f7c6a12ea16e26","6622cf97ae72a4821e85b291","fixation cross","null","","","","","","","","","","","",""
"","402","html-keyboard-response","78","97872","0.0-9.0-1.17","6vk5B4lUyx","653efdb0f60588dbb6c205cf","6617fad957f7c6a12ea16e26","6622cf97ae72a4821e85b291","image grid","p","","","","","Ontogenetic_Distractor_Nonthreat_target","1300","ongrid","p","6","Ontogenetic","true","practice"
"","null","html-keyboard-response","79","98038","0.0-9.0-2.17","6vk5B4lUyx","653efdb0f60588dbb6c205cf","6617fad957f7c6a12ea16e26","6622cf97ae72a4821e85b291","
    <div id=""grid-container"">
        <!-- Grid items will be dynamically added here -->
    </div>    ","null","","","","","","","","","","","",""
"","null","html-keyboard-response","80","99253","0.0-9.0-3.17","6vk5B4lUyx","653efdb0f60588dbb6c205cf","6617fad957f7c6a12ea16e26","6622cf97ae72a4821e85b291","feedback screen","null","","","","","","","","","","","",""
"","null","html-keyboard-response","81","99772","0.0-9.0-0.18","6vk5B4lUyx","653efdb0f60588dbb6c205cf","6617fad957f7c6a12ea16e26","6622cf97ae72a4821e85b291","fixation cross","null","","","","","","","","","","","",""
"","621","html-keyboard-response","82","100395","0.0-9.0-1.18","6vk5B4lUyx","653efdb0f60588dbb6c205cf","6617fad957f7c6a12ea16e26","6622cf97ae72a4821e85b291","image grid","q","","","","","Phylogenetic_Distractor_Nonthreat_target","1200","ongrid","p","5","Ontogenetic","false","practice"
"","null","html-keyboard-response","83","100554","0.0-9.0-2.18","6vk5B4lUyx","653efdb0f60588dbb6c205cf","6617fad957f7c6a12ea16e26","6622cf97ae72a4821e85b291","
    <div id=""grid-container"">
        <!-- Grid items will be dynamically added here -->
    </div>    ","null","","","","","","","","","","","",""
"","null","html-keyboard-response","84","101761","0.0-9.0-3.18","6vk5B4lUyx","653efdb0f60588dbb6c205cf","6617fad957f7c6a12ea16e26","6622cf97ae72a4821e85b291","feedback screen","null","","","","","","","","","","","",""
"","null","html-keyboard-response","85","102280","0.0-9.0-0.19","6vk5B4lUyx","653efdb0f60588dbb6c205cf","6617fad957f7c6a12ea16e26","6622cf97ae72a4821e85b291","fixation cross","null","","","","","","","","","","","",""
"","235","html-keyboard-response","86","102516","0.0-9.0-1.19","6vk5B4lUyx","653efdb0f60588dbb6c205cf","6617fad957f7c6a12ea16e26","6622cf97ae72a4821e85b291","image grid","p","","","","","Ontogenetic_Distractor_notarget","1100","ongrid"," ","1","Ontogenetic","false","practice"
"","null","html-keyboard-response","87","102682","0.0-9.0-2.19","6vk5B4lUyx","653efdb0f60588dbb6c205cf","6617fad957f7c6a12ea16e26","6622cf97ae72a4821e85b291","
    <div id=""grid-container"">
        <!-- Grid items will be dynamically added here -->
    </div>    ","null","","","","","","","","","","","",""
"","null","html-keyboard-response","88","103906","0.0-9.0-3.19","6vk5B4lUyx","653efdb0f60588dbb6c205cf","6617fad957f7c6a12ea16e26","6622cf97ae72a4821e85b291","feedback screen","null","","","","","","","","","","","",""
"","131351","html-keyboard-response","89","235329","0.0-10.0","6vk5B4lUyx","653efdb0f60588dbb6c205cf","6617fad957f7c6a12ea16e26","6622cf97ae72a4821e85b291","pre-experimental_briefing"," ","","","","","","","","","","","",""
"","201","html-keyboard-response","90","237878","0.0-11.0-0.0","6vk5B4lUyx","653efdb0f60588dbb6c205cf","6617fad957f7c6a12ea16e26","6622cf97ae72a4821e85b291","fixation cross","p","","","","","","","","","","","",""
"","418","html-keyboard-response","91","238297","0.0-11.0-1.0","6vk5B4lUyx","653efdb0f60588dbb6c205cf","6617fad957f7c6a12ea16e26","6622cf97ae72a4821e85b291","image grid","p","","","","","Ontogenetic_Distractor_Nonthreat_target","2500","ongrid","p","2","Ontogenetic","true","experimental"
"","null","html-keyboard-response","92","238463","0.0-11.0-2.0","6vk5B4lUyx","653efdb0f60588dbb6c205cf","6617fad957f7c6a12ea16e26","6622cf97ae72a4821e85b291","
    <div id=""grid-container"">
        <!-- Grid items will be dynamically added here -->
    </div>    ","null","","","","","","","","","","","",""
"","null","html-keyboard-response","93","239187","0.0-11.0-0.1","6vk5B4lUyx","653efdb0f60588dbb6c205cf","6617fad957f7c6a12ea16e26","6622cf97ae72a4821e85b291","fixation cross","null","","","","","","","","","","","",""
"","84","html-keyboard-response","94","239272","0.0-11.0-1.1","6vk5B4lUyx","653efdb0f60588dbb6c205cf","6617fad957f7c6a12ea16e26","6622cf97ae72a4821e85b291","image grid","p","","","","","Ontogenetic_Distractor_Threat_target","2500","ongrid","q","3","Ontogenetic","false","experimental"
"","null","html-keyboard-response","95","239439","0.0-11.0-2.1","6vk5B4lUyx","653efdb0f60588dbb6c205cf","6617fad957f7c6a12ea16e26","6622cf97ae72a4821e85b291","
    <div id=""grid-container"">
        <!-- Grid items will be dynamically added here -->
    </div>    ","null","","","","","","","","","","","",""
"","null","html-keyboard-response","96","240145","0.0-11.0-0.2","6vk5B4lUyx","653efdb0f60588dbb6c205cf","6617fad957f7c6a12ea16e26","6622cf97ae72a4821e85b291","fixation cross","null","","","","","","","","","","","",""
"","662","html-keyboard-response","97","240809","0.0-11.0-1.2","6vk5B4lUyx","653efdb0f60588dbb6c205cf","6617fad957f7c6a12ea16e26","6622cf97ae72a4821e85b291","image grid","q","","","","","Ontogenetic_Distractor_Threat_target","2500","ongrid","q","3","Ontogenetic","true","experimental"
"","null","html-keyboard-response","98","240965","0.0-11.0-2.2","6vk5B4lUyx","653efdb0f60588dbb6c205cf","6617fad957f7c6a12ea16e26","6622cf97ae72a4821e85b291","
    <div id=""grid-container"">
        <!-- Grid items will be dynamically added here -->
    </div>    ","null","","","","","","","","","","","",""
"","null","html-keyboard-response","99","241685","0.0-11.0-0.3","6vk5B4lUyx","653efdb0f60588dbb6c205cf","6617fad957f7c6a12ea16e26","6622cf97ae72a4821e85b291","fixation cross","null","","","","","","","","","","","",""
"","186","html-keyboard-response","100","241872","0.0-11.0-1.3","6vk5B4lUyx","653efdb0f60588dbb6c205cf","6617fad957f7c6a12ea16e26","6622cf97ae72a4821e85b291","image grid","p","","","","","Ontogenetic_Distractor_Threat_target","2500","ongrid","q","8","Ontogenetic","false","experimental"
"","null","html-keyboard-response","101","242032","0.0-11.0-2.3","6vk5B4lUyx","653efdb0f60588dbb6c205cf","6617fad957f7c6a12ea16e26","6622cf97ae72a4821e85b291","
    <div id=""grid-container"">
        <!-- Grid items will be dynamically added here -->
    </div>    ","null","","","","","","","","","","","",""
"","null","html-keyboard-response","102","242746","0.0-11.0-0.4","6vk5B4lUyx","653efdb0f60588dbb6c205cf","6617fad957f7c6a12ea16e26","6622cf97ae72a4821e85b291","fixation cross","null","","","","","","","","","","","",""
"","62","html-keyboard-response","103","242809","0.0-11.0-1.4","6vk5B4lUyx","653efdb0f60588dbb6c205cf","6617fad957f7c6a12ea16e26","6622cf97ae72a4821e85b291","image grid","q","","","","","Ontogenetic_Distractor_Threat_target","2500","ongrid","q","6","Ontogenetic","true","experimental"
"","null","html-keyboard-response","104","242961","0.0-11.0-2.4","6vk5B4lUyx","653efdb0f60588dbb6c205cf","6617fad957f7c6a12ea16e26","6622cf97ae72a4821e85b291","
    <div id=""grid-container"">
        <!-- Grid items will be dynamically added here -->
    </div>    ","null","","","","","","","","","","","",""
"","null","html-keyboard-response","105","243667","0.0-11.0-0.5","6vk5B4lUyx","653efdb0f60588dbb6c205cf","6617fad957f7c6a12ea16e26","6622cf97ae72a4821e85b291","fixation cross","null","","","","","","","","","","","",""
"","108","html-keyboard-response","106","243776","0.0-11.0-1.5","6vk5B4lUyx","653efdb0f60588dbb6c205cf","6617fad957f7c6a12ea16e26","6622cf97ae72a4821e85b291","image grid","p","","","","","Ontogenetic_Distractor_Nonthreat_target","2500","ongrid","p","2","Ontogenetic","true","experimental"
"","null","html-keyboard-response","107","243933","0.0-11.0-2.5","6vk5B4lUyx","653efdb0f60588dbb6c205cf","6617fad957f7c6a12ea16e26","6622cf97ae72a4821e85b291","
    <div id=""grid-container"">
        <!-- Grid items will be dynamically added here -->
    </div>    ","null","","","","","","","","","","","",""
"","null","html-keyboard-response","108","244643","0.0-11.0-0.6","6vk5B4lUyx","653efdb0f60588dbb6c205cf","6617fad957f7c6a12ea16e26","6622cf97ae72a4821e85b291","fixation cross","null","","","","","","","","","","","",""
"","509","html-keyboard-response","109","245153","0.0-11.0-1.6","6vk5B4lUyx","653efdb0f60588dbb6c205cf","6617fad957f7c6a12ea16e26","6622cf97ae72a4821e85b291","image grid","q","","","","","Ontogenetic_Distractor_Nonthreat_target","2500","ongrid","p","2","Ontogenetic","false","experimental"
"","null","html-keyboard-response","110","245319","0.0-11.0-2.6","6vk5B4lUyx","653efdb0f60588dbb6c205cf","6617fad957f7c6a12ea16e26","6622cf97ae72a4821e85b291","
    <div id=""grid-container"">
        <!-- Grid items will be dynamically added here -->
    </div>    ","null","","","","","","","","","","","",""
"","null","html-keyboard-response","111","246024","0.0-11.0-0.7","6vk5B4lUyx","653efdb0f60588dbb6c205cf","6617fad957f7c6a12ea16e26","6622cf97ae72a4821e85b291","fixation cross","null","","","","","","","","","","","",""
"","135","html-keyboard-response","112","246160","0.0-11.0-1.7","6vk5B4lUyx","653efdb0f60588dbb6c205cf","6617fad957f7c6a12ea16e26","6622cf97ae72a4821e85b291","image grid","p","","","","","Ontogenetic_Distractor_Threat_target","2500","ongrid","q","3","Ontogenetic","false","experimental"
"","null","html-keyboard-response","113","246321","0.0-11.0-2.7","6vk5B4lUyx","653efdb0f60588dbb6c205cf","6617fad957f7c6a12ea16e26","6622cf97ae72a4821e85b291","
    <div id=""grid-container"">
        <!-- Grid items will be dynamically added here -->
    </div>    ","null","","","","","","","","","","","",""
"","null","html-keyboard-response","114","247037","0.0-11.0-0.8","6vk5B4lUyx","653efdb0f60588dbb6c205cf","6617fad957f7c6a12ea16e26","6622cf97ae72a4821e85b291","fixation cross","null","","","","","","","","","","","",""
"","338","html-keyboard-response","115","247377","0.0-11.0-1.8","6vk5B4lUyx","653efdb0f60588dbb6c205cf","6617fad957f7c6a12ea16e26","6622cf97ae72a4821e85b291","image grid","q","","","","","Ontogenetic_Distractor_Nonthreat_target","2500","ongrid","p","9","Ontogenetic","false","experimental"
"","null","html-keyboard-response","116","247537","0.0-11.0-2.8","6vk5B4lUyx","653efdb0f60588dbb6c205cf","6617fad957f7c6a12ea16e26","6622cf97ae72a4821e85b291","
    <div id=""grid-container"">
        <!-- Grid items will be dynamically added here -->
    </div>    ","null","","","","","","","","","","","",""
"","null","html-keyboard-response","117","248256","0.0-11.0-0.9","6vk5B4lUyx","653efdb0f60588dbb6c205cf","6617fad957f7c6a12ea16e26","6622cf97ae72a4821e85b291","fixation cross","null","","","","","","","","","","","",""
"","439","html-keyboard-response","118","248697","0.0-11.0-1.9","6vk5B4lUyx","653efdb0f60588dbb6c205cf","6617fad957f7c6a12ea16e26","6622cf97ae72a4821e85b291","image grid","p","","","","","Ontogenetic_Distractor_Nonthreat_target","2500","ongrid","p","6","Ontogenetic","true","experimental"
"","null","html-keyboard-response","119","248861","0.0-11.0-2.9","6vk5B4lUyx","653efdb0f60588dbb6c205cf","6617fad957f7c6a12ea16e26","6622cf97ae72a4821e85b291","
    <div id=""grid-container"">
        <!-- Grid items will be dynamically added here -->
    </div>    ","null","","","","","","","","","","","",""
"","null","html-keyboard-response","120","249577","0.0-11.0-0.10","6vk5B4lUyx","653efdb0f60588dbb6c205cf","6617fad957f7c6a12ea16e26","6622cf97ae72a4821e85b291","fixation cross","null","","","","","","","","","","","",""
"","159","html-keyboard-response","121","249738","0.0-11.0-1.10","6vk5B4lUyx","653efdb0f60588dbb6c205cf","6617fad957f7c6a12ea16e26","6622cf97ae72a4821e85b291","image grid","q","","","","","Ontogenetic_Distractor_Nonthreat_target","2500","ongrid","p","3","Ontogenetic","false","experimental"
"","null","html-keyboard-response","122","249892","0.0-11.0-2.10","6vk5B4lUyx","653efdb0f60588dbb6c205cf","6617fad957f7c6a12ea16e26","6622cf97ae72a4821e85b291","
    <div id=""grid-container"">
        <!-- Grid items will be dynamically added here -->
    </div>    ","null","","","","","","","","","","","",""
"","null","html-keyboard-response","123","250612","0.0-11.0-0.11","6vk5B4lUyx","653efdb0f60588dbb6c205cf","6617fad957f7c6a12ea16e26","6622cf97ae72a4821e85b291","fixation cross","null","","","","","","","","","","","",""
"","397","html-keyboard-response","124","251009","0.0-11.0-1.11","6vk5B4lUyx","653efdb0f60588dbb6c205cf","6617fad957f7c6a12ea16e26","6622cf97ae72a4821e85b291","image grid","p","","","","","Ontogenetic_Distractor_Threat_target","2500","ongrid","q","4","Ontogenetic","false","experimental"
"","null","html-keyboard-response","125","251163","0.0-11.0-2.11","6vk5B4lUyx","653efdb0f60588dbb6c205cf","6617fad957f7c6a12ea16e26","6622cf97ae72a4821e85b291","
    <div id=""grid-container"">
        <!-- Grid items will be dynamically added here -->
    </div>    ","null","","","","","","","","","","","",""
"","null","html-keyboard-response","126","251876","0.0-11.0-0.12","6vk5B4lUyx","653efdb0f60588dbb6c205cf","6617fad957f7c6a12ea16e26","6622cf97ae72a4821e85b291","fixation cross","null","","","","","","","","","","","",""
"","316","html-keyboard-response","127","252193","0.0-11.0-1.12","6vk5B4lUyx","653efdb0f60588dbb6c205cf","6617fad957f7c6a12ea16e26","6622cf97ae72a4821e85b291","image grid","p","","","","","Ontogenetic_Distractor_Nonthreat_target","2500","ongrid","p","2","Ontogenetic","true","experimental"
"","null","html-keyboard-response","128","252358","0.0-11.0-2.12","6vk5B4lUyx","653efdb0f60588dbb6c205cf","6617fad957f7c6a12ea16e26","6622cf97ae72a4821e85b291","
    <div id=""grid-container"">
        <!-- Grid items will be dynamically added here -->
    </div>    ","null","","","","","","","","","","","",""
"","null","html-keyboard-response","129","253083","0.0-11.0-0.13","6vk5B4lUyx","653efdb0f60588dbb6c205cf","6617fad957f7c6a12ea16e26","6622cf97ae72a4821e85b291","fixation cross","null","","","","","","","","","","","",""
"","100","html-keyboard-response","130","253185","0.0-11.0-1.13","6vk5B4lUyx","653efdb0f60588dbb6c205cf","6617fad957f7c6a12ea16e26","6622cf97ae72a4821e85b291","image grid","q","","","","","Ontogenetic_Distractor_Threat_target","2500","ongrid","q","6","Ontogenetic","true","experimental"
"","null","html-keyboard-response","131","253345","0.0-11.0-2.13","6vk5B4lUyx","653efdb0f60588dbb6c205cf","6617fad957f7c6a12ea16e26","6622cf97ae72a4821e85b291","
    <div id=""grid-container"">
        <!-- Grid items will be dynamically added here -->
    </div>    ","null","","","","","","","","","","","",""
"","null","html-keyboard-response","132","254056","0.0-11.0-0.14","6vk5B4lUyx","653efdb0f60588dbb6c205cf","6617fad957f7c6a12ea16e26","6622cf97ae72a4821e85b291","fixation cross","null","","","","","","","","","","","",""
"","248","html-keyboard-response","133","254305","0.0-11.0-1.14","6vk5B4lUyx","653efdb0f60588dbb6c205cf","6617fad957f7c6a12ea16e26","6622cf97ae72a4821e85b291","image grid","p","","","","","Ontogenetic_Distractor_Nonthreat_target","2500","ongrid","p","7","Ontogenetic","true","experimental"
"","null","html-keyboard-response","134","254470","0.0-11.0-2.14","6vk5B4lUyx","653efdb0f60588dbb6c205cf","6617fad957f7c6a12ea16e26","6622cf97ae72a4821e85b291","
    <div id=""grid-container"">
        <!-- Grid items will be dynamically added here -->
    </div>    ","null","","","","","","","","","","","",""
"","null","html-keyboard-response","135","255180","0.0-11.0-0.15","6vk5B4lUyx","653efdb0f60588dbb6c205cf","6617fad957f7c6a12ea16e26","6622cf97ae72a4821e85b291","fixation cross","null","","","","","","","","","","","",""
"","109","html-keyboard-response","136","255290","0.0-11.0-1.15","6vk5B4lUyx","653efdb0f60588dbb6c205cf","6617fad957f7c6a12ea16e26","6622cf97ae72a4821e85b291","image grid","p","","","","","Ontogenetic_Distractor_Nonthreat_target","2500","ongrid","p","8","Ontogenetic","true","experimental"
"","null","html-keyboard-response","137","255447","0.0-11.0-2.15","6vk5B4lUyx","653efdb0f60588dbb6c205cf","6617fad957f7c6a12ea16e26","6622cf97ae72a4821e85b291","
    <div id=""grid-container"">
        <!-- Grid items will be dynamically added here -->
    </div>    ","null","","","","","","","","","","","",""
"","null","html-keyboard-response","138","256159","0.0-11.0-0.16","6vk5B4lUyx","653efdb0f60588dbb6c205cf","6617fad957f7c6a12ea16e26","6622cf97ae72a4821e85b291","fixation cross","null","","","","","","","","","","","",""
"","128","html-keyboard-response","139","256288","0.0-11.0-1.16","6vk5B4lUyx","653efdb0f60588dbb6c205cf","6617fad957f7c6a12ea16e26","6622cf97ae72a4821e85b291","image grid","q","","","","","Ontogenetic_Distractor_Nonthreat_target","2500","ongrid","p","1","Ontogenetic","false","experimental"
"","null","html-keyboard-response","140","256446","0.0-11.0-2.16","6vk5B4lUyx","653efdb0f60588dbb6c205cf","6617fad957f7c6a12ea16e26","6622cf97ae72a4821e85b291","
    <div id=""grid-container"">
        <!-- Grid items will be dynamically added here -->
    </div>    ","null","","","","","","","","","","","",""
"","null","html-keyboard-response","141","257172","0.0-11.0-0.17","6vk5B4lUyx","653efdb0f60588dbb6c205cf","6617fad957f7c6a12ea16e26","6622cf97ae72a4821e85b291","fixation cross","null","","","","","","","","","","","",""
"","475","html-keyboard-response","142","257648","0.0-11.0-1.17","6vk5B4lUyx","653efdb0f60588dbb6c205cf","6617fad957f7c6a12ea16e26","6622cf97ae72a4821e85b291","image grid","p","","","","","Ontogenetic_Distractor_Nonthreat_target","2500","ongrid","p","6","Ontogenetic","true","experimental"
"","null","html-keyboard-response","143","257815","0.0-11.0-2.17","6vk5B4lUyx","653efdb0f60588dbb6c205cf","6617fad957f7c6a12ea16e26","6622cf97ae72a4821e85b291","
    <div id=""grid-container"">
        <!-- Grid items will be dynamically added here -->
    </div>    ","null","","","","","","","","","","","",""
"","null","html-keyboard-response","144","258534","0.0-11.0-0.18","6vk5B4lUyx","653efdb0f60588dbb6c205cf","6617fad957f7c6a12ea16e26","6622cf97ae72a4821e85b291","fixation cross","null","","","","","","","","","","","",""
"","729","html-keyboard-response","145","259264","0.0-11.0-1.18","6vk5B4lUyx","653efdb0f60588dbb6c205cf","6617fad957f7c6a12ea16e26","6622cf97ae72a4821e85b291","image grid","q","","","","","Ontogenetic_Distractor_Threat_target","2500","ongrid","q","5","Ontogenetic","true","experimental"
"","null","html-keyboard-response","146","259416","0.0-11.0-2.18","6vk5B4lUyx","653efdb0f60588dbb6c205cf","6617fad957f7c6a12ea16e26","6622cf97ae72a4821e85b291","
    <div id=""grid-container"">
        <!-- Grid items will be dynamically added here -->
    </div>    ","null","","","","","","","","","","","",""
"","null","html-keyboard-response","147","260127","0.0-11.0-0.19","6vk5B4lUyx","653efdb0f60588dbb6c205cf","6617fad957f7c6a12ea16e26","6622cf97ae72a4821e85b291","fixation cross","null","","","","","","","","","","","",""
"","1359","html-keyboard-response","148","261488","0.0-11.0-1.19","6vk5B4lUyx","653efdb0f60588dbb6c205cf","6617fad957f7c6a12ea16e26","6622cf97ae72a4821e85b291","image grid","q","","","","","Ontogenetic_Distractor_Threat_target","2500","ongrid","q","8","Ontogenetic","true","experimental"
"","null","html-keyboard-response","149","261640","0.0-11.0-2.19","6vk5B4lUyx","653efdb0f60588dbb6c205cf","6617fad957f7c6a12ea16e26","6622cf97ae72a4821e85b291","
    <div id=""grid-container"">
        <!-- Grid items will be dynamically added here -->
    </div>    ","null","","","","","","","","","","","",""
"","null","html-keyboard-response","150","262357","0.0-11.0-0.20","6vk5B4lUyx","653efdb0f60588dbb6c205cf","6617fad957f7c6a12ea16e26","6622cf97ae72a4821e85b291","fixation cross","null","","","","","","","","","","","",""
"","345","html-keyboard-response","151","262704","0.0-11.0-1.20","6vk5B4lUyx","653efdb0f60588dbb6c205cf","6617fad957f7c6a12ea16e26","6622cf97ae72a4821e85b291","image grid","p","","","","","Ontogenetic_Distractor_Threat_target","2500","ongrid","q","3","Ontogenetic","false","experimental"
"","null","html-keyboard-response","152","262869","0.0-11.0-2.20","6vk5B4lUyx","653efdb0f60588dbb6c205cf","6617fad957f7c6a12ea16e26","6622cf97ae72a4821e85b291","
    <div id=""grid-container"">
        <!-- Grid items will be dynamically added here -->
    </div>    ","null","","","","","","","","","","","",""
"","105","html-keyboard-response","153","263591","0.0-11.0-0.21","6vk5B4lUyx","653efdb0f60588dbb6c205cf","6617fad957f7c6a12ea16e26","6622cf97ae72a4821e85b291","fixation cross","p","","","","","","","","","","","",""
"","743","html-keyboard-response","154","264335","0.0-11.0-1.21","6vk5B4lUyx","653efdb0f60588dbb6c205cf","6617fad957f7c6a12ea16e26","6622cf97ae72a4821e85b291","image grid","q","","","","","Ontogenetic_Distractor_Threat_target","2500","ongrid","q","3","Ontogenetic","true","experimental"
"","null","html-keyboard-response","155","264489","0.0-11.0-2.21","6vk5B4lUyx","653efdb0f60588dbb6c205cf","6617fad957f7c6a12ea16e26","6622cf97ae72a4821e85b291","
    <div id=""grid-container"">
        <!-- Grid items will be dynamically added here -->
    </div>    ","null","","","","","","","","","","","",""
"","null","html-keyboard-response","156","265220","0.0-11.0-0.22","6vk5B4lUyx","653efdb0f60588dbb6c205cf","6617fad957f7c6a12ea16e26","6622cf97ae72a4821e85b291","fixation cross","null","","","","","","","","","","","",""
"","500","html-keyboard-response","157","265722","0.0-11.0-1.22","6vk5B4lUyx","653efdb0f60588dbb6c205cf","6617fad957f7c6a12ea16e26","6622cf97ae72a4821e85b291","image grid","p","","","","","Ontogenetic_Distractor_notarget","2500","ongrid"," ","5","Ontogenetic","false","experimental"
"","null","html-keyboard-response","158","265889","0.0-11.0-2.22","6vk5B4lUyx","653efdb0f60588dbb6c205cf","6617fad957f7c6a12ea16e26","6622cf97ae72a4821e85b291","
    <div id=""grid-container"">
        <!-- Grid items will be dynamically added here -->
    </div>    ","null","","","","","","","","","","","",""
"","null","html-keyboard-response","159","266605","0.0-11.0-0.23","6vk5B4lUyx","653efdb0f60588dbb6c205cf","6617fad957f7c6a12ea16e26","6622cf97ae72a4821e85b291","fixation cross","null","","","","","","","","","","","",""
"","203","html-keyboard-response","160","266809","0.0-11.0-1.23","6vk5B4lUyx","653efdb0f60588dbb6c205cf","6617fad957f7c6a12ea16e26","6622cf97ae72a4821e85b291","image grid","q","","","","","Ontogenetic_Distractor_Nonthreat_target","2500","ongrid","p","3","Ontogenetic","false","experimental"
"","null","html-keyboard-response","161","266974","0.0-11.0-2.23","6vk5B4lUyx","653efdb0f60588dbb6c205cf","6617fad957f7c6a12ea16e26","6622cf97ae72a4821e85b291","
    <div id=""grid-container"">
        <!-- Grid items will be dynamically added here -->
    </div>    ","null","","","","","","","","","","","",""
"","null","html-keyboard-response","162","267682","0.0-11.0-0.24","6vk5B4lUyx","653efdb0f60588dbb6c205cf","6617fad957f7c6a12ea16e26","6622cf97ae72a4821e85b291","fixation cross","null","","","","","","","","","","","",""
"","381","html-keyboard-response","163","268065","0.0-11.0-1.24","6vk5B4lUyx","653efdb0f60588dbb6c205cf","6617fad957f7c6a12ea16e26","6622cf97ae72a4821e85b291","image grid","p","","","","","Ontogenetic_Distractor_Threat_target","2500","ongrid","q","6","Ontogenetic","false","experimental"
"","null","html-keyboard-response","164","268226","0.0-11.0-2.24","6vk5B4lUyx","653efdb0f60588dbb6c205cf","6617fad957f7c6a12ea16e26","6622cf97ae72a4821e85b291","
    <div id=""grid-container"">
        <!-- Grid items will be dynamically added here -->
    </div>    ","null","","","","","","","","","","","",""
"","null","html-keyboard-response","165","268950","0.0-11.0-0.25","6vk5B4lUyx","653efdb0f60588dbb6c205cf","6617fad957f7c6a12ea16e26","6622cf97ae72a4821e85b291","fixation cross","null","","","","","","","","","","","",""
"","10","html-keyboard-response","166","268961","0.0-11.0-1.25","6vk5B4lUyx","653efdb0f60588dbb6c205cf","6617fad957f7c6a12ea16e26","6622cf97ae72a4821e85b291","image grid","p","","","","","Ontogenetic_Distractor_Nonthreat_target","2500","ongrid","p","8","Ontogenetic","true","experimental"
"","86","html-keyboard-response","167","269113","0.0-11.0-2.25","6vk5B4lUyx","653efdb0f60588dbb6c205cf","6617fad957f7c6a12ea16e26","6622cf97ae72a4821e85b291","
    <div id=""grid-container"">
        <!-- Grid items will be dynamically added here -->
    </div>    ","q","","","","","","","","","","","",""
"","null","html-keyboard-response","168","269831","0.0-11.0-0.26","6vk5B4lUyx","653efdb0f60588dbb6c205cf","6617fad957f7c6a12ea16e26","6622cf97ae72a4821e85b291","fixation cross","null","","","","","","","","","","","",""
"","209","html-keyboard-response","169","270040","0.0-11.0-1.26","6vk5B4lUyx","653efdb0f60588dbb6c205cf","6617fad957f7c6a12ea16e26","6622cf97ae72a4821e85b291","image grid","q","","","","","Ontogenetic_Distractor_Threat_target","2500","ongrid","q","5","Ontogenetic","true","experimental"
"","null","html-keyboard-response","170","270195","0.0-11.0-2.26","6vk5B4lUyx","653efdb0f60588dbb6c205cf","6617fad957f7c6a12ea16e26","6622cf97ae72a4821e85b291","
    <div id=""grid-container"">
        <!-- Grid items will be dynamically added here -->
    </div>    ","null","","","","","","","","","","","",""
"","null","html-keyboard-response","171","270920","0.0-11.0-0.27","6vk5B4lUyx","653efdb0f60588dbb6c205cf","6617fad957f7c6a12ea16e26","6622cf97ae72a4821e85b291","fixation cross","null","","","","","","","","","","","",""
"","136","html-keyboard-response","172","271057","0.0-11.0-1.27","6vk5B4lUyx","653efdb0f60588dbb6c205cf","6617fad957f7c6a12ea16e26","6622cf97ae72a4821e85b291","image grid","q","","","","","Ontogenetic_Distractor_notarget","2500","ongrid"," ","8","Ontogenetic","false","experimental"
"","null","html-keyboard-response","173","271213","0.0-11.0-2.27","6vk5B4lUyx","653efdb0f60588dbb6c205cf","6617fad957f7c6a12ea16e26","6622cf97ae72a4821e85b291","
    <div id=""grid-container"">
        <!-- Grid items will be dynamically added here -->
    </div>    ","null","","","","","","","","","","","",""
"","null","html-keyboard-response","174","271928","0.0-11.0-0.28","6vk5B4lUyx","653efdb0f60588dbb6c205cf","6617fad957f7c6a12ea16e26","6622cf97ae72a4821e85b291","fixation cross","null","","","","","","","","","","","",""
"","153","html-keyboard-response","175","272082","0.0-11.0-1.28","6vk5B4lUyx","653efdb0f60588dbb6c205cf","6617fad957f7c6a12ea16e26","6622cf97ae72a4821e85b291","image grid","q","","","","","Ontogenetic_Distractor_notarget","2500","ongrid"," ","7","Ontogenetic","false","experimental"
"","null","html-keyboard-response","176","272241","0.0-11.0-2.28","6vk5B4lUyx","653efdb0f60588dbb6c205cf","6617fad957f7c6a12ea16e26","6622cf97ae72a4821e85b291","
    <div id=""grid-container"">
        <!-- Grid items will be dynamically added here -->
    </div>    ","null","","","","","","","","","","","",""
"","null","html-keyboard-response","177","272973","0.0-11.0-0.29","6vk5B4lUyx","653efdb0f60588dbb6c205cf","6617fad957f7c6a12ea16e26","6622cf97ae72a4821e85b291","fixation cross","null","","","","","","","","","","","",""
"","42","html-keyboard-response","178","273016","0.0-11.0-1.29","6vk5B4lUyx","653efdb0f60588dbb6c205cf","6617fad957f7c6a12ea16e26","6622cf97ae72a4821e85b291","image grid","q","","","","","Ontogenetic_Distractor_Nonthreat_target","2500","ongrid","p","9","Ontogenetic","false","experimental"
"","null","html-keyboard-response","179","273180","0.0-11.0-2.29","6vk5B4lUyx","653efdb0f60588dbb6c205cf","6617fad957f7c6a12ea16e26","6622cf97ae72a4821e85b291","
    <div id=""grid-container"">
        <!-- Grid items will be dynamically added here -->
    </div>    ","null","","","","","","","","","","","",""
"","null","html-keyboard-response","180","273898","0.0-11.0-0.30","6vk5B4lUyx","653efdb0f60588dbb6c205cf","6617fad957f7c6a12ea16e26","6622cf97ae72a4821e85b291","fixation cross","null","","","","","","","","","","","",""
"","86","html-keyboard-response","181","273985","0.0-11.0-1.30","6vk5B4lUyx","653efdb0f60588dbb6c205cf","6617fad957f7c6a12ea16e26","6622cf97ae72a4821e85b291","image grid","q","","","","","Ontogenetic_Distractor_Threat_target","2500","ongrid","q","4","Ontogenetic","true","experimental"
"","null","html-keyboard-response","182","274148","0.0-11.0-2.30","6vk5B4lUyx","653efdb0f60588dbb6c205cf","6617fad957f7c6a12ea16e26","6622cf97ae72a4821e85b291","
    <div id=""grid-container"">
        <!-- Grid items will be dynamically added here -->
    </div>    ","null","","","","","","","","","","","",""
"","null","html-keyboard-response","183","274866","0.0-11.0-0.31","6vk5B4lUyx","653efdb0f60588dbb6c205cf","6617fad957f7c6a12ea16e26","6622cf97ae72a4821e85b291","fixation cross","null","","","","","","","","","","","",""
"","534","html-keyboard-response","184","275401","0.0-11.0-1.31","6vk5B4lUyx","653efdb0f60588dbb6c205cf","6617fad957f7c6a12ea16e26","6622cf97ae72a4821e85b291","image grid","q","","","","","Ontogenetic_Distractor_Nonthreat_target","2500","ongrid","p","8","Ontogenetic","false","experimental"
"","null","html-keyboard-response","185","275561","0.0-11.0-2.31","6vk5B4lUyx","653efdb0f60588dbb6c205cf","6617fad957f7c6a12ea16e26","6622cf97ae72a4821e85b291","
    <div id=""grid-container"">
        <!-- Grid items will be dynamically added here -->
    </div>    ","null","","","","","","","","","","","",""
"","null","html-keyboard-response","186","276276","0.0-11.0-0.32","6vk5B4lUyx","653efdb0f60588dbb6c205cf","6617fad957f7c6a12ea16e26","6622cf97ae72a4821e85b291","fixation cross","null","","","","","","","","","","","",""
"","325","html-keyboard-response","187","276602","0.0-11.0-1.32","6vk5B4lUyx","653efdb0f60588dbb6c205cf","6617fad957f7c6a12ea16e26","6622cf97ae72a4821e85b291","image grid","p","","","","","Ontogenetic_Distractor_notarget","2500","ongrid"," ","9","Ontogenetic","false","experimental"
"","null","html-keyboard-response","188","276770","0.0-11.0-2.32","6vk5B4lUyx","653efdb0f60588dbb6c205cf","6617fad957f7c6a12ea16e26","6622cf97ae72a4821e85b291","
    <div id=""grid-container"">
        <!-- Grid items will be dynamically added here -->
    </div>    ","null","","","","","","","","","","","",""
"","null","html-keyboard-response","189","277483","0.0-11.0-0.33","6vk5B4lUyx","653efdb0f60588dbb6c205cf","6617fad957f7c6a12ea16e26","6622cf97ae72a4821e85b291","fixation cross","null","","","","","","","","","","","",""
"","117","html-keyboard-response","190","277601","0.0-11.0-1.33","6vk5B4lUyx","653efdb0f60588dbb6c205cf","6617fad957f7c6a12ea16e26","6622cf97ae72a4821e85b291","image grid","q","","","","","Ontogenetic_Distractor_Threat_target","2500","ongrid","q","8","Ontogenetic","true","experimental"
"","null","html-keyboard-response","191","277760","0.0-11.0-2.33","6vk5B4lUyx","653efdb0f60588dbb6c205cf","6617fad957f7c6a12ea16e26","6622cf97ae72a4821e85b291","
    <div id=""grid-container"">
        <!-- Grid items will be dynamically added here -->
    </div>    ","null","","","","","","","","","","","",""
"","null","html-keyboard-response","192","278475","0.0-11.0-0.34","6vk5B4lUyx","653efdb0f60588dbb6c205cf","6617fad957f7c6a12ea16e26","6622cf97ae72a4821e85b291","fixation cross","null","","","","","","","","","","","",""
"","245","html-keyboard-response","193","278721","0.0-11.0-1.34","6vk5B4lUyx","653efdb0f60588dbb6c205cf","6617fad957f7c6a12ea16e26","6622cf97ae72a4821e85b291","image grid","q","","","","","Ontogenetic_Distractor_Nonthreat_target","2500","ongrid","p","2","Ontogenetic","false","experimental"
"","null","html-keyboard-response","194","278887","0.0-11.0-2.34","6vk5B4lUyx","653efdb0f60588dbb6c205cf","6617fad957f7c6a12ea16e26","6622cf97ae72a4821e85b291","
    <div id=""grid-container"">
        <!-- Grid items will be dynamically added here -->
    </div>    ","null","","","","","","","","","","","",""
"","null","html-keyboard-response","195","279604","0.0-11.0-0.35","6vk5B4lUyx","653efdb0f60588dbb6c205cf","6617fad957f7c6a12ea16e26","6622cf97ae72a4821e85b291","fixation cross","null","","","","","","","","","","","",""
"","283","html-keyboard-response","196","279889","0.0-11.0-1.35","6vk5B4lUyx","653efdb0f60588dbb6c205cf","6617fad957f7c6a12ea16e26","6622cf97ae72a4821e85b291","image grid","p","","","","","Ontogenetic_Distractor_Nonthreat_target","2500","ongrid","p","9","Ontogenetic","true","experimental"
"","null","html-keyboard-response","197","280049","0.0-11.0-2.35","6vk5B4lUyx","653efdb0f60588dbb6c205cf","6617fad957f7c6a12ea16e26","6622cf97ae72a4821e85b291","
    <div id=""grid-container"">
        <!-- Grid items will be dynamically added here -->
    </div>    ","null","","","","","","","","","","","",""
"","null","html-keyboard-response","198","280767","0.0-11.0-0.36","6vk5B4lUyx","653efdb0f60588dbb6c205cf","6617fad957f7c6a12ea16e26","6622cf97ae72a4821e85b291","fixation cross","null","","","","","","","","","","","",""
"","88","html-keyboard-response","199","280857","0.0-11.0-1.36","6vk5B4lUyx","653efdb0f60588dbb6c205cf","6617fad957f7c6a12ea16e26","6622cf97ae72a4821e85b291","image grid","q","","","","","Ontogenetic_Distractor_Threat_target","2500","ongrid","q","4","Ontogenetic","true","experimental"
"","null","html-keyboard-response","200","281022","0.0-11.0-2.36","6vk5B4lUyx","653efdb0f60588dbb6c205cf","6617fad957f7c6a12ea16e26","6622cf97ae72a4821e85b291","
    <div id=""grid-container"">
        <!-- Grid items will be dynamically added here -->
    </div>    ","null","","","","","","","","","","","",""
"","null","html-keyboard-response","201","281750","0.0-11.0-0.37","6vk5B4lUyx","653efdb0f60588dbb6c205cf","6617fad957f7c6a12ea16e26","6622cf97ae72a4821e85b291","fixation cross","null","","","","","","","","","","","",""
"","433","html-keyboard-response","202","282184","0.0-11.0-1.37","6vk5B4lUyx","653efdb0f60588dbb6c205cf","6617fad957f7c6a12ea16e26","6622cf97ae72a4821e85b291","image grid","q","","","","","Ontogenetic_Distractor_Nonthreat_target","2500","ongrid","p","5","Ontogenetic","false","experimental"
"","null","html-keyboard-response","203","282340","0.0-11.0-2.37","6vk5B4lUyx","653efdb0f60588dbb6c205cf","6617fad957f7c6a12ea16e26","6622cf97ae72a4821e85b291","
    <div id=""grid-container"">
        <!-- Grid items will be dynamically added here -->
    </div>    ","null","","","","","","","","","","","",""
"","null","html-keyboard-response","204","283064","0.0-11.0-0.38","6vk5B4lUyx","653efdb0f60588dbb6c205cf","6617fad957f7c6a12ea16e26","6622cf97ae72a4821e85b291","fixation cross","null","","","","","","","","","","","",""
"","782","html-keyboard-response","205","283849","0.0-11.0-1.38","6vk5B4lUyx","653efdb0f60588dbb6c205cf","6617fad957f7c6a12ea16e26","6622cf97ae72a4821e85b291","image grid","p","","","","","Ontogenetic_Distractor_Threat_target","2500","ongrid","q","7","Ontogenetic","false","experimental"
"","null","html-keyboard-response","206","284008","0.0-11.0-2.38","6vk5B4lUyx","653efdb0f60588dbb6c205cf","6617fad957f7c6a12ea16e26","6622cf97ae72a4821e85b291","
    <div id=""grid-container"">
        <!-- Grid items will be dynamically added here -->
    </div>    ","null","","","","","","","","","","","",""
"","null","html-keyboard-response","207","284725","0.0-11.0-0.39","6vk5B4lUyx","653efdb0f60588dbb6c205cf","6617fad957f7c6a12ea16e26","6622cf97ae72a4821e85b291","fixation cross","null","","","","","","","","","","","",""
"","1011","html-keyboard-response","208","285737","0.0-11.0-1.39","6vk5B4lUyx","653efdb0f60588dbb6c205cf","6617fad957f7c6a12ea16e26","6622cf97ae72a4821e85b291","image grid","p","","","","","Ontogenetic_Distractor_Threat_target","2500","ongrid","q","5","Ontogenetic","false","experimental"
"","null","html-keyboard-response","209","285902","0.0-11.0-2.39","6vk5B4lUyx","653efdb0f60588dbb6c205cf","6617fad957f7c6a12ea16e26","6622cf97ae72a4821e85b291","
    <div id=""grid-container"">
        <!-- Grid items will be dynamically added here -->
    </div>    ","null","","","","","","","","","","","",""
"","54660","html-keyboard-response","210","340833","0.0-12.0","6vk5B4lUyx","653efdb0f60588dbb6c205cf","6617fad957f7c6a12ea16e26","6622cf97ae72a4821e85b291","break screen","q","","","","","","","","","","","",""
"","398","html-keyboard-response","211","343392","0.0-13.0-0.0","6vk5B4lUyx","653efdb0f60588dbb6c205cf","6617fad957f7c6a12ea16e26","6622cf97ae72a4821e85b291","fixation cross","p","","","","","","","","","","","",""
"","975","html-keyboard-response","212","344369","0.0-13.0-1.0","6vk5B4lUyx","653efdb0f60588dbb6c205cf","6617fad957f7c6a12ea16e26","6622cf97ae72a4821e85b291","image grid","p","","","","","Phylogenetic_Distractor_Nonthreat_target","2500","ongrid","p","2","Phylogenetic","true","experimental"
"","null","html-keyboard-response","213","344541","0.0-13.0-2.0","6vk5B4lUyx","653efdb0f60588dbb6c205cf","6617fad957f7c6a12ea16e26","6622cf97ae72a4821e85b291","
    <div id=""grid-container"">
        <!-- Grid items will be dynamically added here -->
    </div>    ","null","","","","","","","","","","","",""
"","null","html-keyboard-response","214","345272","0.0-13.0-0.1","6vk5B4lUyx","653efdb0f60588dbb6c205cf","6617fad957f7c6a12ea16e26","6622cf97ae72a4821e85b291","fixation cross","null","","","","","","","","","","","",""
"","1007","html-keyboard-response","215","346280","0.0-13.0-1.1","6vk5B4lUyx","653efdb0f60588dbb6c205cf","6617fad957f7c6a12ea16e26","6622cf97ae72a4821e85b291","image grid","q","","","","","Phylogenetic_Distractor_Nonthreat_target","2500","ongrid","p","3","Phylogenetic","false","experimental"
"","null","html-keyboard-response","216","346435","0.0-13.0-2.1","6vk5B4lUyx","653efdb0f60588dbb6c205cf","6617fad957f7c6a12ea16e26","6622cf97ae72a4821e85b291","
    <div id=""grid-container"">
        <!-- Grid items will be dynamically added here -->
    </div>    ","null","","","","","","","","","","","",""
"","null","html-keyboard-response","217","347162","0.0-13.0-0.2","6vk5B4lUyx","653efdb0f60588dbb6c205cf","6617fad957f7c6a12ea16e26","6622cf97ae72a4821e85b291","fixation cross","null","","","","","","","","","","","",""
"","262","html-keyboard-response","218","347425","0.0-13.0-1.2","6vk5B4lUyx","653efdb0f60588dbb6c205cf","6617fad957f7c6a12ea16e26","6622cf97ae72a4821e85b291","image grid","p","","","","","Phylogenetic_Distractor_Threat_target","2500","ongrid","q","6","Phylogenetic","false","experimental"
"","null","html-keyboard-response","219","347588","0.0-13.0-2.2","6vk5B4lUyx","653efdb0f60588dbb6c205cf","6617fad957f7c6a12ea16e26","6622cf97ae72a4821e85b291","
    <div id=""grid-container"">
        <!-- Grid items will be dynamically added here -->
    </div>    ","null","","","","","","","","","","","",""
"","null","html-keyboard-response","220","348305","0.0-13.0-0.3","6vk5B4lUyx","653efdb0f60588dbb6c205cf","6617fad957f7c6a12ea16e26","6622cf97ae72a4821e85b291","fixation cross","null","","","","","","","","","","","",""
"","120","html-keyboard-response","221","348426","0.0-13.0-1.3","6vk5B4lUyx","653efdb0f60588dbb6c205cf","6617fad957f7c6a12ea16e26","6622cf97ae72a4821e85b291","image grid","p","","","","","Phylogenetic_Distractor_Nonthreat_target","2500","ongrid","p","8","Phylogenetic","true","experimental"
"","null","html-keyboard-response","222","348589","0.0-13.0-2.3","6vk5B4lUyx","653efdb0f60588dbb6c205cf","6617fad957f7c6a12ea16e26","6622cf97ae72a4821e85b291","
    <div id=""grid-container"">
        <!-- Grid items will be dynamically added here -->
    </div>    ","null","","","","","","","","","","","",""
"","null","html-keyboard-response","223","349297","0.0-13.0-0.4","6vk5B4lUyx","653efdb0f60588dbb6c205cf","6617fad957f7c6a12ea16e26","6622cf97ae72a4821e85b291","fixation cross","null","","","","","","","","","","","",""
"","104","html-keyboard-response","224","349402","0.0-13.0-1.4","6vk5B4lUyx","653efdb0f60588dbb6c205cf","6617fad957f7c6a12ea16e26","6622cf97ae72a4821e85b291","image grid","q","","","","","Phylogenetic_Distractor_Nonthreat_target","2500","ongrid","p","9","Phylogenetic","false","experimental"
"","null","html-keyboard-response","225","349558","0.0-13.0-2.4","6vk5B4lUyx","653efdb0f60588dbb6c205cf","6617fad957f7c6a12ea16e26","6622cf97ae72a4821e85b291","
    <div id=""grid-container"">
        <!-- Grid items will be dynamically added here -->
    </div>    ","null","","","","","","","","","","","",""
"","null","html-keyboard-response","226","350280","0.0-13.0-0.5","6vk5B4lUyx","653efdb0f60588dbb6c205cf","6617fad957f7c6a12ea16e26","6622cf97ae72a4821e85b291","fixation cross","null","","","","","","","","","","","",""
"","48","html-keyboard-response","227","350328","0.0-13.0-1.5","6vk5B4lUyx","653efdb0f60588dbb6c205cf","6617fad957f7c6a12ea16e26","6622cf97ae72a4821e85b291","image grid","p","","","","","Phylogenetic_Distractor_Nonthreat_target","2500","ongrid","p","8","Phylogenetic","true","experimental"
"","null","html-keyboard-response","228","350489","0.0-13.0-2.5","6vk5B4lUyx","653efdb0f60588dbb6c205cf","6617fad957f7c6a12ea16e26","6622cf97ae72a4821e85b291","
    <div id=""grid-container"">
        <!-- Grid items will be dynamically added here -->
    </div>    ","null","","","","","","","","","","","",""
"","null","html-keyboard-response","229","351210","0.0-13.0-0.6","6vk5B4lUyx","653efdb0f60588dbb6c205cf","6617fad957f7c6a12ea16e26","6622cf97ae72a4821e85b291","fixation cross","null","","","","","","","","","","","",""
"","342","html-keyboard-response","230","351553","0.0-13.0-1.6","6vk5B4lUyx","653efdb0f60588dbb6c205cf","6617fad957f7c6a12ea16e26","6622cf97ae72a4821e85b291","image grid","p","","","","","Phylogenetic_Distractor_Nonthreat_target","2500","ongrid","p","5","Phylogenetic","true","experimental"
"","null","html-keyboard-response","231","351709","0.0-13.0-2.6","6vk5B4lUyx","653efdb0f60588dbb6c205cf","6617fad957f7c6a12ea16e26","6622cf97ae72a4821e85b291","
    <div id=""grid-container"">
        <!-- Grid items will be dynamically added here -->
    </div>    ","null","","","","","","","","","","","",""
"","null","html-keyboard-response","232","352426","0.0-13.0-0.7","6vk5B4lUyx","653efdb0f60588dbb6c205cf","6617fad957f7c6a12ea16e26","6622cf97ae72a4821e85b291","fixation cross","null","","","","","","","","","","","",""
"","13","html-keyboard-response","233","352439","0.0-13.0-1.7","6vk5B4lUyx","653efdb0f60588dbb6c205cf","6617fad957f7c6a12ea16e26","6622cf97ae72a4821e85b291","image grid","q","","","","","Phylogenetic_Distractor_Threat_target","2500","ongrid","q","7","Phylogenetic","true","experimental"
"","null","html-keyboard-response","234","352593","0.0-13.0-2.7","6vk5B4lUyx","653efdb0f60588dbb6c205cf","6617fad957f7c6a12ea16e26","6622cf97ae72a4821e85b291","
    <div id=""grid-container"">
        <!-- Grid items will be dynamically added here -->
    </div>    ","null","","","","","","","","","","","",""
"","null","html-keyboard-response","235","353303","0.0-13.0-0.8","6vk5B4lUyx","653efdb0f60588dbb6c205cf","6617fad957f7c6a12ea16e26","6622cf97ae72a4821e85b291","fixation cross","null","","","","","","","","","","","",""
"","832","html-keyboard-response","236","354137","0.0-13.0-1.8","6vk5B4lUyx","653efdb0f60588dbb6c205cf","6617fad957f7c6a12ea16e26","6622cf97ae72a4821e85b291","image grid","p","","","","","Phylogenetic_Distractor_Threat_target","2500","ongrid","q","2","Phylogenetic","false","experimental"
"","null","html-keyboard-response","237","354294","0.0-13.0-2.8","6vk5B4lUyx","653efdb0f60588dbb6c205cf","6617fad957f7c6a12ea16e26","6622cf97ae72a4821e85b291","
    <div id=""grid-container"">
        <!-- Grid items will be dynamically added here -->
    </div>    ","null","","","","","","","","","","","",""
"","null","html-keyboard-response","238","355015","0.0-13.0-0.9","6vk5B4lUyx","653efdb0f60588dbb6c205cf","6617fad957f7c6a12ea16e26","6622cf97ae72a4821e85b291","fixation cross","null","","","","","","","","","","","",""
"","1024","html-keyboard-response","239","356040","0.0-13.0-1.9","6vk5B4lUyx","653efdb0f60588dbb6c205cf","6617fad957f7c6a12ea16e26","6622cf97ae72a4821e85b291","image grid","p","","","","","Phylogenetic_Distractor_Threat_target","2500","ongrid","q","6","Phylogenetic","false","experimental"
"","null","html-keyboard-response","240","356198","0.0-13.0-2.9","6vk5B4lUyx","653efdb0f60588dbb6c205cf","6617fad957f7c6a12ea16e26","6622cf97ae72a4821e85b291","
    <div id=""grid-container"">
        <!-- Grid items will be dynamically added here -->
    </div>    ","null","","","","","","","","","","","",""
"","null","html-keyboard-response","241","356919","0.0-13.0-0.10","6vk5B4lUyx","653efdb0f60588dbb6c205cf","6617fad957f7c6a12ea16e26","6622cf97ae72a4821e85b291","fixation cross","null","","","","","","","","","","","",""
"","768","html-keyboard-response","242","357688","0.0-13.0-1.10","6vk5B4lUyx","653efdb0f60588dbb6c205cf","6617fad957f7c6a12ea16e26","6622cf97ae72a4821e85b291","image grid","p","","","","","Phylogenetic_Distractor_Threat_target","2500","ongrid","q","8","Phylogenetic","false","experimental"
"","null","html-keyboard-response","243","357848","0.0-13.0-2.10","6vk5B4lUyx","653efdb0f60588dbb6c205cf","6617fad957f7c6a12ea16e26","6622cf97ae72a4821e85b291","
    <div id=""grid-container"">
        <!-- Grid items will be dynamically added here -->
    </div>    ","null","","","","","","","","","","","",""
"","null","html-keyboard-response","244","358568","0.0-13.0-0.11","6vk5B4lUyx","653efdb0f60588dbb6c205cf","6617fad957f7c6a12ea16e26","6622cf97ae72a4821e85b291","fixation cross","null","","","","","","","","","","","",""
"","1096","html-keyboard-response","245","359665","0.0-13.0-1.11","6vk5B4lUyx","653efdb0f60588dbb6c205cf","6617fad957f7c6a12ea16e26","6622cf97ae72a4821e85b291","image grid","q","","","","","Phylogenetic_Distractor_Nonthreat_target","2500","ongrid","p","2","Phylogenetic","false","experimental"
"","null","html-keyboard-response","246","359823","0.0-13.0-2.11","6vk5B4lUyx","653efdb0f60588dbb6c205cf","6617fad957f7c6a12ea16e26","6622cf97ae72a4821e85b291","
    <div id=""grid-container"">
        <!-- Grid items will be dynamically added here -->
    </div>    ","null","","","","","","","","","","","",""
"","null","html-keyboard-response","247","360549","0.0-13.0-0.12","6vk5B4lUyx","653efdb0f60588dbb6c205cf","6617fad957f7c6a12ea16e26","6622cf97ae72a4821e85b291","fixation cross","null","","","","","","","","","","","",""
"","916","html-keyboard-response","248","361465","0.0-13.0-1.12","6vk5B4lUyx","653efdb0f60588dbb6c205cf","6617fad957f7c6a12ea16e26","6622cf97ae72a4821e85b291","image grid","p","","","","","Phylogenetic_Distractor_Threat_target","2500","ongrid","q","6","Phylogenetic","false","experimental"
"","null","html-keyboard-response","249","361627","0.0-13.0-2.12","6vk5B4lUyx","653efdb0f60588dbb6c205cf","6617fad957f7c6a12ea16e26","6622cf97ae72a4821e85b291","
    <div id=""grid-container"">
        <!-- Grid items will be dynamically added here -->
    </div>    ","null","","","","","","","","","","","",""
"","null","html-keyboard-response","250","362345","0.0-13.0-0.13","6vk5B4lUyx","653efdb0f60588dbb6c205cf","6617fad957f7c6a12ea16e26","6622cf97ae72a4821e85b291","fixation cross","null","","","","","","","","","","","",""
"","1022","html-keyboard-response","251","363368","0.0-13.0-1.13","6vk5B4lUyx","653efdb0f60588dbb6c205cf","6617fad957f7c6a12ea16e26","6622cf97ae72a4821e85b291","image grid","q","","","","","Phylogenetic_Distractor_Nonthreat_target","2500","ongrid","p","1","Phylogenetic","false","experimental"
"","null","html-keyboard-response","252","363519","0.0-13.0-2.13","6vk5B4lUyx","653efdb0f60588dbb6c205cf","6617fad957f7c6a12ea16e26","6622cf97ae72a4821e85b291","
    <div id=""grid-container"">
        <!-- Grid items will be dynamically added here -->
    </div>    ","null","","","","","","","","","","","",""
"","null","html-keyboard-response","253","364241","0.0-13.0-0.14","6vk5B4lUyx","653efdb0f60588dbb6c205cf","6617fad957f7c6a12ea16e26","6622cf97ae72a4821e85b291","fixation cross","null","","","","","","","","","","","",""
"","758","html-keyboard-response","254","364999","0.0-13.0-1.14","6vk5B4lUyx","653efdb0f60588dbb6c205cf","6617fad957f7c6a12ea16e26","6622cf97ae72a4821e85b291","image grid","p","","","","","Phylogenetic_Distractor_Threat_target","2500","ongrid","q","8","Phylogenetic","false","experimental"
"","null","html-keyboard-response","255","365155","0.0-13.0-2.14","6vk5B4lUyx","653efdb0f60588dbb6c205cf","6617fad957f7c6a12ea16e26","6622cf97ae72a4821e85b291","
    <div id=""grid-container"">
        <!-- Grid items will be dynamically added here -->
    </div>    ","null","","","","","","","","","","","",""
"","null","html-keyboard-response","256","365880","0.0-13.0-0.15","6vk5B4lUyx","653efdb0f60588dbb6c205cf","6617fad957f7c6a12ea16e26","6622cf97ae72a4821e85b291","fixation cross","null","","","","","","","","","","","",""
"","2159","html-keyboard-response","257","368040","0.0-13.0-1.15","6vk5B4lUyx","653efdb0f60588dbb6c205cf","6617fad957f7c6a12ea16e26","6622cf97ae72a4821e85b291","image grid","p","","","","","Phylogenetic_Distractor_notarget","2500","ongrid"," ","6","Phylogenetic","false","experimental"
"","null","html-keyboard-response","258","368191","0.0-13.0-2.15","6vk5B4lUyx","653efdb0f60588dbb6c205cf","6617fad957f7c6a12ea16e26","6622cf97ae72a4821e85b291","
    <div id=""grid-container"">
        <!-- Grid items will be dynamically added here -->
    </div>    ","null","","","","","","","","","","","",""
"","null","html-keyboard-response","259","368915","0.0-13.0-0.16","6vk5B4lUyx","653efdb0f60588dbb6c205cf","6617fad957f7c6a12ea16e26","6622cf97ae72a4821e85b291","fixation cross","null","","","","","","","","","","","",""
"","852","html-keyboard-response","260","369768","0.0-13.0-1.16","6vk5B4lUyx","653efdb0f60588dbb6c205cf","6617fad957f7c6a12ea16e26","6622cf97ae72a4821e85b291","image grid","q","","","","","Phylogenetic_Distractor_Nonthreat_target","2500","ongrid","p","4","Phylogenetic","false","experimental"
"","null","html-keyboard-response","261","369931","0.0-13.0-2.16","6vk5B4lUyx","653efdb0f60588dbb6c205cf","6617fad957f7c6a12ea16e26","6622cf97ae72a4821e85b291","
    <div id=""grid-container"">
        <!-- Grid items will be dynamically added here -->
    </div>    ","null","","","","","","","","","","","",""
"","null","html-keyboard-response","262","370646","0.0-13.0-0.17","6vk5B4lUyx","653efdb0f60588dbb6c205cf","6617fad957f7c6a12ea16e26","6622cf97ae72a4821e85b291","fixation cross","null","","","","","","","","","","","",""
"","1289","html-keyboard-response","263","371935","0.0-13.0-1.17","6vk5B4lUyx","653efdb0f60588dbb6c205cf","6617fad957f7c6a12ea16e26","6622cf97ae72a4821e85b291","image grid","p","","","","","Phylogenetic_Distractor_notarget","2500","ongrid"," ","6","Phylogenetic","false","experimental"
"","null","html-keyboard-response","264","372096","0.0-13.0-2.17","6vk5B4lUyx","653efdb0f60588dbb6c205cf","6617fad957f7c6a12ea16e26","6622cf97ae72a4821e85b291","
    <div id=""grid-container"">
        <!-- Grid items will be dynamically added here -->
    </div>    ","null","","","","","","","","","","","",""
"","406","html-keyboard-response","265","372812","0.0-13.0-0.18","6vk5B4lUyx","653efdb0f60588dbb6c205cf","6617fad957f7c6a12ea16e26","6622cf97ae72a4821e85b291","fixation cross","p","","","","","","","","","","","",""
"","931","html-keyboard-response","266","373744","0.0-13.0-1.18","6vk5B4lUyx","653efdb0f60588dbb6c205cf","6617fad957f7c6a12ea16e26","6622cf97ae72a4821e85b291","image grid","q","","","","","Phylogenetic_Distractor_Nonthreat_target","2500","ongrid","p","1","Phylogenetic","false","experimental"
"","null","html-keyboard-response","267","373897","0.0-13.0-2.18","6vk5B4lUyx","653efdb0f60588dbb6c205cf","6617fad957f7c6a12ea16e26","6622cf97ae72a4821e85b291","
    <div id=""grid-container"">
        <!-- Grid items will be dynamically added here -->
    </div>    ","null","","","","","","","","","","","",""
"","null","html-keyboard-response","268","374623","0.0-13.0-0.19","6vk5B4lUyx","653efdb0f60588dbb6c205cf","6617fad957f7c6a12ea16e26","6622cf97ae72a4821e85b291","fixation cross","null","","","","","","","","","","","",""
"","832","html-keyboard-response","269","375455","0.0-13.0-1.19","6vk5B4lUyx","653efdb0f60588dbb6c205cf","6617fad957f7c6a12ea16e26","6622cf97ae72a4821e85b291","image grid","q","","","","","Phylogenetic_Distractor_Nonthreat_target","2500","ongrid","p","3","Phylogenetic","false","experimental"
"","null","html-keyboard-response","270","375617","0.0-13.0-2.19","6vk5B4lUyx","653efdb0f60588dbb6c205cf","6617fad957f7c6a12ea16e26","6622cf97ae72a4821e85b291","
    <div id=""grid-container"">
        <!-- Grid items will be dynamically added here -->
    </div>    ","null","","","","","","","","","","","",""
"","null","html-keyboard-response","271","376335","0.0-13.0-0.20","6vk5B4lUyx","653efdb0f60588dbb6c205cf","6617fad957f7c6a12ea16e26","6622cf97ae72a4821e85b291","fixation cross","null","","","","","","","","","","","",""
"","920","html-keyboard-response","272","377255","0.0-13.0-1.20","6vk5B4lUyx","653efdb0f60588dbb6c205cf","6617fad957f7c6a12ea16e26","6622cf97ae72a4821e85b291","image grid","q","","","","","Phylogenetic_Distractor_Nonthreat_target","2500","ongrid","p","5","Phylogenetic","false","experimental"
"","null","html-keyboard-response","273","377415","0.0-13.0-2.20","6vk5B4lUyx","653efdb0f60588dbb6c205cf","6617fad957f7c6a12ea16e26","6622cf97ae72a4821e85b291","
    <div id=""grid-container"">
        <!-- Grid items will be dynamically added here -->
    </div>    ","null","","","","","","","","","","","",""
"","null","html-keyboard-response","274","378136","0.0-13.0-0.21","6vk5B4lUyx","653efdb0f60588dbb6c205cf","6617fad957f7c6a12ea16e26","6622cf97ae72a4821e85b291","fixation cross","null","","","","","","","","","","","",""
"","1358","html-keyboard-response","275","379495","0.0-13.0-1.21","6vk5B4lUyx","653efdb0f60588dbb6c205cf","6617fad957f7c6a12ea16e26","6622cf97ae72a4821e85b291","image grid","q","","","","","Phylogenetic_Distractor_notarget","2500","ongrid"," ","1","Phylogenetic","false","experimental"
"","39","html-keyboard-response","276","379653","0.0-13.0-2.21","6vk5B4lUyx","653efdb0f60588dbb6c205cf","6617fad957f7c6a12ea16e26","6622cf97ae72a4821e85b291","
    <div id=""grid-container"">
        <!-- Grid items will be dynamically added here -->
    </div>    ","q","","","","","","","","","","","",""
"","null","html-keyboard-response","277","380377","0.0-13.0-0.22","6vk5B4lUyx","653efdb0f60588dbb6c205cf","6617fad957f7c6a12ea16e26","6622cf97ae72a4821e85b291","fixation cross","null","","","","","","","","","","","",""
"","382","html-keyboard-response","278","380760","0.0-13.0-1.22","6vk5B4lUyx","653efdb0f60588dbb6c205cf","6617fad957f7c6a12ea16e26","6622cf97ae72a4821e85b291","image grid","q","","","","","Phylogenetic_Distractor_Threat_target","2500","ongrid","q","4","Phylogenetic","true","experimental"
"","null","html-keyboard-response","279","380927","0.0-13.0-2.22","6vk5B4lUyx","653efdb0f60588dbb6c205cf","6617fad957f7c6a12ea16e26","6622cf97ae72a4821e85b291","
    <div id=""grid-container"">
        <!-- Grid items will be dynamically added here -->
    </div>    ","null","","","","","","","","","","","",""
"","null","html-keyboard-response","280","381645","0.0-13.0-0.23","6vk5B4lUyx","653efdb0f60588dbb6c205cf","6617fad957f7c6a12ea16e26","6622cf97ae72a4821e85b291","fixation cross","null","","","","","","","","","","","",""
"","490","html-keyboard-response","281","382135","0.0-13.0-1.23","6vk5B4lUyx","653efdb0f60588dbb6c205cf","6617fad957f7c6a12ea16e26","6622cf97ae72a4821e85b291","image grid","p","","","","","Phylogenetic_Distractor_Nonthreat_target","2500","ongrid","p","4","Phylogenetic","true","experimental"
"","null","html-keyboard-response","282","382288","0.0-13.0-2.23","6vk5B4lUyx","653efdb0f60588dbb6c205cf","6617fad957f7c6a12ea16e26","6622cf97ae72a4821e85b291","
    <div id=""grid-container"">
        <!-- Grid items will be dynamically added here -->
    </div>    ","null","","","","","","","","","","","",""
"","null","html-keyboard-response","283","383013","0.0-13.0-0.24","6vk5B4lUyx","653efdb0f60588dbb6c205cf","6617fad957f7c6a12ea16e26","6622cf97ae72a4821e85b291","fixation cross","null","","","","","","","","","","","",""
"","386","html-keyboard-response","284","383399","0.0-13.0-1.24","6vk5B4lUyx","653efdb0f60588dbb6c205cf","6617fad957f7c6a12ea16e26","6622cf97ae72a4821e85b291","image grid","q","","","","","Phylogenetic_Distractor_Nonthreat_target","2500","ongrid","p","3","Phylogenetic","false","experimental"
"","null","html-keyboard-response","285","383557","0.0-13.0-2.24","6vk5B4lUyx","653efdb0f60588dbb6c205cf","6617fad957f7c6a12ea16e26","6622cf97ae72a4821e85b291","
    <div id=""grid-container"">
        <!-- Grid items will be dynamically added here -->
    </div>    ","null","","","","","","","","","","","",""
"","null","html-keyboard-response","286","384278","0.0-13.0-0.25","6vk5B4lUyx","653efdb0f60588dbb6c205cf","6617fad957f7c6a12ea16e26","6622cf97ae72a4821e85b291","fixation cross","null","","","","","","","","","","","",""
"","1017","html-keyboard-response","287","385296","0.0-13.0-1.25","6vk5B4lUyx","653efdb0f60588dbb6c205cf","6617fad957f7c6a12ea16e26","6622cf97ae72a4821e85b291","image grid","p","","","","","Phylogenetic_Distractor_Threat_target","2500","ongrid","q","5","Phylogenetic","false","experimental"
"","null","html-keyboard-response","288","385459","0.0-13.0-2.25","6vk5B4lUyx","653efdb0f60588dbb6c205cf","6617fad957f7c6a12ea16e26","6622cf97ae72a4821e85b291","
    <div id=""grid-container"">
        <!-- Grid items will be dynamically added here -->
    </div>    ","null","","","","","","","","","","","",""
"","null","html-keyboard-response","289","386183","0.0-13.0-0.26","6vk5B4lUyx","653efdb0f60588dbb6c205cf","6617fad957f7c6a12ea16e26","6622cf97ae72a4821e85b291","fixation cross","null","","","","","","","","","","","",""
"","1192","html-keyboard-response","290","387376","0.0-13.0-1.26","6vk5B4lUyx","653efdb0f60588dbb6c205cf","6617fad957f7c6a12ea16e26","6622cf97ae72a4821e85b291","image grid","p","","","","","Phylogenetic_Distractor_Threat_target","2500","ongrid","q","7","Phylogenetic","false","experimental"
"","31","html-keyboard-response","291","387528","0.0-13.0-2.26","6vk5B4lUyx","653efdb0f60588dbb6c205cf","6617fad957f7c6a12ea16e26","6622cf97ae72a4821e85b291","
    <div id=""grid-container"">
        <!-- Grid items will be dynamically added here -->
    </div>    ","p","","","","","","","","","","","",""
"","null","html-keyboard-response","292","388245","0.0-13.0-0.27","6vk5B4lUyx","653efdb0f60588dbb6c205cf","6617fad957f7c6a12ea16e26","6622cf97ae72a4821e85b291","fixation cross","null","","","","","","","","","","","",""
"","900","html-keyboard-response","293","389146","0.0-13.0-1.27","6vk5B4lUyx","653efdb0f60588dbb6c205cf","6617fad957f7c6a12ea16e26","6622cf97ae72a4821e85b291","image grid","p","","","","","Phylogenetic_Distractor_notarget","2500","ongrid"," ","5","Phylogenetic","false","experimental"
"","null","html-keyboard-response","294","389313","0.0-13.0-2.27","6vk5B4lUyx","653efdb0f60588dbb6c205cf","6617fad957f7c6a12ea16e26","6622cf97ae72a4821e85b291","
    <div id=""grid-container"">
        <!-- Grid items will be dynamically added here -->
    </div>    ","null","","","","","","","","","","","",""
"","null","html-keyboard-response","295","390042","0.0-13.0-0.28","6vk5B4lUyx","653efdb0f60588dbb6c205cf","6617fad957f7c6a12ea16e26","6622cf97ae72a4821e85b291","fixation cross","null","","","","","","","","","","","",""
"","374","html-keyboard-response","296","390417","0.0-13.0-1.28","6vk5B4lUyx","653efdb0f60588dbb6c205cf","6617fad957f7c6a12ea16e26","6622cf97ae72a4821e85b291","image grid","q","","","","","Phylogenetic_Distractor_Threat_target","2500","ongrid","q","7","Phylogenetic","true","experimental"
"","null","html-keyboard-response","297","390577","0.0-13.0-2.28","6vk5B4lUyx","653efdb0f60588dbb6c205cf","6617fad957f7c6a12ea16e26","6622cf97ae72a4821e85b291","
    <div id=""grid-container"">
        <!-- Grid items will be dynamically added here -->
    </div>    ","null","","","","","","","","","","","",""
"","null","html-keyboard-response","298","391304","0.0-13.0-0.29","6vk5B4lUyx","653efdb0f60588dbb6c205cf","6617fad957f7c6a12ea16e26","6622cf97ae72a4821e85b291","fixation cross","null","","","","","","","","","","","",""
"","897","html-keyboard-response","299","392202","0.0-13.0-1.29","6vk5B4lUyx","653efdb0f60588dbb6c205cf","6617fad957f7c6a12ea16e26","6622cf97ae72a4821e85b291","image grid","p","","","","","Phylogenetic_Distractor_Threat_target","2500","ongrid","q","2","Phylogenetic","false","experimental"
"","null","html-keyboard-response","300","392366","0.0-13.0-2.29","6vk5B4lUyx","653efdb0f60588dbb6c205cf","6617fad957f7c6a12ea16e26","6622cf97ae72a4821e85b291","
    <div id=""grid-container"">
        <!-- Grid items will be dynamically added here -->
    </div>    ","null","","","","","","","","","","","",""
"","null","html-keyboard-response","301","393082","0.0-13.0-0.30","6vk5B4lUyx","653efdb0f60588dbb6c205cf","6617fad957f7c6a12ea16e26","6622cf97ae72a4821e85b291","fixation cross","null","","","","","","","","","","","",""
"","686","html-keyboard-response","302","393769","0.0-13.0-1.30","6vk5B4lUyx","653efdb0f60588dbb6c205cf","6617fad957f7c6a12ea16e26","6622cf97ae72a4821e85b291","image grid","q","","","","","Phylogenetic_Distractor_Threat_target","2500","ongrid","q","2","Phylogenetic","true","experimental"
"","null","html-keyboard-response","303","393933","0.0-13.0-2.30","6vk5B4lUyx","653efdb0f60588dbb6c205cf","6617fad957f7c6a12ea16e26","6622cf97ae72a4821e85b291","
    <div id=""grid-container"">
        <!-- Grid items will be dynamically added here -->
    </div>    ","null","","","","","","","","","","","",""
"","null","html-keyboard-response","304","394645","0.0-13.0-0.31","6vk5B4lUyx","653efdb0f60588dbb6c205cf","6617fad957f7c6a12ea16e26","6622cf97ae72a4821e85b291","fixation cross","null","","","","","","","","","","","",""
"","666","html-keyboard-response","305","395313","0.0-13.0-1.31","6vk5B4lUyx","653efdb0f60588dbb6c205cf","6617fad957f7c6a12ea16e26","6622cf97ae72a4821e85b291","image grid","p","","","","","Phylogenetic_Distractor_Threat_target","2500","ongrid","q","7","Phylogenetic","false","experimental"
"","null","html-keyboard-response","306","395469","0.0-13.0-2.31","6vk5B4lUyx","653efdb0f60588dbb6c205cf","6617fad957f7c6a12ea16e26","6622cf97ae72a4821e85b291","
    <div id=""grid-container"">
        <!-- Grid items will be dynamically added here -->
    </div>    ","null","","","","","","","","","","","",""
"","null","html-keyboard-response","307","396185","0.0-13.0-0.32","6vk5B4lUyx","653efdb0f60588dbb6c205cf","6617fad957f7c6a12ea16e26","6622cf97ae72a4821e85b291","fixation cross","null","","","","","","","","","","","",""
"","335","html-keyboard-response","308","396520","0.0-13.0-1.32","6vk5B4lUyx","653efdb0f60588dbb6c205cf","6617fad957f7c6a12ea16e26","6622cf97ae72a4821e85b291","image grid","q","","","","","Phylogenetic_Distractor_Nonthreat_target","2500","ongrid","p","4","Phylogenetic","false","experimental"
"","null","html-keyboard-response","309","396687","0.0-13.0-2.32","6vk5B4lUyx","653efdb0f60588dbb6c205cf","6617fad957f7c6a12ea16e26","6622cf97ae72a4821e85b291","
    <div id=""grid-container"">
        <!-- Grid items will be dynamically added here -->
    </div>    ","null","","","","","","","","","","","",""
"","null","html-keyboard-response","310","397411","0.0-13.0-0.33","6vk5B4lUyx","653efdb0f60588dbb6c205cf","6617fad957f7c6a12ea16e26","6622cf97ae72a4821e85b291","fixation cross","null","","","","","","","","","","","",""
"","373","html-keyboard-response","311","397785","0.0-13.0-1.33","6vk5B4lUyx","653efdb0f60588dbb6c205cf","6617fad957f7c6a12ea16e26","6622cf97ae72a4821e85b291","image grid","p","","","","","Phylogenetic_Distractor_Threat_target","2500","ongrid","q","9","Phylogenetic","false","experimental"
"","null","html-keyboard-response","312","397945","0.0-13.0-2.33","6vk5B4lUyx","653efdb0f60588dbb6c205cf","6617fad957f7c6a12ea16e26","6622cf97ae72a4821e85b291","
    <div id=""grid-container"">
        <!-- Grid items will be dynamically added here -->
    </div>    ","null","","","","","","","","","","","",""
"","null","html-keyboard-response","313","398656","0.0-13.0-0.34","6vk5B4lUyx","653efdb0f60588dbb6c205cf","6617fad957f7c6a12ea16e26","6622cf97ae72a4821e85b291","fixation cross","null","","","","","","","","","","","",""
"","391","html-keyboard-response","314","399048","0.0-13.0-1.34","6vk5B4lUyx","653efdb0f60588dbb6c205cf","6617fad957f7c6a12ea16e26","6622cf97ae72a4821e85b291","image grid","q","","","","","Phylogenetic_Distractor_Threat_target","2500","ongrid","q","2","Phylogenetic","true","experimental"
"","null","html-keyboard-response","315","399207","0.0-13.0-2.34","6vk5B4lUyx","653efdb0f60588dbb6c205cf","6617fad957f7c6a12ea16e26","6622cf97ae72a4821e85b291","
    <div id=""grid-container"">
        <!-- Grid items will be dynamically added here -->
    </div>    ","null","","","","","","","","","","","",""
"","null","html-keyboard-response","316","399923","0.0-13.0-0.35","6vk5B4lUyx","653efdb0f60588dbb6c205cf","6617fad957f7c6a12ea16e26","6622cf97ae72a4821e85b291","fixation cross","null","","","","","","","","","","","",""
"","790","html-keyboard-response","317","400713","0.0-13.0-1.35","6vk5B4lUyx","653efdb0f60588dbb6c205cf","6617fad957f7c6a12ea16e26","6622cf97ae72a4821e85b291","image grid","p","","","","","Phylogenetic_Distractor_Nonthreat_target","2500","ongrid","p","1","Phylogenetic","true","experimental"
"","null","html-keyboard-response","318","400873","0.0-13.0-2.35","6vk5B4lUyx","653efdb0f60588dbb6c205cf","6617fad957f7c6a12ea16e26","6622cf97ae72a4821e85b291","
    <div id=""grid-container"">
        <!-- Grid items will be dynamically added here -->
    </div>    ","null","","","","","","","","","","","",""
"","null","html-keyboard-response","319","401591","0.0-13.0-0.36","6vk5B4lUyx","653efdb0f60588dbb6c205cf","6617fad957f7c6a12ea16e26","6622cf97ae72a4821e85b291","fixation cross","null","","","","","","","","","","","",""
"","497","html-keyboard-response","320","402089","0.0-13.0-1.36","6vk5B4lUyx","653efdb0f60588dbb6c205cf","6617fad957f7c6a12ea16e26","6622cf97ae72a4821e85b291","image grid","q","","","","","Phylogenetic_Distractor_Threat_target","2500","ongrid","q","4","Phylogenetic","true","experimental"
"","null","html-keyboard-response","321","402244","0.0-13.0-2.36","6vk5B4lUyx","653efdb0f60588dbb6c205cf","6617fad957f7c6a12ea16e26","6622cf97ae72a4821e85b291","
    <div id=""grid-container"">
        <!-- Grid items will be dynamically added here -->
    </div>    ","null","","","","","","","","","","","",""
"","null","html-keyboard-response","322","402964","0.0-13.0-0.37","6vk5B4lUyx","653efdb0f60588dbb6c205cf","6617fad957f7c6a12ea16e26","6622cf97ae72a4821e85b291","fixation cross","null","","","","","","","","","","","",""
"","534","html-keyboard-response","323","403498","0.0-13.0-1.37","6vk5B4lUyx","653efdb0f60588dbb6c205cf","6617fad957f7c6a12ea16e26","6622cf97ae72a4821e85b291","image grid","p","","","","","Phylogenetic_Distractor_Nonthreat_target","2500","ongrid","p","7","Phylogenetic","true","experimental"
"","null","html-keyboard-response","324","403660","0.0-13.0-2.37","6vk5B4lUyx","653efdb0f60588dbb6c205cf","6617fad957f7c6a12ea16e26","6622cf97ae72a4821e85b291","
    <div id=""grid-container"">
        <!-- Grid items will be dynamically added here -->
    </div>    ","null","","","","","","","","","","","",""
"","null","html-keyboard-response","325","404386","0.0-13.0-0.38","6vk5B4lUyx","653efdb0f60588dbb6c205cf","6617fad957f7c6a12ea16e26","6622cf97ae72a4821e85b291","fixation cross","null","","","","","","","","","","","",""
"","398","html-keyboard-response","326","404785","0.0-13.0-1.38","6vk5B4lUyx","653efdb0f60588dbb6c205cf","6617fad957f7c6a12ea16e26","6622cf97ae72a4821e85b291","image grid","q","","","","","Phylogenetic_Distractor_Nonthreat_target","2500","ongrid","p","9","Phylogenetic","false","experimental"
"","null","html-keyboard-response","327","404945","0.0-13.0-2.38","6vk5B4lUyx","653efdb0f60588dbb6c205cf","6617fad957f7c6a12ea16e26","6622cf97ae72a4821e85b291","
    <div id=""grid-container"">
        <!-- Grid items will be dynamically added here -->
    </div>    ","null","","","","","","","","","","","",""
"","null","html-keyboard-response","328","405658","0.0-13.0-0.39","6vk5B4lUyx","653efdb0f60588dbb6c205cf","6617fad957f7c6a12ea16e26","6622cf97ae72a4821e85b291","fixation cross","null","","","","","","","","","","","",""
"","679","html-keyboard-response","329","406337","0.0-13.0-1.39","6vk5B4lUyx","653efdb0f60588dbb6c205cf","6617fad957f7c6a12ea16e26","6622cf97ae72a4821e85b291","image grid","p","","","","","Phylogenetic_Distractor_Threat_target","2500","ongrid","q","6","Phylogenetic","false","experimental"
"","null","html-keyboard-response","330","406496","0.0-13.0-2.39","6vk5B4lUyx","653efdb0f60588dbb6c205cf","6617fad957f7c6a12ea16e26","6622cf97ae72a4821e85b291","
    <div id=""grid-container"">
        <!-- Grid items will be dynamically added here -->
    </div>    ","null","","","","","","","","","","","",""
"","76868","html-keyboard-response","331","483578","0.0-14.0","6vk5B4lUyx","653efdb0f60588dbb6c205cf","6617fad957f7c6a12ea16e26","6622cf97ae72a4821e85b291","break screen","q","","","","","","","","","","","",""
"","null","html-keyboard-response","332","486090","0.0-15.0-0.0","6vk5B4lUyx","653efdb0f60588dbb6c205cf","6617fad957f7c6a12ea16e26","6622cf97ae72a4821e85b291","fixation cross","null","","","","","","","","","","","",""
"","454","html-keyboard-response","333","486545","0.0-15.0-1.0","6vk5B4lUyx","653efdb0f60588dbb6c205cf","6617fad957f7c6a12ea16e26","6622cf97ae72a4821e85b291","image grid","p","","","","","Phylogenetic_Distractor_Threat_target","800","ongrid","q","7","Phylogenetic","false","experimental"
"","null","html-keyboard-response","334","486713","0.0-15.0-2.0","6vk5B4lUyx","653efdb0f60588dbb6c205cf","6617fad957f7c6a12ea16e26","6622cf97ae72a4821e85b291","
    <div id=""grid-container"">
        <!-- Grid items will be dynamically added here -->
    </div>    ","null","","","","","","","","","","","",""
"","null","html-keyboard-response","335","487429","0.0-15.0-0.1","6vk5B4lUyx","653efdb0f60588dbb6c205cf","6617fad957f7c6a12ea16e26","6622cf97ae72a4821e85b291","fixation cross","null","","","","","","","","","","","",""
"","null","html-keyboard-response","336","488239","0.0-15.0-1.1","6vk5B4lUyx","653efdb0f60588dbb6c205cf","6617fad957f7c6a12ea16e26","6622cf97ae72a4821e85b291","
        <div id=""grid-container"">
        <!-- Grid items will be dynamically added here -->
    </div>    ","null","","","","","","","","","","","",""
"","1498","html-keyboard-response","337","488938","0.0-15.0-2.1","6vk5B4lUyx","653efdb0f60588dbb6c205cf","6617fad957f7c6a12ea16e26","6622cf97ae72a4821e85b291","mask grid","p","","","","","Phylogenetic_Distractor_Nonthreat_target","800","onmask","p","9","Phylogenetic","true","experimental"
"","null","html-keyboard-response","338","489655","0.0-15.0-0.2","6vk5B4lUyx","653efdb0f60588dbb6c205cf","6617fad957f7c6a12ea16e26","6622cf97ae72a4821e85b291","fixation cross","null","","","","","","","","","","","",""
"","506","html-keyboard-response","339","490162","0.0-15.0-1.2","6vk5B4lUyx","653efdb0f60588dbb6c205cf","6617fad957f7c6a12ea16e26","6622cf97ae72a4821e85b291","image grid","q","","","","","Phylogenetic_Distractor_notarget","800","ongrid"," ","9","Phylogenetic","false","experimental"
"","null","html-keyboard-response","340","490318","0.0-15.0-2.2","6vk5B4lUyx","653efdb0f60588dbb6c205cf","6617fad957f7c6a12ea16e26","6622cf97ae72a4821e85b291","
    <div id=""grid-container"">
        <!-- Grid items will be dynamically added here -->
    </div>    ","null","","","","","","","","","","","",""
"","null","html-keyboard-response","341","491025","0.0-15.0-0.3","6vk5B4lUyx","653efdb0f60588dbb6c205cf","6617fad957f7c6a12ea16e26","6622cf97ae72a4821e85b291","fixation cross","null","","","","","","","","","","","",""
"","415","html-keyboard-response","342","491440","0.0-15.0-1.3","6vk5B4lUyx","653efdb0f60588dbb6c205cf","6617fad957f7c6a12ea16e26","6622cf97ae72a4821e85b291","image grid","p","","","","","Phylogenetic_Distractor_Threat_target","800","ongrid","q","2","Phylogenetic","false","experimental"
"","null","html-keyboard-response","343","491599","0.0-15.0-2.3","6vk5B4lUyx","653efdb0f60588dbb6c205cf","6617fad957f7c6a12ea16e26","6622cf97ae72a4821e85b291","
    <div id=""grid-container"">
        <!-- Grid items will be dynamically added here -->
    </div>    ","null","","","","","","","","","","","",""
"","null","html-keyboard-response","344","492316","0.0-15.0-0.4","6vk5B4lUyx","653efdb0f60588dbb6c205cf","6617fad957f7c6a12ea16e26","6622cf97ae72a4821e85b291","fixation cross","null","","","","","","","","","","","",""
"","284","html-keyboard-response","345","492602","0.0-15.0-1.4","6vk5B4lUyx","653efdb0f60588dbb6c205cf","6617fad957f7c6a12ea16e26","6622cf97ae72a4821e85b291","image grid","q","","","","","Phylogenetic_Distractor_Nonthreat_target","800","ongrid","p","2","Phylogenetic","false","experimental"
"","null","html-keyboard-response","346","492767","0.0-15.0-2.4","6vk5B4lUyx","653efdb0f60588dbb6c205cf","6617fad957f7c6a12ea16e26","6622cf97ae72a4821e85b291","
    <div id=""grid-container"">
        <!-- Grid items will be dynamically added here -->
    </div>    ","null","","","","","","","","","","","",""
"","null","html-keyboard-response","347","493486","0.0-15.0-0.5","6vk5B4lUyx","653efdb0f60588dbb6c205cf","6617fad957f7c6a12ea16e26","6622cf97ae72a4821e85b291","fixation cross","null","","","","","","","","","","","",""
"","236","html-keyboard-response","348","493722","0.0-15.0-1.5","6vk5B4lUyx","653efdb0f60588dbb6c205cf","6617fad957f7c6a12ea16e26","6622cf97ae72a4821e85b291","image grid","p","","","","","Phylogenetic_Distractor_Nonthreat_target","800","ongrid","p","5","Phylogenetic","true","experimental"
"","null","html-keyboard-response","349","493885","0.0-15.0-2.5","6vk5B4lUyx","653efdb0f60588dbb6c205cf","6617fad957f7c6a12ea16e26","6622cf97ae72a4821e85b291","
    <div id=""grid-container"">
        <!-- Grid items will be dynamically added here -->
    </div>    ","null","","","","","","","","","","","",""
"","null","html-keyboard-response","350","494604","0.0-15.0-0.6","6vk5B4lUyx","653efdb0f60588dbb6c205cf","6617fad957f7c6a12ea16e26","6622cf97ae72a4821e85b291","fixation cross","null","","","","","","","","","","","",""
"","524","html-keyboard-response","351","495130","0.0-15.0-1.6","6vk5B4lUyx","653efdb0f60588dbb6c205cf","6617fad957f7c6a12ea16e26","6622cf97ae72a4821e85b291","image grid","p","","","","","Phylogenetic_Distractor_Nonthreat_target","800","ongrid","p","9","Phylogenetic","true","experimental"
"","null","html-keyboard-response","352","495286","0.0-15.0-2.6","6vk5B4lUyx","653efdb0f60588dbb6c205cf","6617fad957f7c6a12ea16e26","6622cf97ae72a4821e85b291","
    <div id=""grid-container"">
        <!-- Grid items will be dynamically added here -->
    </div>    ","null","","","","","","","","","","","",""
"","null","html-keyboard-response","353","496000","0.0-15.0-0.7","6vk5B4lUyx","653efdb0f60588dbb6c205cf","6617fad957f7c6a12ea16e26","6622cf97ae72a4821e85b291","fixation cross","null","","","","","","","","","","","",""
"","560","html-keyboard-response","354","496562","0.0-15.0-1.7","6vk5B4lUyx","653efdb0f60588dbb6c205cf","6617fad957f7c6a12ea16e26","6622cf97ae72a4821e85b291","image grid","q","","","","","Phylogenetic_Distractor_Threat_target","800","ongrid","q","4","Phylogenetic","true","experimental"
"","null","html-keyboard-response","355","496723","0.0-15.0-2.7","6vk5B4lUyx","653efdb0f60588dbb6c205cf","6617fad957f7c6a12ea16e26","6622cf97ae72a4821e85b291","
    <div id=""grid-container"">
        <!-- Grid items will be dynamically added here -->
    </div>    ","null","","","","","","","","","","","",""
"","null","html-keyboard-response","356","497448","0.0-15.0-0.8","6vk5B4lUyx","653efdb0f60588dbb6c205cf","6617fad957f7c6a12ea16e26","6622cf97ae72a4821e85b291","fixation cross","null","","","","","","","","","","","",""
"","null","html-keyboard-response","357","498259","0.0-15.0-1.8","6vk5B4lUyx","653efdb0f60588dbb6c205cf","6617fad957f7c6a12ea16e26","6622cf97ae72a4821e85b291","
        <div id=""grid-container"">
        <!-- Grid items will be dynamically added here -->
    </div>    ","null","","","","","","","","","","","",""
"","853","html-keyboard-response","358","498313","0.0-15.0-2.8","6vk5B4lUyx","653efdb0f60588dbb6c205cf","6617fad957f7c6a12ea16e26","6622cf97ae72a4821e85b291","mask grid","p","","","","","Phylogenetic_Distractor_notarget","800","onmask"," ","4","Phylogenetic","false","experimental"
"","null","html-keyboard-response","359","499029","0.0-15.0-0.9","6vk5B4lUyx","653efdb0f60588dbb6c205cf","6617fad957f7c6a12ea16e26","6622cf97ae72a4821e85b291","fixation cross","null","","","","","","","","","","","",""
"","null","html-keyboard-response","360","499832","0.0-15.0-1.9","6vk5B4lUyx","653efdb0f60588dbb6c205cf","6617fad957f7c6a12ea16e26","6622cf97ae72a4821e85b291","
        <div id=""grid-container"">
        <!-- Grid items will be dynamically added here -->
    </div>    ","null","","","","","","","","","","","",""
"","800","html-keyboard-response","361","504835","0.0-15.0-2.9","6vk5B4lUyx","653efdb0f60588dbb6c205cf","6617fad957f7c6a12ea16e26","6622cf97ae72a4821e85b291","mask grid","null","","","","","Phylogenetic_Distractor_Threat_target","800","onmask","q","2","Phylogenetic","false","experimental"
"","null","html-keyboard-response","362","505547","0.0-15.0-0.10","6vk5B4lUyx","653efdb0f60588dbb6c205cf","6617fad957f7c6a12ea16e26","6622cf97ae72a4821e85b291","fixation cross","null","","","","","","","","","","","",""
"","null","html-keyboard-response","363","506355","0.0-15.0-1.10","6vk5B4lUyx","653efdb0f60588dbb6c205cf","6617fad957f7c6a12ea16e26","6622cf97ae72a4821e85b291","
        <div id=""grid-container"">
        <!-- Grid items will be dynamically added here -->
    </div>    ","null","","","","","","","","","","","",""
"","1583","html-keyboard-response","364","507139","0.0-15.0-2.10","6vk5B4lUyx","653efdb0f60588dbb6c205cf","6617fad957f7c6a12ea16e26","6622cf97ae72a4821e85b291","mask grid","q","","","","","Phylogenetic_Distractor_Nonthreat_target","800","onmask","p","9","Phylogenetic","false","experimental"
"","null","html-keyboard-response","365","507863","0.0-15.0-0.11","6vk5B4lUyx","653efdb0f60588dbb6c205cf","6617fad957f7c6a12ea16e26","6622cf97ae72a4821e85b291","fixation cross","null","","","","","","","","","","","",""
"","200","html-keyboard-response","366","508065","0.0-15.0-1.11","6vk5B4lUyx","653efdb0f60588dbb6c205cf","6617fad957f7c6a12ea16e26","6622cf97ae72a4821e85b291","image grid","p","","","","","Phylogenetic_Distractor_Threat_target","800","ongrid","q","3","Phylogenetic","false","experimental"
"","null","html-keyboard-response","367","508223","0.0-15.0-2.11","6vk5B4lUyx","653efdb0f60588dbb6c205cf","6617fad957f7c6a12ea16e26","6622cf97ae72a4821e85b291","
    <div id=""grid-container"">
        <!-- Grid items will be dynamically added here -->
    </div>    ","null","","","","","","","","","","","",""
"","null","html-keyboard-response","368","508931","0.0-15.0-0.12","6vk5B4lUyx","653efdb0f60588dbb6c205cf","6617fad957f7c6a12ea16e26","6622cf97ae72a4821e85b291","fixation cross","null","","","","","","","","","","","",""
"","365","html-keyboard-response","369","509297","0.0-15.0-1.12","6vk5B4lUyx","653efdb0f60588dbb6c205cf","6617fad957f7c6a12ea16e26","6622cf97ae72a4821e85b291","image grid","q","","","","","Phylogenetic_Distractor_Nonthreat_target","800","ongrid","p","7","Phylogenetic","false","experimental"
"","null","html-keyboard-response","370","509452","0.0-15.0-2.12","6vk5B4lUyx","653efdb0f60588dbb6c205cf","6617fad957f7c6a12ea16e26","6622cf97ae72a4821e85b291","
    <div id=""grid-container"">
        <!-- Grid items will be dynamically added here -->
    </div>    ","null","","","","","","","","","","","",""
