"success","rt","trial_type","trial_index","time_elapsed","internal_node_id","unique_identifier","subject_id","study_id","session_id","stimulus","response","timeout","failed_images","failed_audio","failed_video","task","time_manipulation","respondedwhen","correctresponse","targetimagelocation","blocktype","correct","roundtype"
"true","1990","fullscreen","0","2998","0.0-0.0","eVGAp78mX8","656b41bec018aca657ed8254","6617fad957f7c6a12ea16e26","6622cf5dd054e46a9eebf974","","","","","","","","","","","","","",""
"","8738","html-keyboard-response","1","11739","0.0-1.0","eVGAp78mX8","656b41bec018aca657ed8254","6617fad957f7c6a12ea16e26","6622cf5dd054e46a9eebf974","instruction screen 0"," ","","","","","","","","","","","",""
"true","","preload","2","16976","0.0-2.0","eVGAp78mX8","656b41bec018aca657ed8254","6617fad957f7c6a12ea16e26","6622cf5dd054e46a9eebf974","","","false","[]","[]","[]","","","","","","","",""
"","9369","html-keyboard-response","3","26346","0.0-3.0","eVGAp78mX8","656b41bec018aca657ed8254","6617fad957f7c6a12ea16e26","6622cf5dd054e46a9eebf974","instruction screen 1"," ","","","","","","","","","","","",""
"","7199","html-keyboard-response","4","33552","0.0-4.0","eVGAp78mX8","656b41bec018aca657ed8254","6617fad957f7c6a12ea16e26","6622cf5dd054e46a9eebf974","instruction screen 2","q","","","","","","","","","","","",""
"","4271","html-keyboard-response","5","37829","0.0-5.0","eVGAp78mX8","656b41bec018aca657ed8254","6617fad957f7c6a12ea16e26","6622cf5dd054e46a9eebf974","instruction screen 3","p","","","","","","","","","","","",""
"","3645","html-keyboard-response","6","41481","0.0-6.0","eVGAp78mX8","656b41bec018aca657ed8254","6617fad957f7c6a12ea16e26","6622cf5dd054e46a9eebf974","instruction screen 4"," ","","","","","","","","","","","",""
"","9563","html-keyboard-response","7","51050","0.0-7.0","eVGAp78mX8","656b41bec018aca657ed8254","6617fad957f7c6a12ea16e26","6622cf5dd054e46a9eebf974","instruction screen 5"," ","","","","","","","","","","","",""
"","null","html-keyboard-response","8","51561","0.0-8.0","eVGAp78mX8","656b41bec018aca657ed8254","6617fad957f7c6a12ea16e26","6622cf5dd054e46a9eebf974","fixation cross","null","","","","","","","","","","","",""
"","null","html-keyboard-response","9","52066","0.0-9.0-0.0","eVGAp78mX8","656b41bec018aca657ed8254","6617fad957f7c6a12ea16e26","6622cf5dd054e46a9eebf974","fixation cross","null","","","","","","","","","","","",""
"","2345","html-keyboard-response","10","54413","0.0-9.0-1.0","eVGAp78mX8","656b41bec018aca657ed8254","6617fad957f7c6a12ea16e26","6622cf5dd054e46a9eebf974","image grid"," ","","","","","Ontogenetic_Distractor_notarget","3000","ongrid"," ","1","Phylogenetic","true","practice"
"","null","html-keyboard-response","11","54569","0.0-9.0-2.0","eVGAp78mX8","656b41bec018aca657ed8254","6617fad957f7c6a12ea16e26","6622cf5dd054e46a9eebf974","
    <div id=""grid-container"">
        <!-- Grid items will be dynamically added here -->
    </div>    ","null","","","","","","","","","","","",""
"","null","html-keyboard-response","12","55786","0.0-9.0-3.0","eVGAp78mX8","656b41bec018aca657ed8254","6617fad957f7c6a12ea16e26","6622cf5dd054e46a9eebf974","feedback screen","null","","","","","","","","","","","",""
"","null","html-keyboard-response","13","56294","0.0-9.0-0.1","eVGAp78mX8","656b41bec018aca657ed8254","6617fad957f7c6a12ea16e26","6622cf5dd054e46a9eebf974","fixation cross","null","","","","","","","","","","","",""
"","1779","html-keyboard-response","14","58074","0.0-9.0-1.1","eVGAp78mX8","656b41bec018aca657ed8254","6617fad957f7c6a12ea16e26","6622cf5dd054e46a9eebf974","image grid","q","","","","","Phylogenetic_Distractor_Threat_target","2900","ongrid","q","5","Phylogenetic","true","practice"
"","null","html-keyboard-response","15","58226","0.0-9.0-2.1","eVGAp78mX8","656b41bec018aca657ed8254","6617fad957f7c6a12ea16e26","6622cf5dd054e46a9eebf974","
    <div id=""grid-container"">
        <!-- Grid items will be dynamically added here -->
    </div>    ","null","","","","","","","","","","","",""
"","null","html-keyboard-response","16","59439","0.0-9.0-3.1","eVGAp78mX8","656b41bec018aca657ed8254","6617fad957f7c6a12ea16e26","6622cf5dd054e46a9eebf974","feedback screen","null","","","","","","","","","","","",""
"","null","html-keyboard-response","17","59949","0.0-9.0-0.2","eVGAp78mX8","656b41bec018aca657ed8254","6617fad957f7c6a12ea16e26","6622cf5dd054e46a9eebf974","fixation cross","null","","","","","","","","","","","",""
"","1417","html-keyboard-response","18","61367","0.0-9.0-1.2","eVGAp78mX8","656b41bec018aca657ed8254","6617fad957f7c6a12ea16e26","6622cf5dd054e46a9eebf974","image grid","p","","","","","Ontogenetic_Distractor_Nonthreat_target","2800","ongrid","p","4","Phylogenetic","true","practice"
"","null","html-keyboard-response","19","61521","0.0-9.0-2.2","eVGAp78mX8","656b41bec018aca657ed8254","6617fad957f7c6a12ea16e26","6622cf5dd054e46a9eebf974","
    <div id=""grid-container"">
        <!-- Grid items will be dynamically added here -->
    </div>    ","null","","","","","","","","","","","",""
"","null","html-keyboard-response","20","62734","0.0-9.0-3.2","eVGAp78mX8","656b41bec018aca657ed8254","6617fad957f7c6a12ea16e26","6622cf5dd054e46a9eebf974","feedback screen","null","","","","","","","","","","","",""
"","null","html-keyboard-response","21","63244","0.0-9.0-0.3","eVGAp78mX8","656b41bec018aca657ed8254","6617fad957f7c6a12ea16e26","6622cf5dd054e46a9eebf974","fixation cross","null","","","","","","","","","","","",""
"","1328","html-keyboard-response","22","64573","0.0-9.0-1.3","eVGAp78mX8","656b41bec018aca657ed8254","6617fad957f7c6a12ea16e26","6622cf5dd054e46a9eebf974","image grid","q","","","","","Phylogenetic_Distractor_Threat_target","2700","ongrid","q","1","Phylogenetic","true","practice"
"","null","html-keyboard-response","23","64725","0.0-9.0-2.3","eVGAp78mX8","656b41bec018aca657ed8254","6617fad957f7c6a12ea16e26","6622cf5dd054e46a9eebf974","
    <div id=""grid-container"">
        <!-- Grid items will be dynamically added here -->
    </div>    ","null","","","","","","","","","","","",""
"","null","html-keyboard-response","24","65935","0.0-9.0-3.3","eVGAp78mX8","656b41bec018aca657ed8254","6617fad957f7c6a12ea16e26","6622cf5dd054e46a9eebf974","feedback screen","null","","","","","","","","","","","",""
"","null","html-keyboard-response","25","66448","0.0-9.0-0.4","eVGAp78mX8","656b41bec018aca657ed8254","6617fad957f7c6a12ea16e26","6622cf5dd054e46a9eebf974","fixation cross","null","","","","","","","","","","","",""
"","953","html-keyboard-response","26","67403","0.0-9.0-1.4","eVGAp78mX8","656b41bec018aca657ed8254","6617fad957f7c6a12ea16e26","6622cf5dd054e46a9eebf974","image grid","q","","","","","Ontogenetic_Distractor_Nonthreat_target","2600","ongrid","p","4","Phylogenetic","false","practice"
"","null","html-keyboard-response","27","67556","0.0-9.0-2.4","eVGAp78mX8","656b41bec018aca657ed8254","6617fad957f7c6a12ea16e26","6622cf5dd054e46a9eebf974","
    <div id=""grid-container"">
        <!-- Grid items will be dynamically added here -->
    </div>    ","null","","","","","","","","","","","",""
"","null","html-keyboard-response","28","68765","0.0-9.0-3.4","eVGAp78mX8","656b41bec018aca657ed8254","6617fad957f7c6a12ea16e26","6622cf5dd054e46a9eebf974","feedback screen","null","","","","","","","","","","","",""
"","null","html-keyboard-response","29","69276","0.0-9.0-0.5","eVGAp78mX8","656b41bec018aca657ed8254","6617fad957f7c6a12ea16e26","6622cf5dd054e46a9eebf974","fixation cross","null","","","","","","","","","","","",""
"","2178","html-keyboard-response","30","71455","0.0-9.0-1.5","eVGAp78mX8","656b41bec018aca657ed8254","6617fad957f7c6a12ea16e26","6622cf5dd054e46a9eebf974","image grid","q","","","","","Phylogenetic_Distractor_Threat_target","2500","ongrid","q","7","Phylogenetic","true","practice"
"","null","html-keyboard-response","31","71609","0.0-9.0-2.5","eVGAp78mX8","656b41bec018aca657ed8254","6617fad957f7c6a12ea16e26","6622cf5dd054e46a9eebf974","
    <div id=""grid-container"">
        <!-- Grid items will be dynamically added here -->
    </div>    ","null","","","","","","","","","","","",""
"","null","html-keyboard-response","32","72816","0.0-9.0-3.5","eVGAp78mX8","656b41bec018aca657ed8254","6617fad957f7c6a12ea16e26","6622cf5dd054e46a9eebf974","feedback screen","null","","","","","","","","","","","",""
"","null","html-keyboard-response","33","73326","0.0-9.0-0.6","eVGAp78mX8","656b41bec018aca657ed8254","6617fad957f7c6a12ea16e26","6622cf5dd054e46a9eebf974","fixation cross","null","","","","","","","","","","","",""
"","1781","html-keyboard-response","34","75110","0.0-9.0-1.6","eVGAp78mX8","656b41bec018aca657ed8254","6617fad957f7c6a12ea16e26","6622cf5dd054e46a9eebf974","image grid"," ","","","","","Phylogenetic_Distractor_notarget","2400","ongrid"," ","6","Phylogenetic","true","practice"
"","null","html-keyboard-response","35","75263","0.0-9.0-2.6","eVGAp78mX8","656b41bec018aca657ed8254","6617fad957f7c6a12ea16e26","6622cf5dd054e46a9eebf974","
    <div id=""grid-container"">
        <!-- Grid items will be dynamically added here -->
    </div>    ","null","","","","","","","","","","","",""
"","null","html-keyboard-response","36","76471","0.0-9.0-3.6","eVGAp78mX8","656b41bec018aca657ed8254","6617fad957f7c6a12ea16e26","6622cf5dd054e46a9eebf974","feedback screen","null","","","","","","","","","","","",""
"","null","html-keyboard-response","37","76981","0.0-9.0-0.7","eVGAp78mX8","656b41bec018aca657ed8254","6617fad957f7c6a12ea16e26","6622cf5dd054e46a9eebf974","fixation cross","null","","","","","","","","","","","",""
"","1066","html-keyboard-response","38","78046","0.0-9.0-1.7","eVGAp78mX8","656b41bec018aca657ed8254","6617fad957f7c6a12ea16e26","6622cf5dd054e46a9eebf974","image grid","q","","","","","Ontogenetic_Distractor_Threat_target","2300","ongrid","q","1","Phylogenetic","true","practice"
"","null","html-keyboard-response","39","78201","0.0-9.0-2.7","eVGAp78mX8","656b41bec018aca657ed8254","6617fad957f7c6a12ea16e26","6622cf5dd054e46a9eebf974","
    <div id=""grid-container"">
        <!-- Grid items will be dynamically added here -->
    </div>    ","null","","","","","","","","","","","",""
"","null","html-keyboard-response","40","79410","0.0-9.0-3.7","eVGAp78mX8","656b41bec018aca657ed8254","6617fad957f7c6a12ea16e26","6622cf5dd054e46a9eebf974","feedback screen","null","","","","","","","","","","","",""
"","null","html-keyboard-response","41","79918","0.0-9.0-0.8","eVGAp78mX8","656b41bec018aca657ed8254","6617fad957f7c6a12ea16e26","6622cf5dd054e46a9eebf974","fixation cross","null","","","","","","","","","","","",""
"","1821","html-keyboard-response","42","81741","0.0-9.0-1.8","eVGAp78mX8","656b41bec018aca657ed8254","6617fad957f7c6a12ea16e26","6622cf5dd054e46a9eebf974","image grid"," ","","","","","Phylogenetic_Distractor_Nonthreat_target","2200","ongrid","p","8","Phylogenetic","false","practice"
"","null","html-keyboard-response","43","81894","0.0-9.0-2.8","eVGAp78mX8","656b41bec018aca657ed8254","6617fad957f7c6a12ea16e26","6622cf5dd054e46a9eebf974","
    <div id=""grid-container"">
        <!-- Grid items will be dynamically added here -->
    </div>    ","null","","","","","","","","","","","",""
"","null","html-keyboard-response","44","83099","0.0-9.0-3.8","eVGAp78mX8","656b41bec018aca657ed8254","6617fad957f7c6a12ea16e26","6622cf5dd054e46a9eebf974","feedback screen","null","","","","","","","","","","","",""
"","null","html-keyboard-response","45","83606","0.0-9.0-0.9","eVGAp78mX8","656b41bec018aca657ed8254","6617fad957f7c6a12ea16e26","6622cf5dd054e46a9eebf974","fixation cross","null","","","","","","","","","","","",""
"","2041","html-keyboard-response","46","85648","0.0-9.0-1.9","eVGAp78mX8","656b41bec018aca657ed8254","6617fad957f7c6a12ea16e26","6622cf5dd054e46a9eebf974","image grid","p","","","","","Phylogenetic_Distractor_Nonthreat_target","2100","ongrid","p","2","Phylogenetic","true","practice"
"","null","html-keyboard-response","47","85801","0.0-9.0-2.9","eVGAp78mX8","656b41bec018aca657ed8254","6617fad957f7c6a12ea16e26","6622cf5dd054e46a9eebf974","
    <div id=""grid-container"">
        <!-- Grid items will be dynamically added here -->
    </div>    ","null","","","","","","","","","","","",""
"","null","html-keyboard-response","48","87005","0.0-9.0-3.9","eVGAp78mX8","656b41bec018aca657ed8254","6617fad957f7c6a12ea16e26","6622cf5dd054e46a9eebf974","feedback screen","null","","","","","","","","","","","",""
"","null","html-keyboard-response","49","87509","0.0-9.0-0.10","eVGAp78mX8","656b41bec018aca657ed8254","6617fad957f7c6a12ea16e26","6622cf5dd054e46a9eebf974","fixation cross","null","","","","","","","","","","","",""
"","1557","html-keyboard-response","50","89066","0.0-9.0-1.10","eVGAp78mX8","656b41bec018aca657ed8254","6617fad957f7c6a12ea16e26","6622cf5dd054e46a9eebf974","image grid"," ","","","","","Ontogenetic_Distractor_Nonthreat_target","2000","ongrid","p","5","Phylogenetic","false","practice"
"","null","html-keyboard-response","51","89221","0.0-9.0-2.10","eVGAp78mX8","656b41bec018aca657ed8254","6617fad957f7c6a12ea16e26","6622cf5dd054e46a9eebf974","
    <div id=""grid-container"">
        <!-- Grid items will be dynamically added here -->
    </div>    ","null","","","","","","","","","","","",""
"","null","html-keyboard-response","52","90430","0.0-9.0-3.10","eVGAp78mX8","656b41bec018aca657ed8254","6617fad957f7c6a12ea16e26","6622cf5dd054e46a9eebf974","feedback screen","null","","","","","","","","","","","",""
"","null","html-keyboard-response","53","90939","0.0-9.0-0.11","eVGAp78mX8","656b41bec018aca657ed8254","6617fad957f7c6a12ea16e26","6622cf5dd054e46a9eebf974","fixation cross","null","","","","","","","","","","","",""
"","1116","html-keyboard-response","54","92056","0.0-9.0-1.11","eVGAp78mX8","656b41bec018aca657ed8254","6617fad957f7c6a12ea16e26","6622cf5dd054e46a9eebf974","image grid","q","","","","","Ontogenetic_Distractor_Threat_target","1900","ongrid","q","5","Phylogenetic","true","practice"
"","null","html-keyboard-response","55","92210","0.0-9.0-2.11","eVGAp78mX8","656b41bec018aca657ed8254","6617fad957f7c6a12ea16e26","6622cf5dd054e46a9eebf974","
    <div id=""grid-container"">
        <!-- Grid items will be dynamically added here -->
    </div>    ","null","","","","","","","","","","","",""
"","null","html-keyboard-response","56","93418","0.0-9.0-3.11","eVGAp78mX8","656b41bec018aca657ed8254","6617fad957f7c6a12ea16e26","6622cf5dd054e46a9eebf974","feedback screen","null","","","","","","","","","","","",""
"","null","html-keyboard-response","57","93928","0.0-9.0-0.12","eVGAp78mX8","656b41bec018aca657ed8254","6617fad957f7c6a12ea16e26","6622cf5dd054e46a9eebf974","fixation cross","null","","","","","","","","","","","",""
"","1446","html-keyboard-response","58","95374","0.0-9.0-1.12","eVGAp78mX8","656b41bec018aca657ed8254","6617fad957f7c6a12ea16e26","6622cf5dd054e46a9eebf974","image grid"," ","","","","","Ontogenetic_Distractor_notarget","1800","ongrid"," ","2","Phylogenetic","true","practice"
"","null","html-keyboard-response","59","95529","0.0-9.0-2.12","eVGAp78mX8","656b41bec018aca657ed8254","6617fad957f7c6a12ea16e26","6622cf5dd054e46a9eebf974","
    <div id=""grid-container"">
        <!-- Grid items will be dynamically added here -->
    </div>    ","null","","","","","","","","","","","",""
"","null","html-keyboard-response","60","96739","0.0-9.0-3.12","eVGAp78mX8","656b41bec018aca657ed8254","6617fad957f7c6a12ea16e26","6622cf5dd054e46a9eebf974","feedback screen","null","","","","","","","","","","","",""
"","null","html-keyboard-response","61","97249","0.0-9.0-0.13","eVGAp78mX8","656b41bec018aca657ed8254","6617fad957f7c6a12ea16e26","6622cf5dd054e46a9eebf974","fixation cross","null","","","","","","","","","","","",""
"","null","html-keyboard-response","62","98958","0.0-9.0-1.13","eVGAp78mX8","656b41bec018aca657ed8254","6617fad957f7c6a12ea16e26","6622cf5dd054e46a9eebf974","
        <div id=""grid-container"">
        <!-- Grid items will be dynamically added here -->
    </div>    ","null","","","","","","","","","","","",""
"","2181","html-keyboard-response","63","99440","0.0-9.0-2.13","eVGAp78mX8","656b41bec018aca657ed8254","6617fad957f7c6a12ea16e26","6622cf5dd054e46a9eebf974","mask grid","p","","","","","Phylogenetic_Distractor_Nonthreat_target","1700","onmask","p","5","Phylogenetic","true","practice"
"","null","html-keyboard-response","64","100649","0.0-9.0-3.13","eVGAp78mX8","656b41bec018aca657ed8254","6617fad957f7c6a12ea16e26","6622cf5dd054e46a9eebf974","feedback screen","null","","","","","","","","","","","",""
"","null","html-keyboard-response","65","101155","0.0-9.0-0.14","eVGAp78mX8","656b41bec018aca657ed8254","6617fad957f7c6a12ea16e26","6622cf5dd054e46a9eebf974","fixation cross","null","","","","","","","","","","","",""
"","null","html-keyboard-response","66","102765","0.0-9.0-1.14","eVGAp78mX8","656b41bec018aca657ed8254","6617fad957f7c6a12ea16e26","6622cf5dd054e46a9eebf974","
        <div id=""grid-container"">
        <!-- Grid items will be dynamically added here -->
    </div>    ","null","","","","","","","","","","","",""
"","1654","html-keyboard-response","67","102820","0.0-9.0-2.14","eVGAp78mX8","656b41bec018aca657ed8254","6617fad957f7c6a12ea16e26","6622cf5dd054e46a9eebf974","mask grid"," ","","","","","Phylogenetic_Distractor_notarget","1600","onmask"," ","4","Phylogenetic","true","practice"
"","null","html-keyboard-response","68","104026","0.0-9.0-3.14","eVGAp78mX8","656b41bec018aca657ed8254","6617fad957f7c6a12ea16e26","6622cf5dd054e46a9eebf974","feedback screen","null","","","","","","","","","","","",""
"","null","html-keyboard-response","69","104535","0.0-9.0-0.15","eVGAp78mX8","656b41bec018aca657ed8254","6617fad957f7c6a12ea16e26","6622cf5dd054e46a9eebf974","fixation cross","null","","","","","","","","","","","",""
"","1165","html-keyboard-response","70","105702","0.0-9.0-1.15","eVGAp78mX8","656b41bec018aca657ed8254","6617fad957f7c6a12ea16e26","6622cf5dd054e46a9eebf974","image grid"," ","","","","","Phylogenetic_Distractor_Threat_target","1500","ongrid","q","8","Phylogenetic","false","practice"
"","null","html-keyboard-response","71","105856","0.0-9.0-2.15","eVGAp78mX8","656b41bec018aca657ed8254","6617fad957f7c6a12ea16e26","6622cf5dd054e46a9eebf974","
    <div id=""grid-container"">
        <!-- Grid items will be dynamically added here -->
    </div>    ","null","","","","","","","","","","","",""
"","null","html-keyboard-response","72","107065","0.0-9.0-3.15","eVGAp78mX8","656b41bec018aca657ed8254","6617fad957f7c6a12ea16e26","6622cf5dd054e46a9eebf974","feedback screen","null","","","","","","","","","","","",""
"","null","html-keyboard-response","73","107574","0.0-9.0-0.16","eVGAp78mX8","656b41bec018aca657ed8254","6617fad957f7c6a12ea16e26","6622cf5dd054e46a9eebf974","fixation cross","null","","","","","","","","","","","",""
"","851","html-keyboard-response","74","108426","0.0-9.0-1.16","eVGAp78mX8","656b41bec018aca657ed8254","6617fad957f7c6a12ea16e26","6622cf5dd054e46a9eebf974","image grid","q","","","","","Ontogenetic_Distractor_Threat_target","1400","ongrid","q","3","Phylogenetic","true","practice"
"","null","html-keyboard-response","75","108581","0.0-9.0-2.16","eVGAp78mX8","656b41bec018aca657ed8254","6617fad957f7c6a12ea16e26","6622cf5dd054e46a9eebf974","
    <div id=""grid-container"">
        <!-- Grid items will be dynamically added here -->
    </div>    ","null","","","","","","","","","","","",""
"","null","html-keyboard-response","76","109794","0.0-9.0-3.16","eVGAp78mX8","656b41bec018aca657ed8254","6617fad957f7c6a12ea16e26","6622cf5dd054e46a9eebf974","feedback screen","null","","","","","","","","","","","",""
"","null","html-keyboard-response","77","110306","0.0-9.0-0.17","eVGAp78mX8","656b41bec018aca657ed8254","6617fad957f7c6a12ea16e26","6622cf5dd054e46a9eebf974","fixation cross","null","","","","","","","","","","","",""
"","657","html-keyboard-response","78","110964","0.0-9.0-1.17","eVGAp78mX8","656b41bec018aca657ed8254","6617fad957f7c6a12ea16e26","6622cf5dd054e46a9eebf974","image grid","q","","","","","Ontogenetic_Distractor_Threat_target","1300","ongrid","q","1","Phylogenetic","true","practice"
"","null","html-keyboard-response","79","111115","0.0-9.0-2.17","eVGAp78mX8","656b41bec018aca657ed8254","6617fad957f7c6a12ea16e26","6622cf5dd054e46a9eebf974","
    <div id=""grid-container"">
        <!-- Grid items will be dynamically added here -->
    </div>    ","null","","","","","","","","","","","",""
"","null","html-keyboard-response","80","112327","0.0-9.0-3.17","eVGAp78mX8","656b41bec018aca657ed8254","6617fad957f7c6a12ea16e26","6622cf5dd054e46a9eebf974","feedback screen","null","","","","","","","","","","","",""
"","null","html-keyboard-response","81","112835","0.0-9.0-0.18","eVGAp78mX8","656b41bec018aca657ed8254","6617fad957f7c6a12ea16e26","6622cf5dd054e46a9eebf974","fixation cross","null","","","","","","","","","","","",""
"","null","html-keyboard-response","82","114043","0.0-9.0-1.18","eVGAp78mX8","656b41bec018aca657ed8254","6617fad957f7c6a12ea16e26","6622cf5dd054e46a9eebf974","
        <div id=""grid-container"">
        <!-- Grid items will be dynamically added here -->
    </div>    ","null","","","","","","","","","","","",""
"","1500","html-keyboard-response","83","114345","0.0-9.0-2.18","eVGAp78mX8","656b41bec018aca657ed8254","6617fad957f7c6a12ea16e26","6622cf5dd054e46a9eebf974","mask grid"," ","","","","","Phylogenetic_Distractor_Nonthreat_target","1200","onmask","p","4","Phylogenetic","false","practice"
"","null","html-keyboard-response","84","115554","0.0-9.0-3.18","eVGAp78mX8","656b41bec018aca657ed8254","6617fad957f7c6a12ea16e26","6622cf5dd054e46a9eebf974","feedback screen","null","","","","","","","","","","","",""
"","null","html-keyboard-response","85","116062","0.0-9.0-0.19","eVGAp78mX8","656b41bec018aca657ed8254","6617fad957f7c6a12ea16e26","6622cf5dd054e46a9eebf974","fixation cross","null","","","","","","","","","","","",""
"","860","html-keyboard-response","86","116923","0.0-9.0-1.19","eVGAp78mX8","656b41bec018aca657ed8254","6617fad957f7c6a12ea16e26","6622cf5dd054e46a9eebf974","image grid","p","","","","","Ontogenetic_Distractor_Nonthreat_target","1100","ongrid","p","1","Phylogenetic","true","practice"
"","null","html-keyboard-response","87","117076","0.0-9.0-2.19","eVGAp78mX8","656b41bec018aca657ed8254","6617fad957f7c6a12ea16e26","6622cf5dd054e46a9eebf974","
    <div id=""grid-container"">
        <!-- Grid items will be dynamically added here -->
    </div>    ","null","","","","","","","","","","","",""
"","null","html-keyboard-response","88","118287","0.0-9.0-3.19","eVGAp78mX8","656b41bec018aca657ed8254","6617fad957f7c6a12ea16e26","6622cf5dd054e46a9eebf974","feedback screen","null","","","","","","","","","","","",""
"","6464","html-keyboard-response","89","124809","0.0-10.0","eVGAp78mX8","656b41bec018aca657ed8254","6617fad957f7c6a12ea16e26","6622cf5dd054e46a9eebf974","pre-experimental_briefing"," ","","","","","","","","","","","",""
"","null","html-keyboard-response","90","127381","0.0-11.0-0.0","eVGAp78mX8","656b41bec018aca657ed8254","6617fad957f7c6a12ea16e26","6622cf5dd054e46a9eebf974","fixation cross","null","","","","","","","","","","","",""
"","null","html-keyboard-response","91","128189","0.0-11.0-1.0","eVGAp78mX8","656b41bec018aca657ed8254","6617fad957f7c6a12ea16e26","6622cf5dd054e46a9eebf974","
        <div id=""grid-container"">
        <!-- Grid items will be dynamically added here -->
    </div>    ","null","","","","","","","","","","","",""
"","1524","html-keyboard-response","92","128913","0.0-11.0-2.0","eVGAp78mX8","656b41bec018aca657ed8254","6617fad957f7c6a12ea16e26","6622cf5dd054e46a9eebf974","mask grid","p","","","","","Phylogenetic_Distractor_Nonthreat_target","800","onmask","p","3","Phylogenetic","true","experimental"
"","null","html-keyboard-response","93","129621","0.0-11.0-0.1","eVGAp78mX8","656b41bec018aca657ed8254","6617fad957f7c6a12ea16e26","6622cf5dd054e46a9eebf974","fixation cross","null","","","","","","","","","","","",""
"","null","html-keyboard-response","94","130423","0.0-11.0-1.1","eVGAp78mX8","656b41bec018aca657ed8254","6617fad957f7c6a12ea16e26","6622cf5dd054e46a9eebf974","
        <div id=""grid-container"">
        <!-- Grid items will be dynamically added here -->
    </div>    ","null","","","","","","","","","","","",""
"","814","html-keyboard-response","95","130438","0.0-11.0-2.1","eVGAp78mX8","656b41bec018aca657ed8254","6617fad957f7c6a12ea16e26","6622cf5dd054e46a9eebf974","mask grid","p","","","","","Phylogenetic_Distractor_Threat_target","800","onmask","q","2","Phylogenetic","false","experimental"
"","null","html-keyboard-response","96","131145","0.0-11.0-0.2","eVGAp78mX8","656b41bec018aca657ed8254","6617fad957f7c6a12ea16e26","6622cf5dd054e46a9eebf974","fixation cross","null","","","","","","","","","","","",""
"","null","html-keyboard-response","97","131952","0.0-11.0-1.2","eVGAp78mX8","656b41bec018aca657ed8254","6617fad957f7c6a12ea16e26","6622cf5dd054e46a9eebf974","
        <div id=""grid-container"">
        <!-- Grid items will be dynamically added here -->
    </div>    ","null","","","","","","","","","","","",""
"","857","html-keyboard-response","98","132011","0.0-11.0-2.2","eVGAp78mX8","656b41bec018aca657ed8254","6617fad957f7c6a12ea16e26","6622cf5dd054e46a9eebf974","mask grid","p","","","","","Phylogenetic_Distractor_Nonthreat_target","800","onmask","p","2","Phylogenetic","true","experimental"
"","null","html-keyboard-response","99","132717","0.0-11.0-0.3","eVGAp78mX8","656b41bec018aca657ed8254","6617fad957f7c6a12ea16e26","6622cf5dd054e46a9eebf974","fixation cross","null","","","","","","","","","","","",""
"","null","html-keyboard-response","100","133522","0.0-11.0-1.3","eVGAp78mX8","656b41bec018aca657ed8254","6617fad957f7c6a12ea16e26","6622cf5dd054e46a9eebf974","
        <div id=""grid-container"">
        <!-- Grid items will be dynamically added here -->
    </div>    ","null","","","","","","","","","","","",""
"","1141","html-keyboard-response","101","133865","0.0-11.0-2.3","eVGAp78mX8","656b41bec018aca657ed8254","6617fad957f7c6a12ea16e26","6622cf5dd054e46a9eebf974","mask grid"," ","","","","","Phylogenetic_Distractor_Threat_target","800","onmask","q","2","Phylogenetic","false","experimental"
"","null","html-keyboard-response","102","134577","0.0-11.0-0.4","eVGAp78mX8","656b41bec018aca657ed8254","6617fad957f7c6a12ea16e26","6622cf5dd054e46a9eebf974","fixation cross","null","","","","","","","","","","","",""
"","637","html-keyboard-response","103","135214","0.0-11.0-1.4","eVGAp78mX8","656b41bec018aca657ed8254","6617fad957f7c6a12ea16e26","6622cf5dd054e46a9eebf974","image grid","q","","","","","Phylogenetic_Distractor_Threat_target","800","ongrid","q","4","Phylogenetic","true","experimental"
"","null","html-keyboard-response","104","135367","0.0-11.0-2.4","eVGAp78mX8","656b41bec018aca657ed8254","6617fad957f7c6a12ea16e26","6622cf5dd054e46a9eebf974","
    <div id=""grid-container"">
        <!-- Grid items will be dynamically added here -->
    </div>    ","null","","","","","","","","","","","",""
"","null","html-keyboard-response","105","136075","0.0-11.0-0.5","eVGAp78mX8","656b41bec018aca657ed8254","6617fad957f7c6a12ea16e26","6622cf5dd054e46a9eebf974","fixation cross","null","","","","","","","","","","","",""
"","593","html-keyboard-response","106","136669","0.0-11.0-1.5","eVGAp78mX8","656b41bec018aca657ed8254","6617fad957f7c6a12ea16e26","6622cf5dd054e46a9eebf974","image grid","q","","","","","Phylogenetic_Distractor_Threat_target","800","ongrid","q","4","Phylogenetic","true","experimental"
"","null","html-keyboard-response","107","136825","0.0-11.0-2.5","eVGAp78mX8","656b41bec018aca657ed8254","6617fad957f7c6a12ea16e26","6622cf5dd054e46a9eebf974","
    <div id=""grid-container"">
        <!-- Grid items will be dynamically added here -->
    </div>    ","null","","","","","","","","","","","",""
"","null","html-keyboard-response","108","137534","0.0-11.0-0.6","eVGAp78mX8","656b41bec018aca657ed8254","6617fad957f7c6a12ea16e26","6622cf5dd054e46a9eebf974","fixation cross","null","","","","","","","","","","","",""
"","null","html-keyboard-response","109","138338","0.0-11.0-1.6","eVGAp78mX8","656b41bec018aca657ed8254","6617fad957f7c6a12ea16e26","6622cf5dd054e46a9eebf974","
        <div id=""grid-container"">
        <!-- Grid items will be dynamically added here -->
    </div>    ","null","","","","","","","","","","","",""
"","1116","html-keyboard-response","110","138656","0.0-11.0-2.6","eVGAp78mX8","656b41bec018aca657ed8254","6617fad957f7c6a12ea16e26","6622cf5dd054e46a9eebf974","mask grid"," ","","","","","Phylogenetic_Distractor_Nonthreat_target","800","onmask","p","2","Phylogenetic","false","experimental"
"","null","html-keyboard-response","111","139361","0.0-11.0-0.7","eVGAp78mX8","656b41bec018aca657ed8254","6617fad957f7c6a12ea16e26","6622cf5dd054e46a9eebf974","fixation cross","null","","","","","","","","","","","",""
"","null","html-keyboard-response","112","140166","0.0-11.0-1.7","eVGAp78mX8","656b41bec018aca657ed8254","6617fad957f7c6a12ea16e26","6622cf5dd054e46a9eebf974","
        <div id=""grid-container"">
        <!-- Grid items will be dynamically added here -->
    </div>    ","null","","","","","","","","","","","",""
"","959","html-keyboard-response","113","140326","0.0-11.0-2.7","eVGAp78mX8","656b41bec018aca657ed8254","6617fad957f7c6a12ea16e26","6622cf5dd054e46a9eebf974","mask grid","q","","","","","Phylogenetic_Distractor_Threat_target","800","onmask","q","1","Phylogenetic","true","experimental"
"","null","html-keyboard-response","114","141038","0.0-11.0-0.8","eVGAp78mX8","656b41bec018aca657ed8254","6617fad957f7c6a12ea16e26","6622cf5dd054e46a9eebf974","fixation cross","null","","","","","","","","","","","",""
"","787","html-keyboard-response","115","141826","0.0-11.0-1.8","eVGAp78mX8","656b41bec018aca657ed8254","6617fad957f7c6a12ea16e26","6622cf5dd054e46a9eebf974","image grid","q","","","","","Phylogenetic_Distractor_Threat_target","800","ongrid","q","4","Phylogenetic","true","experimental"
"","null","html-keyboard-response","116","141980","0.0-11.0-2.8","eVGAp78mX8","656b41bec018aca657ed8254","6617fad957f7c6a12ea16e26","6622cf5dd054e46a9eebf974","
    <div id=""grid-container"">
        <!-- Grid items will be dynamically added here -->
    </div>    ","null","","","","","","","","","","","",""
"","null","html-keyboard-response","117","142687","0.0-11.0-0.9","eVGAp78mX8","656b41bec018aca657ed8254","6617fad957f7c6a12ea16e26","6622cf5dd054e46a9eebf974","fixation cross","null","","","","","","","","","","","",""
"","580","html-keyboard-response","118","143268","0.0-11.0-1.9","eVGAp78mX8","656b41bec018aca657ed8254","6617fad957f7c6a12ea16e26","6622cf5dd054e46a9eebf974","image grid","q","","","","","Phylogenetic_Distractor_Threat_target","800","ongrid","q","4","Phylogenetic","true","experimental"
"","null","html-keyboard-response","119","143423","0.0-11.0-2.9","eVGAp78mX8","656b41bec018aca657ed8254","6617fad957f7c6a12ea16e26","6622cf5dd054e46a9eebf974","
    <div id=""grid-container"">
        <!-- Grid items will be dynamically added here -->
    </div>    ","null","","","","","","","","","","","",""
"","null","html-keyboard-response","120","144133","0.0-11.0-0.10","eVGAp78mX8","656b41bec018aca657ed8254","6617fad957f7c6a12ea16e26","6622cf5dd054e46a9eebf974","fixation cross","null","","","","","","","","","","","",""
"","584","html-keyboard-response","121","144718","0.0-11.0-1.10","eVGAp78mX8","656b41bec018aca657ed8254","6617fad957f7c6a12ea16e26","6622cf5dd054e46a9eebf974","image grid","q","","","","","Phylogenetic_Distractor_Threat_target","800","ongrid","q","5","Phylogenetic","true","experimental"
"","null","html-keyboard-response","122","144875","0.0-11.0-2.10","eVGAp78mX8","656b41bec018aca657ed8254","6617fad957f7c6a12ea16e26","6622cf5dd054e46a9eebf974","
    <div id=""grid-container"">
        <!-- Grid items will be dynamically added here -->
    </div>    ","null","","","","","","","","","","","",""
"","null","html-keyboard-response","123","145584","0.0-11.0-0.11","eVGAp78mX8","656b41bec018aca657ed8254","6617fad957f7c6a12ea16e26","6622cf5dd054e46a9eebf974","fixation cross","null","","","","","","","","","","","",""
"","697","html-keyboard-response","124","146282","0.0-11.0-1.11","eVGAp78mX8","656b41bec018aca657ed8254","6617fad957f7c6a12ea16e26","6622cf5dd054e46a9eebf974","image grid","q","","","","","Phylogenetic_Distractor_Threat_target","800","ongrid","q","8","Phylogenetic","true","experimental"
"","null","html-keyboard-response","125","146437","0.0-11.0-2.11","eVGAp78mX8","656b41bec018aca657ed8254","6617fad957f7c6a12ea16e26","6622cf5dd054e46a9eebf974","
    <div id=""grid-container"">
        <!-- Grid items will be dynamically added here -->
    </div>    ","null","","","","","","","","","","","",""
"","null","html-keyboard-response","126","147144","0.0-11.0-0.12","eVGAp78mX8","656b41bec018aca657ed8254","6617fad957f7c6a12ea16e26","6622cf5dd054e46a9eebf974","fixation cross","null","","","","","","","","","","","",""
"","null","html-keyboard-response","127","147949","0.0-11.0-1.12","eVGAp78mX8","656b41bec018aca657ed8254","6617fad957f7c6a12ea16e26","6622cf5dd054e46a9eebf974","
        <div id=""grid-container"">
        <!-- Grid items will be dynamically added here -->
    </div>    ","null","","","","","","","","","","","",""
"","912","html-keyboard-response","128","148062","0.0-11.0-2.12","eVGAp78mX8","656b41bec018aca657ed8254","6617fad957f7c6a12ea16e26","6622cf5dd054e46a9eebf974","mask grid"," ","","","","","Phylogenetic_Distractor_Nonthreat_target","800","onmask","p","2","Phylogenetic","false","experimental"
"","null","html-keyboard-response","129","148769","0.0-11.0-0.13","eVGAp78mX8","656b41bec018aca657ed8254","6617fad957f7c6a12ea16e26","6622cf5dd054e46a9eebf974","fixation cross","null","","","","","","","","","","","",""
"","null","html-keyboard-response","130","149576","0.0-11.0-1.13","eVGAp78mX8","656b41bec018aca657ed8254","6617fad957f7c6a12ea16e26","6622cf5dd054e46a9eebf974","
        <div id=""grid-container"">
        <!-- Grid items will be dynamically added here -->
    </div>    ","null","","","","","","","","","","","",""
"","853","html-keyboard-response","131","149630","0.0-11.0-2.13","eVGAp78mX8","656b41bec018aca657ed8254","6617fad957f7c6a12ea16e26","6622cf5dd054e46a9eebf974","mask grid","p","","","","","Phylogenetic_Distractor_Nonthreat_target","800","onmask","p","9","Phylogenetic","true","experimental"
"","null","html-keyboard-response","132","150339","0.0-11.0-0.14","eVGAp78mX8","656b41bec018aca657ed8254","6617fad957f7c6a12ea16e26","6622cf5dd054e46a9eebf974","fixation cross","null","","","","","","","","","","","",""
"","null","html-keyboard-response","133","151146","0.0-11.0-1.14","eVGAp78mX8","656b41bec018aca657ed8254","6617fad957f7c6a12ea16e26","6622cf5dd054e46a9eebf974","
        <div id=""grid-container"">
        <!-- Grid items will be dynamically added here -->
    </div>    ","null","","","","","","","","","","","",""
"","1362","html-keyboard-response","134","151708","0.0-11.0-2.14","eVGAp78mX8","656b41bec018aca657ed8254","6617fad957f7c6a12ea16e26","6622cf5dd054e46a9eebf974","mask grid"," ","","","","","Phylogenetic_Distractor_Nonthreat_target","800","onmask","p","2","Phylogenetic","false","experimental"
"","null","html-keyboard-response","135","152419","0.0-11.0-0.15","eVGAp78mX8","656b41bec018aca657ed8254","6617fad957f7c6a12ea16e26","6622cf5dd054e46a9eebf974","fixation cross","null","","","","","","","","","","","",""
"","null","html-keyboard-response","136","153223","0.0-11.0-1.15","eVGAp78mX8","656b41bec018aca657ed8254","6617fad957f7c6a12ea16e26","6622cf5dd054e46a9eebf974","
        <div id=""grid-container"">
        <!-- Grid items will be dynamically added here -->
    </div>    ","null","","","","","","","","","","","",""
"","1015","html-keyboard-response","137","153440","0.0-11.0-2.15","eVGAp78mX8","656b41bec018aca657ed8254","6617fad957f7c6a12ea16e26","6622cf5dd054e46a9eebf974","mask grid","p","","","","","Phylogenetic_Distractor_Nonthreat_target","800","onmask","p","7","Phylogenetic","true","experimental"
"","null","html-keyboard-response","138","154147","0.0-11.0-0.16","eVGAp78mX8","656b41bec018aca657ed8254","6617fad957f7c6a12ea16e26","6622cf5dd054e46a9eebf974","fixation cross","null","","","","","","","","","","","",""
"","null","html-keyboard-response","139","154954","0.0-11.0-1.16","eVGAp78mX8","656b41bec018aca657ed8254","6617fad957f7c6a12ea16e26","6622cf5dd054e46a9eebf974","
        <div id=""grid-container"">
        <!-- Grid items will be dynamically added here -->
    </div>    ","null","","","","","","","","","","","",""
"","1320","html-keyboard-response","140","155474","0.0-11.0-2.16","eVGAp78mX8","656b41bec018aca657ed8254","6617fad957f7c6a12ea16e26","6622cf5dd054e46a9eebf974","mask grid","p","","","","","Phylogenetic_Distractor_Nonthreat_target","800","onmask","p","3","Phylogenetic","true","experimental"
"","null","html-keyboard-response","141","156181","0.0-11.0-0.17","eVGAp78mX8","656b41bec018aca657ed8254","6617fad957f7c6a12ea16e26","6622cf5dd054e46a9eebf974","fixation cross","null","","","","","","","","","","","",""
"","null","html-keyboard-response","142","156988","0.0-11.0-1.17","eVGAp78mX8","656b41bec018aca657ed8254","6617fad957f7c6a12ea16e26","6622cf5dd054e46a9eebf974","
        <div id=""grid-container"">
        <!-- Grid items will be dynamically added here -->
    </div>    ","null","","","","","","","","","","","",""
"","1337","html-keyboard-response","143","157527","0.0-11.0-2.17","eVGAp78mX8","656b41bec018aca657ed8254","6617fad957f7c6a12ea16e26","6622cf5dd054e46a9eebf974","mask grid","p","","","","","Phylogenetic_Distractor_Nonthreat_target","800","onmask","p","7","Phylogenetic","true","experimental"
"","null","html-keyboard-response","144","158235","0.0-11.0-0.18","eVGAp78mX8","656b41bec018aca657ed8254","6617fad957f7c6a12ea16e26","6622cf5dd054e46a9eebf974","fixation cross","null","","","","","","","","","","","",""
"","null","html-keyboard-response","145","159036","0.0-11.0-1.18","eVGAp78mX8","656b41bec018aca657ed8254","6617fad957f7c6a12ea16e26","6622cf5dd054e46a9eebf974","
        <div id=""grid-container"">
        <!-- Grid items will be dynamically added here -->
    </div>    ","null","","","","","","","","","","","",""
"","1146","html-keyboard-response","146","159384","0.0-11.0-2.18","eVGAp78mX8","656b41bec018aca657ed8254","6617fad957f7c6a12ea16e26","6622cf5dd054e46a9eebf974","mask grid"," ","","","","","Phylogenetic_Distractor_Threat_target","800","onmask","q","4","Phylogenetic","false","experimental"
"","null","html-keyboard-response","147","160095","0.0-11.0-0.19","eVGAp78mX8","656b41bec018aca657ed8254","6617fad957f7c6a12ea16e26","6622cf5dd054e46a9eebf974","fixation cross","null","","","","","","","","","","","",""
"","749","html-keyboard-response","148","160845","0.0-11.0-1.19","eVGAp78mX8","656b41bec018aca657ed8254","6617fad957f7c6a12ea16e26","6622cf5dd054e46a9eebf974","image grid","q","","","","","Phylogenetic_Distractor_Threat_target","800","ongrid","q","9","Phylogenetic","true","experimental"
"","null","html-keyboard-response","149","161000","0.0-11.0-2.19","eVGAp78mX8","656b41bec018aca657ed8254","6617fad957f7c6a12ea16e26","6622cf5dd054e46a9eebf974","
    <div id=""grid-container"">
        <!-- Grid items will be dynamically added here -->
    </div>    ","null","","","","","","","","","","","",""
"","null","html-keyboard-response","150","161705","0.0-11.0-0.20","eVGAp78mX8","656b41bec018aca657ed8254","6617fad957f7c6a12ea16e26","6622cf5dd054e46a9eebf974","fixation cross","null","","","","","","","","","","","",""
"","null","html-keyboard-response","151","162512","0.0-11.0-1.20","eVGAp78mX8","656b41bec018aca657ed8254","6617fad957f7c6a12ea16e26","6622cf5dd054e46a9eebf974","
        <div id=""grid-container"">
        <!-- Grid items will be dynamically added here -->
    </div>    ","null","","","","","","","","","","","",""
"","1298","html-keyboard-response","152","163013","0.0-11.0-2.20","eVGAp78mX8","656b41bec018aca657ed8254","6617fad957f7c6a12ea16e26","6622cf5dd054e46a9eebf974","mask grid"," ","","","","","Phylogenetic_Distractor_Nonthreat_target","800","onmask","p","5","Phylogenetic","false","experimental"
"","null","html-keyboard-response","153","163722","0.0-11.0-0.21","eVGAp78mX8","656b41bec018aca657ed8254","6617fad957f7c6a12ea16e26","6622cf5dd054e46a9eebf974","fixation cross","null","","","","","","","","","","","",""
"","639","html-keyboard-response","154","164362","0.0-11.0-1.21","eVGAp78mX8","656b41bec018aca657ed8254","6617fad957f7c6a12ea16e26","6622cf5dd054e46a9eebf974","image grid","q","","","","","Phylogenetic_Distractor_Threat_target","800","ongrid","q","9","Phylogenetic","true","experimental"
"","null","html-keyboard-response","155","164517","0.0-11.0-2.21","eVGAp78mX8","656b41bec018aca657ed8254","6617fad957f7c6a12ea16e26","6622cf5dd054e46a9eebf974","
    <div id=""grid-container"">
        <!-- Grid items will be dynamically added here -->
    </div>    ","null","","","","","","","","","","","",""
"","null","html-keyboard-response","156","165226","0.0-11.0-0.22","eVGAp78mX8","656b41bec018aca657ed8254","6617fad957f7c6a12ea16e26","6622cf5dd054e46a9eebf974","fixation cross","null","","","","","","","","","","","",""
"","565","html-keyboard-response","157","165791","0.0-11.0-1.22","eVGAp78mX8","656b41bec018aca657ed8254","6617fad957f7c6a12ea16e26","6622cf5dd054e46a9eebf974","image grid","q","","","","","Phylogenetic_Distractor_Threat_target","800","ongrid","q","4","Phylogenetic","true","experimental"
"","null","html-keyboard-response","158","165945","0.0-11.0-2.22","eVGAp78mX8","656b41bec018aca657ed8254","6617fad957f7c6a12ea16e26","6622cf5dd054e46a9eebf974","
    <div id=""grid-container"">
        <!-- Grid items will be dynamically added here -->
    </div>    ","null","","","","","","","","","","","",""
"","null","html-keyboard-response","159","166658","0.0-11.0-0.23","eVGAp78mX8","656b41bec018aca657ed8254","6617fad957f7c6a12ea16e26","6622cf5dd054e46a9eebf974","fixation cross","null","","","","","","","","","","","",""
"","null","html-keyboard-response","160","167462","0.0-11.0-1.23","eVGAp78mX8","656b41bec018aca657ed8254","6617fad957f7c6a12ea16e26","6622cf5dd054e46a9eebf974","
        <div id=""grid-container"">
        <!-- Grid items will be dynamically added here -->
    </div>    ","null","","","","","","","","","","","",""
"","1095","html-keyboard-response","161","167757","0.0-11.0-2.23","eVGAp78mX8","656b41bec018aca657ed8254","6617fad957f7c6a12ea16e26","6622cf5dd054e46a9eebf974","mask grid"," ","","","","","Phylogenetic_Distractor_notarget","800","onmask"," ","1","Phylogenetic","true","experimental"
"","null","html-keyboard-response","162","168471","0.0-11.0-0.24","eVGAp78mX8","656b41bec018aca657ed8254","6617fad957f7c6a12ea16e26","6622cf5dd054e46a9eebf974","fixation cross","null","","","","","","","","","","","",""
"","null","html-keyboard-response","163","169278","0.0-11.0-1.24","eVGAp78mX8","656b41bec018aca657ed8254","6617fad957f7c6a12ea16e26","6622cf5dd054e46a9eebf974","
        <div id=""grid-container"">
        <!-- Grid items will be dynamically added here -->
    </div>    ","null","","","","","","","","","","","",""
"","1224","html-keyboard-response","164","169704","0.0-11.0-2.24","eVGAp78mX8","656b41bec018aca657ed8254","6617fad957f7c6a12ea16e26","6622cf5dd054e46a9eebf974","mask grid","q","","","","","Phylogenetic_Distractor_notarget","800","onmask"," ","7","Phylogenetic","false","experimental"
"","null","html-keyboard-response","165","170416","0.0-11.0-0.25","eVGAp78mX8","656b41bec018aca657ed8254","6617fad957f7c6a12ea16e26","6622cf5dd054e46a9eebf974","fixation cross","null","","","","","","","","","","","",""
"","null","html-keyboard-response","166","171224","0.0-11.0-1.25","eVGAp78mX8","656b41bec018aca657ed8254","6617fad957f7c6a12ea16e26","6622cf5dd054e46a9eebf974","
        <div id=""grid-container"">
        <!-- Grid items will be dynamically added here -->
    </div>    ","null","","","","","","","","","","","",""
"","1230","html-keyboard-response","167","171656","0.0-11.0-2.25","eVGAp78mX8","656b41bec018aca657ed8254","6617fad957f7c6a12ea16e26","6622cf5dd054e46a9eebf974","mask grid","p","","","","","Phylogenetic_Distractor_Nonthreat_target","800","onmask","p","7","Phylogenetic","true","experimental"
"","null","html-keyboard-response","168","172362","0.0-11.0-0.26","eVGAp78mX8","656b41bec018aca657ed8254","6617fad957f7c6a12ea16e26","6622cf5dd054e46a9eebf974","fixation cross","null","","","","","","","","","","","",""
"","null","html-keyboard-response","169","173167","0.0-11.0-1.26","eVGAp78mX8","656b41bec018aca657ed8254","6617fad957f7c6a12ea16e26","6622cf5dd054e46a9eebf974","
        <div id=""grid-container"">
        <!-- Grid items will be dynamically added here -->
    </div>    ","null","","","","","","","","","","","",""
"","1542","html-keyboard-response","170","173910","0.0-11.0-2.26","eVGAp78mX8","656b41bec018aca657ed8254","6617fad957f7c6a12ea16e26","6622cf5dd054e46a9eebf974","mask grid"," ","","","","","Phylogenetic_Distractor_Nonthreat_target","800","onmask","p","4","Phylogenetic","false","experimental"
"","null","html-keyboard-response","171","174619","0.0-11.0-0.27","eVGAp78mX8","656b41bec018aca657ed8254","6617fad957f7c6a12ea16e26","6622cf5dd054e46a9eebf974","fixation cross","null","","","","","","","","","","","",""
"","null","html-keyboard-response","172","175426","0.0-11.0-1.27","eVGAp78mX8","656b41bec018aca657ed8254","6617fad957f7c6a12ea16e26","6622cf5dd054e46a9eebf974","
        <div id=""grid-container"">
        <!-- Grid items will be dynamically added here -->
    </div>    ","null","","","","","","","","","","","",""
"","1161","html-keyboard-response","173","175788","0.0-11.0-2.27","eVGAp78mX8","656b41bec018aca657ed8254","6617fad957f7c6a12ea16e26","6622cf5dd054e46a9eebf974","mask grid"," ","","","","","Phylogenetic_Distractor_notarget","800","onmask"," ","8","Phylogenetic","true","experimental"
"","null","html-keyboard-response","174","176497","0.0-11.0-0.28","eVGAp78mX8","656b41bec018aca657ed8254","6617fad957f7c6a12ea16e26","6622cf5dd054e46a9eebf974","fixation cross","null","","","","","","","","","","","",""
"","729","html-keyboard-response","175","177226","0.0-11.0-1.28","eVGAp78mX8","656b41bec018aca657ed8254","6617fad957f7c6a12ea16e26","6622cf5dd054e46a9eebf974","image grid","p","","","","","Phylogenetic_Distractor_Nonthreat_target","800","ongrid","p","2","Phylogenetic","true","experimental"
"","null","html-keyboard-response","176","177380","0.0-11.0-2.28","eVGAp78mX8","656b41bec018aca657ed8254","6617fad957f7c6a12ea16e26","6622cf5dd054e46a9eebf974","
    <div id=""grid-container"">
        <!-- Grid items will be dynamically added here -->
    </div>    ","null","","","","","","","","","","","",""
"","null","html-keyboard-response","177","178088","0.0-11.0-0.29","eVGAp78mX8","656b41bec018aca657ed8254","6617fad957f7c6a12ea16e26","6622cf5dd054e46a9eebf974","fixation cross","null","","","","","","","","","","","",""
"","null","html-keyboard-response","178","178896","0.0-11.0-1.29","eVGAp78mX8","656b41bec018aca657ed8254","6617fad957f7c6a12ea16e26","6622cf5dd054e46a9eebf974","
        <div id=""grid-container"">
        <!-- Grid items will be dynamically added here -->
    </div>    ","null","","","","","","","","","","","",""
"","1348","html-keyboard-response","179","179446","0.0-11.0-2.29","eVGAp78mX8","656b41bec018aca657ed8254","6617fad957f7c6a12ea16e26","6622cf5dd054e46a9eebf974","mask grid","p","","","","","Phylogenetic_Distractor_Nonthreat_target","800","onmask","p","4","Phylogenetic","true","experimental"
"","null","html-keyboard-response","180","180153","0.0-11.0-0.30","eVGAp78mX8","656b41bec018aca657ed8254","6617fad957f7c6a12ea16e26","6622cf5dd054e46a9eebf974","fixation cross","null","","","","","","","","","","","",""
"","null","html-keyboard-response","181","180959","0.0-11.0-1.30","eVGAp78mX8","656b41bec018aca657ed8254","6617fad957f7c6a12ea16e26","6622cf5dd054e46a9eebf974","
        <div id=""grid-container"">
        <!-- Grid items will be dynamically added here -->
    </div>    ","null","","","","","","","","","","","",""
"","932","html-keyboard-response","182","181093","0.0-11.0-2.30","eVGAp78mX8","656b41bec018aca657ed8254","6617fad957f7c6a12ea16e26","6622cf5dd054e46a9eebf974","mask grid","q","","","","","Phylogenetic_Distractor_Threat_target","800","onmask","q","5","Phylogenetic","true","experimental"
"","null","html-keyboard-response","183","181798","0.0-11.0-0.31","eVGAp78mX8","656b41bec018aca657ed8254","6617fad957f7c6a12ea16e26","6622cf5dd054e46a9eebf974","fixation cross","null","","","","","","","","","","","",""
"","null","html-keyboard-response","184","182605","0.0-11.0-1.31","eVGAp78mX8","656b41bec018aca657ed8254","6617fad957f7c6a12ea16e26","6622cf5dd054e46a9eebf974","
        <div id=""grid-container"">
        <!-- Grid items will be dynamically added here -->
    </div>    ","null","","","","","","","","","","","",""
"","1246","html-keyboard-response","185","183051","0.0-11.0-2.31","eVGAp78mX8","656b41bec018aca657ed8254","6617fad957f7c6a12ea16e26","6622cf5dd054e46a9eebf974","mask grid","p","","","","","Phylogenetic_Distractor_Nonthreat_target","800","onmask","p","3","Phylogenetic","true","experimental"
"","null","html-keyboard-response","186","183761","0.0-11.0-0.32","eVGAp78mX8","656b41bec018aca657ed8254","6617fad957f7c6a12ea16e26","6622cf5dd054e46a9eebf974","fixation cross","null","","","","","","","","","","","",""
"","null","html-keyboard-response","187","184568","0.0-11.0-1.32","eVGAp78mX8","656b41bec018aca657ed8254","6617fad957f7c6a12ea16e26","6622cf5dd054e46a9eebf974","
        <div id=""grid-container"">
        <!-- Grid items will be dynamically added here -->
    </div>    ","null","","","","","","","","","","","",""
"","840","html-keyboard-response","188","184610","0.0-11.0-2.32","eVGAp78mX8","656b41bec018aca657ed8254","6617fad957f7c6a12ea16e26","6622cf5dd054e46a9eebf974","mask grid","q","","","","","Phylogenetic_Distractor_Threat_target","800","onmask","q","1","Phylogenetic","true","experimental"
"","null","html-keyboard-response","189","185318","0.0-11.0-0.33","eVGAp78mX8","656b41bec018aca657ed8254","6617fad957f7c6a12ea16e26","6622cf5dd054e46a9eebf974","fixation cross","null","","","","","","","","","","","",""
"","null","html-keyboard-response","190","186122","0.0-11.0-1.33","eVGAp78mX8","656b41bec018aca657ed8254","6617fad957f7c6a12ea16e26","6622cf5dd054e46a9eebf974","
        <div id=""grid-container"">
        <!-- Grid items will be dynamically added here -->
    </div>    ","null","","","","","","","","","","","",""
"","1130","html-keyboard-response","191","186453","0.0-11.0-2.33","eVGAp78mX8","656b41bec018aca657ed8254","6617fad957f7c6a12ea16e26","6622cf5dd054e46a9eebf974","mask grid","p","","","","","Phylogenetic_Distractor_Nonthreat_target","800","onmask","p","6","Phylogenetic","true","experimental"
"","null","html-keyboard-response","192","187160","0.0-11.0-0.34","eVGAp78mX8","656b41bec018aca657ed8254","6617fad957f7c6a12ea16e26","6622cf5dd054e46a9eebf974","fixation cross","null","","","","","","","","","","","",""
"","716","html-keyboard-response","193","187877","0.0-11.0-1.34","eVGAp78mX8","656b41bec018aca657ed8254","6617fad957f7c6a12ea16e26","6622cf5dd054e46a9eebf974","image grid","q","","","","","Phylogenetic_Distractor_Threat_target","800","ongrid","q","7","Phylogenetic","true","experimental"
"","null","html-keyboard-response","194","188030","0.0-11.0-2.34","eVGAp78mX8","656b41bec018aca657ed8254","6617fad957f7c6a12ea16e26","6622cf5dd054e46a9eebf974","
    <div id=""grid-container"">
        <!-- Grid items will be dynamically added here -->
    </div>    ","null","","","","","","","","","","","",""
"","null","html-keyboard-response","195","188736","0.0-11.0-0.35","eVGAp78mX8","656b41bec018aca657ed8254","6617fad957f7c6a12ea16e26","6622cf5dd054e46a9eebf974","fixation cross","null","","","","","","","","","","","",""
"","null","html-keyboard-response","196","189543","0.0-11.0-1.35","eVGAp78mX8","656b41bec018aca657ed8254","6617fad957f7c6a12ea16e26","6622cf5dd054e46a9eebf974","
        <div id=""grid-container"">
        <!-- Grid items will be dynamically added here -->
    </div>    ","null","","","","","","","","","","","",""
"","1105","html-keyboard-response","197","189849","0.0-11.0-2.35","eVGAp78mX8","656b41bec018aca657ed8254","6617fad957f7c6a12ea16e26","6622cf5dd054e46a9eebf974","mask grid"," ","","","","","Phylogenetic_Distractor_notarget","800","onmask"," ","9","Phylogenetic","true","experimental"
"","null","html-keyboard-response","198","190558","0.0-11.0-0.36","eVGAp78mX8","656b41bec018aca657ed8254","6617fad957f7c6a12ea16e26","6622cf5dd054e46a9eebf974","fixation cross","null","","","","","","","","","","","",""
"","761","html-keyboard-response","199","191319","0.0-11.0-1.36","eVGAp78mX8","656b41bec018aca657ed8254","6617fad957f7c6a12ea16e26","6622cf5dd054e46a9eebf974","image grid","q","","","","","Phylogenetic_Distractor_Threat_target","800","ongrid","q","7","Phylogenetic","true","experimental"
"","null","html-keyboard-response","200","191471","0.0-11.0-2.36","eVGAp78mX8","656b41bec018aca657ed8254","6617fad957f7c6a12ea16e26","6622cf5dd054e46a9eebf974","
    <div id=""grid-container"">
        <!-- Grid items will be dynamically added here -->
    </div>    ","null","","","","","","","","","","","",""
"","null","html-keyboard-response","201","192182","0.0-11.0-0.37","eVGAp78mX8","656b41bec018aca657ed8254","6617fad957f7c6a12ea16e26","6622cf5dd054e46a9eebf974","fixation cross","null","","","","","","","","","","","",""
"","null","html-keyboard-response","202","192989","0.0-11.0-1.37","eVGAp78mX8","656b41bec018aca657ed8254","6617fad957f7c6a12ea16e26","6622cf5dd054e46a9eebf974","
        <div id=""grid-container"">
        <!-- Grid items will be dynamically added here -->
    </div>    ","null","","","","","","","","","","","",""
"","905","html-keyboard-response","203","193095","0.0-11.0-2.37","eVGAp78mX8","656b41bec018aca657ed8254","6617fad957f7c6a12ea16e26","6622cf5dd054e46a9eebf974","mask grid","p","","","","","Phylogenetic_Distractor_Nonthreat_target","800","onmask","p","1","Phylogenetic","true","experimental"
"","null","html-keyboard-response","204","193800","0.0-11.0-0.38","eVGAp78mX8","656b41bec018aca657ed8254","6617fad957f7c6a12ea16e26","6622cf5dd054e46a9eebf974","fixation cross","null","","","","","","","","","","","",""
"","665","html-keyboard-response","205","194465","0.0-11.0-1.38","eVGAp78mX8","656b41bec018aca657ed8254","6617fad957f7c6a12ea16e26","6622cf5dd054e46a9eebf974","image grid","q","","","","","Phylogenetic_Distractor_Threat_target","800","ongrid","q","5","Phylogenetic","true","experimental"
"","null","html-keyboard-response","206","194620","0.0-11.0-2.38","eVGAp78mX8","656b41bec018aca657ed8254","6617fad957f7c6a12ea16e26","6622cf5dd054e46a9eebf974","
    <div id=""grid-container"">
        <!-- Grid items will be dynamically added here -->
    </div>    ","null","","","","","","","","","","","",""
"","null","html-keyboard-response","207","195322","0.0-11.0-0.39","eVGAp78mX8","656b41bec018aca657ed8254","6617fad957f7c6a12ea16e26","6622cf5dd054e46a9eebf974","fixation cross","null","","","","","","","","","","","",""
"","null","html-keyboard-response","208","196125","0.0-11.0-1.39","eVGAp78mX8","656b41bec018aca657ed8254","6617fad957f7c6a12ea16e26","6622cf5dd054e46a9eebf974","
        <div id=""grid-container"">
        <!-- Grid items will be dynamically added here -->
    </div>    ","null","","","","","","","","","","","",""
"","1588","html-keyboard-response","209","196914","0.0-11.0-2.39","eVGAp78mX8","656b41bec018aca657ed8254","6617fad957f7c6a12ea16e26","6622cf5dd054e46a9eebf974","mask grid","p","","","","","Phylogenetic_Distractor_Nonthreat_target","800","onmask","p","3","Phylogenetic","true","experimental"
"","6490","html-keyboard-response","210","203668","0.0-12.0","eVGAp78mX8","656b41bec018aca657ed8254","6617fad957f7c6a12ea16e26","6622cf5dd054e46a9eebf974","break screen"," ","","","","","","","","","","","",""
"","null","html-keyboard-response","211","206217","0.0-13.0-0.0","eVGAp78mX8","656b41bec018aca657ed8254","6617fad957f7c6a12ea16e26","6622cf5dd054e46a9eebf974","fixation cross","null","","","","","","","","","","","",""
"","null","html-keyboard-response","212","208723","0.0-13.0-1.0","eVGAp78mX8","656b41bec018aca657ed8254","6617fad957f7c6a12ea16e26","6622cf5dd054e46a9eebf974","
        <div id=""grid-container"">
        <!-- Grid items will be dynamically added here -->
    </div>    ","null","","","","","","","","","","","",""
"","2718","html-keyboard-response","213","208942","0.0-13.0-2.0","eVGAp78mX8","656b41bec018aca657ed8254","6617fad957f7c6a12ea16e26","6622cf5dd054e46a9eebf974","mask grid","p","","","","","Ontogenetic_Distractor_Nonthreat_target","2500","onmask","p","5","Ontogenetic","true","experimental"
"","null","html-keyboard-response","214","209649","0.0-13.0-0.1","eVGAp78mX8","656b41bec018aca657ed8254","6617fad957f7c6a12ea16e26","6622cf5dd054e46a9eebf974","fixation cross","null","","","","","","","","","","","",""
"","1416","html-keyboard-response","215","211065","0.0-13.0-1.1","eVGAp78mX8","656b41bec018aca657ed8254","6617fad957f7c6a12ea16e26","6622cf5dd054e46a9eebf974","image grid","p","","","","","Ontogenetic_Distractor_Nonthreat_target","2500","ongrid","p","8","Ontogenetic","true","experimental"
"","null","html-keyboard-response","216","211219","0.0-13.0-2.1","eVGAp78mX8","656b41bec018aca657ed8254","6617fad957f7c6a12ea16e26","6622cf5dd054e46a9eebf974","
    <div id=""grid-container"">
        <!-- Grid items will be dynamically added here -->
    </div>    ","null","","","","","","","","","","","",""
"","null","html-keyboard-response","217","211926","0.0-13.0-0.2","eVGAp78mX8","656b41bec018aca657ed8254","6617fad957f7c6a12ea16e26","6622cf5dd054e46a9eebf974","fixation cross","null","","","","","","","","","","","",""
"","987","html-keyboard-response","218","212914","0.0-13.0-1.2","eVGAp78mX8","656b41bec018aca657ed8254","6617fad957f7c6a12ea16e26","6622cf5dd054e46a9eebf974","image grid","q","","","","","Ontogenetic_Distractor_Threat_target","2500","ongrid","q","3","Ontogenetic","true","experimental"
"","null","html-keyboard-response","219","213070","0.0-13.0-2.2","eVGAp78mX8","656b41bec018aca657ed8254","6617fad957f7c6a12ea16e26","6622cf5dd054e46a9eebf974","
    <div id=""grid-container"">
        <!-- Grid items will be dynamically added here -->
    </div>    ","null","","","","","","","","","","","",""
"","null","html-keyboard-response","220","213777","0.0-13.0-0.3","eVGAp78mX8","656b41bec018aca657ed8254","6617fad957f7c6a12ea16e26","6622cf5dd054e46a9eebf974","fixation cross","null","","","","","","","","","","","",""
"","802","html-keyboard-response","221","214580","0.0-13.0-1.3","eVGAp78mX8","656b41bec018aca657ed8254","6617fad957f7c6a12ea16e26","6622cf5dd054e46a9eebf974","image grid","q","","","","","Ontogenetic_Distractor_Threat_target","2500","ongrid","q","6","Ontogenetic","true","experimental"
"","null","html-keyboard-response","222","214735","0.0-13.0-2.3","eVGAp78mX8","656b41bec018aca657ed8254","6617fad957f7c6a12ea16e26","6622cf5dd054e46a9eebf974","
    <div id=""grid-container"">
        <!-- Grid items will be dynamically added here -->
    </div>    ","null","","","","","","","","","","","",""
"","null","html-keyboard-response","223","215442","0.0-13.0-0.4","eVGAp78mX8","656b41bec018aca657ed8254","6617fad957f7c6a12ea16e26","6622cf5dd054e46a9eebf974","fixation cross","null","","","","","","","","","","","",""
"","796","html-keyboard-response","224","216238","0.0-13.0-1.4","eVGAp78mX8","656b41bec018aca657ed8254","6617fad957f7c6a12ea16e26","6622cf5dd054e46a9eebf974","image grid","p","","","","","Ontogenetic_Distractor_Nonthreat_target","2500","ongrid","p","4","Ontogenetic","true","experimental"
"","null","html-keyboard-response","225","216393","0.0-13.0-2.4","eVGAp78mX8","656b41bec018aca657ed8254","6617fad957f7c6a12ea16e26","6622cf5dd054e46a9eebf974","
    <div id=""grid-container"">
        <!-- Grid items will be dynamically added here -->
    </div>    ","null","","","","","","","","","","","",""
"","null","html-keyboard-response","226","217100","0.0-13.0-0.5","eVGAp78mX8","656b41bec018aca657ed8254","6617fad957f7c6a12ea16e26","6622cf5dd054e46a9eebf974","fixation cross","null","","","","","","","","","","","",""
"","1458","html-keyboard-response","227","218560","0.0-13.0-1.5","eVGAp78mX8","656b41bec018aca657ed8254","6617fad957f7c6a12ea16e26","6622cf5dd054e46a9eebf974","image grid"," ","","","","","Ontogenetic_Distractor_notarget","2500","ongrid"," ","2","Ontogenetic","true","experimental"
"","null","html-keyboard-response","228","218713","0.0-13.0-2.5","eVGAp78mX8","656b41bec018aca657ed8254","6617fad957f7c6a12ea16e26","6622cf5dd054e46a9eebf974","
    <div id=""grid-container"">
        <!-- Grid items will be dynamically added here -->
    </div>    ","null","","","","","","","","","","","",""
"","null","html-keyboard-response","229","219419","0.0-13.0-0.6","eVGAp78mX8","656b41bec018aca657ed8254","6617fad957f7c6a12ea16e26","6622cf5dd054e46a9eebf974","fixation cross","null","","","","","","","","","","","",""
"","1454","html-keyboard-response","230","220873","0.0-13.0-1.6","eVGAp78mX8","656b41bec018aca657ed8254","6617fad957f7c6a12ea16e26","6622cf5dd054e46a9eebf974","image grid","p","","","","","Ontogenetic_Distractor_Nonthreat_target","2500","ongrid","p","8","Ontogenetic","true","experimental"
"","null","html-keyboard-response","231","221027","0.0-13.0-2.6","eVGAp78mX8","656b41bec018aca657ed8254","6617fad957f7c6a12ea16e26","6622cf5dd054e46a9eebf974","
    <div id=""grid-container"">
        <!-- Grid items will be dynamically added here -->
    </div>    ","null","","","","","","","","","","","",""
"","null","html-keyboard-response","232","221732","0.0-13.0-0.7","eVGAp78mX8","656b41bec018aca657ed8254","6617fad957f7c6a12ea16e26","6622cf5dd054e46a9eebf974","fixation cross","null","","","","","","","","","","","",""
"","839","html-keyboard-response","233","222572","0.0-13.0-1.7","eVGAp78mX8","656b41bec018aca657ed8254","6617fad957f7c6a12ea16e26","6622cf5dd054e46a9eebf974","image grid","q","","","","","Ontogenetic_Distractor_Threat_target","2500","ongrid","q","2","Ontogenetic","true","experimental"
"","null","html-keyboard-response","234","222727","0.0-13.0-2.7","eVGAp78mX8","656b41bec018aca657ed8254","6617fad957f7c6a12ea16e26","6622cf5dd054e46a9eebf974","
    <div id=""grid-container"">
        <!-- Grid items will be dynamically added here -->
    </div>    ","null","","","","","","","","","","","",""
"","null","html-keyboard-response","235","223431","0.0-13.0-0.8","eVGAp78mX8","656b41bec018aca657ed8254","6617fad957f7c6a12ea16e26","6622cf5dd054e46a9eebf974","fixation cross","null","","","","","","","","","","","",""
"","966","html-keyboard-response","236","224399","0.0-13.0-1.8","eVGAp78mX8","656b41bec018aca657ed8254","6617fad957f7c6a12ea16e26","6622cf5dd054e46a9eebf974","image grid","p","","","","","Ontogenetic_Distractor_Nonthreat_target","2500","ongrid","p","9","Ontogenetic","true","experimental"
"","null","html-keyboard-response","237","224554","0.0-13.0-2.8","eVGAp78mX8","656b41bec018aca657ed8254","6617fad957f7c6a12ea16e26","6622cf5dd054e46a9eebf974","
    <div id=""grid-container"">
        <!-- Grid items will be dynamically added here -->
    </div>    ","null","","","","","","","","","","","",""
"","null","html-keyboard-response","238","225260","0.0-13.0-0.9","eVGAp78mX8","656b41bec018aca657ed8254","6617fad957f7c6a12ea16e26","6622cf5dd054e46a9eebf974","fixation cross","null","","","","","","","","","","","",""
"","1699","html-keyboard-response","239","226960","0.0-13.0-1.9","eVGAp78mX8","656b41bec018aca657ed8254","6617fad957f7c6a12ea16e26","6622cf5dd054e46a9eebf974","image grid"," ","","","","","Ontogenetic_Distractor_notarget","2500","ongrid"," ","6","Ontogenetic","true","experimental"
"","null","html-keyboard-response","240","227113","0.0-13.0-2.9","eVGAp78mX8","656b41bec018aca657ed8254","6617fad957f7c6a12ea16e26","6622cf5dd054e46a9eebf974","
    <div id=""grid-container"">
        <!-- Grid items will be dynamically added here -->
    </div>    ","null","","","","","","","","","","","",""
"","null","html-keyboard-response","241","227817","0.0-13.0-0.10","eVGAp78mX8","656b41bec018aca657ed8254","6617fad957f7c6a12ea16e26","6622cf5dd054e46a9eebf974","fixation cross","null","","","","","","","","","","","",""
"","749","html-keyboard-response","242","228567","0.0-13.0-1.10","eVGAp78mX8","656b41bec018aca657ed8254","6617fad957f7c6a12ea16e26","6622cf5dd054e46a9eebf974","image grid","q","","","","","Ontogenetic_Distractor_Threat_target","2500","ongrid","q","9","Ontogenetic","true","experimental"
"","null","html-keyboard-response","243","228721","0.0-13.0-2.10","eVGAp78mX8","656b41bec018aca657ed8254","6617fad957f7c6a12ea16e26","6622cf5dd054e46a9eebf974","
    <div id=""grid-container"">
        <!-- Grid items will be dynamically added here -->
    </div>    ","null","","","","","","","","","","","",""
"","null","html-keyboard-response","244","229427","0.0-13.0-0.11","eVGAp78mX8","656b41bec018aca657ed8254","6617fad957f7c6a12ea16e26","6622cf5dd054e46a9eebf974","fixation cross","null","","","","","","","","","","","",""
"","853","html-keyboard-response","245","230281","0.0-13.0-1.11","eVGAp78mX8","656b41bec018aca657ed8254","6617fad957f7c6a12ea16e26","6622cf5dd054e46a9eebf974","image grid","q","","","","","Ontogenetic_Distractor_Threat_target","2500","ongrid","q","7","Ontogenetic","true","experimental"
"","null","html-keyboard-response","246","230435","0.0-13.0-2.11","eVGAp78mX8","656b41bec018aca657ed8254","6617fad957f7c6a12ea16e26","6622cf5dd054e46a9eebf974","
    <div id=""grid-container"">
        <!-- Grid items will be dynamically added here -->
    </div>    ","null","","","","","","","","","","","",""
"","null","html-keyboard-response","247","231141","0.0-13.0-0.12","eVGAp78mX8","656b41bec018aca657ed8254","6617fad957f7c6a12ea16e26","6622cf5dd054e46a9eebf974","fixation cross","null","","","","","","","","","","","",""
"","null","html-keyboard-response","248","233644","0.0-13.0-1.12","eVGAp78mX8","656b41bec018aca657ed8254","6617fad957f7c6a12ea16e26","6622cf5dd054e46a9eebf974","
        <div id=""grid-container"">
        <!-- Grid items will be dynamically added here -->
    </div>    ","null","","","","","","","","","","","",""
"","2798","html-keyboard-response","249","233942","0.0-13.0-2.12","eVGAp78mX8","656b41bec018aca657ed8254","6617fad957f7c6a12ea16e26","6622cf5dd054e46a9eebf974","mask grid","p","","","","","Ontogenetic_Distractor_Nonthreat_target","2500","onmask","p","6","Ontogenetic","true","experimental"
"","null","html-keyboard-response","250","234646","0.0-13.0-0.13","eVGAp78mX8","656b41bec018aca657ed8254","6617fad957f7c6a12ea16e26","6622cf5dd054e46a9eebf974","fixation cross","null","","","","","","","","","","","",""
"","752","html-keyboard-response","251","235399","0.0-13.0-1.13","eVGAp78mX8","656b41bec018aca657ed8254","6617fad957f7c6a12ea16e26","6622cf5dd054e46a9eebf974","image grid","q","","","","","Ontogenetic_Distractor_Threat_target","2500","ongrid","q","2","Ontogenetic","true","experimental"
"","null","html-keyboard-response","252","235552","0.0-13.0-2.13","eVGAp78mX8","656b41bec018aca657ed8254","6617fad957f7c6a12ea16e26","6622cf5dd054e46a9eebf974","
    <div id=""grid-container"">
        <!-- Grid items will be dynamically added here -->
    </div>    ","null","","","","","","","","","","","",""
"","null","html-keyboard-response","253","236259","0.0-13.0-0.14","eVGAp78mX8","656b41bec018aca657ed8254","6617fad957f7c6a12ea16e26","6622cf5dd054e46a9eebf974","fixation cross","null","","","","","","","","","","","",""
"","801","html-keyboard-response","254","237060","0.0-13.0-1.14","eVGAp78mX8","656b41bec018aca657ed8254","6617fad957f7c6a12ea16e26","6622cf5dd054e46a9eebf974","image grid","q","","","","","Ontogenetic_Distractor_Threat_target","2500","ongrid","q","3","Ontogenetic","true","experimental"
"","null","html-keyboard-response","255","237213","0.0-13.0-2.14","eVGAp78mX8","656b41bec018aca657ed8254","6617fad957f7c6a12ea16e26","6622cf5dd054e46a9eebf974","
    <div id=""grid-container"">
        <!-- Grid items will be dynamically added here -->
    </div>    ","null","","","","","","","","","","","",""
"","null","html-keyboard-response","256","237918","0.0-13.0-0.15","eVGAp78mX8","656b41bec018aca657ed8254","6617fad957f7c6a12ea16e26","6622cf5dd054e46a9eebf974","fixation cross","null","","","","","","","","","","","",""
"","1700","html-keyboard-response","257","239618","0.0-13.0-1.15","eVGAp78mX8","656b41bec018aca657ed8254","6617fad957f7c6a12ea16e26","6622cf5dd054e46a9eebf974","image grid","p","","","","","Ontogenetic_Distractor_Nonthreat_target","2500","ongrid","p","3","Ontogenetic","true","experimental"
"","null","html-keyboard-response","258","239770","0.0-13.0-2.15","eVGAp78mX8","656b41bec018aca657ed8254","6617fad957f7c6a12ea16e26","6622cf5dd054e46a9eebf974","
    <div id=""grid-container"">
        <!-- Grid items will be dynamically added here -->
    </div>    ","null","","","","","","","","","","","",""
"","null","html-keyboard-response","259","240472","0.0-13.0-0.16","eVGAp78mX8","656b41bec018aca657ed8254","6617fad957f7c6a12ea16e26","6622cf5dd054e46a9eebf974","fixation cross","null","","","","","","","","","","","",""
"","1196","html-keyboard-response","260","241669","0.0-13.0-1.16","eVGAp78mX8","656b41bec018aca657ed8254","6617fad957f7c6a12ea16e26","6622cf5dd054e46a9eebf974","image grid","p","","","","","Ontogenetic_Distractor_Nonthreat_target","2500","ongrid","p","9","Ontogenetic","true","experimental"
"","null","html-keyboard-response","261","241821","0.0-13.0-2.16","eVGAp78mX8","656b41bec018aca657ed8254","6617fad957f7c6a12ea16e26","6622cf5dd054e46a9eebf974","
    <div id=""grid-container"">
        <!-- Grid items will be dynamically added here -->
    </div>    ","null","","","","","","","","","","","",""
"","null","html-keyboard-response","262","242526","0.0-13.0-0.17","eVGAp78mX8","656b41bec018aca657ed8254","6617fad957f7c6a12ea16e26","6622cf5dd054e46a9eebf974","fixation cross","null","","","","","","","","","","","",""
"","2197","html-keyboard-response","263","244723","0.0-13.0-1.17","eVGAp78mX8","656b41bec018aca657ed8254","6617fad957f7c6a12ea16e26","6622cf5dd054e46a9eebf974","image grid","q","","","","","Ontogenetic_Distractor_Threat_target","2500","ongrid","q","4","Ontogenetic","true","experimental"
"","null","html-keyboard-response","264","244877","0.0-13.0-2.17","eVGAp78mX8","656b41bec018aca657ed8254","6617fad957f7c6a12ea16e26","6622cf5dd054e46a9eebf974","
    <div id=""grid-container"">
        <!-- Grid items will be dynamically added here -->
    </div>    ","null","","","","","","","","","","","",""
"","null","html-keyboard-response","265","245584","0.0-13.0-0.18","eVGAp78mX8","656b41bec018aca657ed8254","6617fad957f7c6a12ea16e26","6622cf5dd054e46a9eebf974","fixation cross","null","","","","","","","","","","","",""
"","912","html-keyboard-response","266","246497","0.0-13.0-1.18","eVGAp78mX8","656b41bec018aca657ed8254","6617fad957f7c6a12ea16e26","6622cf5dd054e46a9eebf974","image grid","q","","","","","Ontogenetic_Distractor_Threat_target","2500","ongrid","q","8","Ontogenetic","true","experimental"
"","null","html-keyboard-response","267","246653","0.0-13.0-2.18","eVGAp78mX8","656b41bec018aca657ed8254","6617fad957f7c6a12ea16e26","6622cf5dd054e46a9eebf974","
    <div id=""grid-container"">
        <!-- Grid items will be dynamically added here -->
    </div>    ","null","","","","","","","","","","","",""
"","null","html-keyboard-response","268","247359","0.0-13.0-0.19","eVGAp78mX8","656b41bec018aca657ed8254","6617fad957f7c6a12ea16e26","6622cf5dd054e46a9eebf974","fixation cross","null","","","","","","","","","","","",""
"","715","html-keyboard-response","269","248074","0.0-13.0-1.19","eVGAp78mX8","656b41bec018aca657ed8254","6617fad957f7c6a12ea16e26","6622cf5dd054e46a9eebf974","image grid","q","","","","","Ontogenetic_Distractor_Threat_target","2500","ongrid","q","5","Ontogenetic","true","experimental"
"","null","html-keyboard-response","270","248230","0.0-13.0-2.19","eVGAp78mX8","656b41bec018aca657ed8254","6617fad957f7c6a12ea16e26","6622cf5dd054e46a9eebf974","
    <div id=""grid-container"">
        <!-- Grid items will be dynamically added here -->
    </div>    ","null","","","","","","","","","","","",""
"","null","html-keyboard-response","271","248939","0.0-13.0-0.20","eVGAp78mX8","656b41bec018aca657ed8254","6617fad957f7c6a12ea16e26","6622cf5dd054e46a9eebf974","fixation cross","null","","","","","","","","","","","",""
"","818","html-keyboard-response","272","249759","0.0-13.0-1.20","eVGAp78mX8","656b41bec018aca657ed8254","6617fad957f7c6a12ea16e26","6622cf5dd054e46a9eebf974","image grid","p","","","","","Ontogenetic_Distractor_Nonthreat_target","2500","ongrid","p","9","Ontogenetic","true","experimental"
"","null","html-keyboard-response","273","249912","0.0-13.0-2.20","eVGAp78mX8","656b41bec018aca657ed8254","6617fad957f7c6a12ea16e26","6622cf5dd054e46a9eebf974","
    <div id=""grid-container"">
        <!-- Grid items will be dynamically added here -->
    </div>    ","null","","","","","","","","","","","",""
"","null","html-keyboard-response","274","250620","0.0-13.0-0.21","eVGAp78mX8","656b41bec018aca657ed8254","6617fad957f7c6a12ea16e26","6622cf5dd054e46a9eebf974","fixation cross","null","","","","","","","","","","","",""
"","743","html-keyboard-response","275","251364","0.0-13.0-1.21","eVGAp78mX8","656b41bec018aca657ed8254","6617fad957f7c6a12ea16e26","6622cf5dd054e46a9eebf974","image grid","p","","","","","Ontogenetic_Distractor_Nonthreat_target","2500","ongrid","p","6","Ontogenetic","true","experimental"
"","null","html-keyboard-response","276","251517","0.0-13.0-2.21","eVGAp78mX8","656b41bec018aca657ed8254","6617fad957f7c6a12ea16e26","6622cf5dd054e46a9eebf974","
    <div id=""grid-container"">
        <!-- Grid items will be dynamically added here -->
    </div>    ","null","","","","","","","","","","","",""
"","null","html-keyboard-response","277","252225","0.0-13.0-0.22","eVGAp78mX8","656b41bec018aca657ed8254","6617fad957f7c6a12ea16e26","6622cf5dd054e46a9eebf974","fixation cross","null","","","","","","","","","","","",""
"","787","html-keyboard-response","278","253013","0.0-13.0-1.22","eVGAp78mX8","656b41bec018aca657ed8254","6617fad957f7c6a12ea16e26","6622cf5dd054e46a9eebf974","image grid","q","","","","","Ontogenetic_Distractor_Threat_target","2500","ongrid","q","1","Ontogenetic","true","experimental"
"","null","html-keyboard-response","279","253165","0.0-13.0-2.22","eVGAp78mX8","656b41bec018aca657ed8254","6617fad957f7c6a12ea16e26","6622cf5dd054e46a9eebf974","
    <div id=""grid-container"">
        <!-- Grid items will be dynamically added here -->
    </div>    ","null","","","","","","","","","","","",""
"","null","html-keyboard-response","280","253873","0.0-13.0-0.23","eVGAp78mX8","656b41bec018aca657ed8254","6617fad957f7c6a12ea16e26","6622cf5dd054e46a9eebf974","fixation cross","null","","","","","","","","","","","",""
"","1494","html-keyboard-response","281","255368","0.0-13.0-1.23","eVGAp78mX8","656b41bec018aca657ed8254","6617fad957f7c6a12ea16e26","6622cf5dd054e46a9eebf974","image grid","p","","","","","Ontogenetic_Distractor_Nonthreat_target","2500","ongrid","p","3","Ontogenetic","true","experimental"
"","null","html-keyboard-response","282","255521","0.0-13.0-2.23","eVGAp78mX8","656b41bec018aca657ed8254","6617fad957f7c6a12ea16e26","6622cf5dd054e46a9eebf974","
    <div id=""grid-container"">
        <!-- Grid items will be dynamically added here -->
    </div>    ","null","","","","","","","","","","","",""
"","null","html-keyboard-response","283","256228","0.0-13.0-0.24","eVGAp78mX8","656b41bec018aca657ed8254","6617fad957f7c6a12ea16e26","6622cf5dd054e46a9eebf974","fixation cross","null","","","","","","","","","","","",""
"","2326","html-keyboard-response","284","258555","0.0-13.0-1.24","eVGAp78mX8","656b41bec018aca657ed8254","6617fad957f7c6a12ea16e26","6622cf5dd054e46a9eebf974","image grid","p","","","","","Ontogenetic_Distractor_Nonthreat_target","2500","ongrid","p","3","Ontogenetic","true","experimental"
"","null","html-keyboard-response","285","258709","0.0-13.0-2.24","eVGAp78mX8","656b41bec018aca657ed8254","6617fad957f7c6a12ea16e26","6622cf5dd054e46a9eebf974","
    <div id=""grid-container"">
        <!-- Grid items will be dynamically added here -->
    </div>    ","null","","","","","","","","","","","",""
"","null","html-keyboard-response","286","259416","0.0-13.0-0.25","eVGAp78mX8","656b41bec018aca657ed8254","6617fad957f7c6a12ea16e26","6622cf5dd054e46a9eebf974","fixation cross","null","","","","","","","","","","","",""
"","947","html-keyboard-response","287","260363","0.0-13.0-1.25","eVGAp78mX8","656b41bec018aca657ed8254","6617fad957f7c6a12ea16e26","6622cf5dd054e46a9eebf974","image grid","q","","","","","Ontogenetic_Distractor_Threat_target","2500","ongrid","q","8","Ontogenetic","true","experimental"
"","null","html-keyboard-response","288","260517","0.0-13.0-2.25","eVGAp78mX8","656b41bec018aca657ed8254","6617fad957f7c6a12ea16e26","6622cf5dd054e46a9eebf974","
    <div id=""grid-container"">
        <!-- Grid items will be dynamically added here -->
    </div>    ","null","","","","","","","","","","","",""
"","null","html-keyboard-response","289","261225","0.0-13.0-0.26","eVGAp78mX8","656b41bec018aca657ed8254","6617fad957f7c6a12ea16e26","6622cf5dd054e46a9eebf974","fixation cross","null","","","","","","","","","","","",""
"","1169","html-keyboard-response","290","262394","0.0-13.0-1.26","eVGAp78mX8","656b41bec018aca657ed8254","6617fad957f7c6a12ea16e26","6622cf5dd054e46a9eebf974","image grid","p","","","","","Ontogenetic_Distractor_Nonthreat_target","2500","ongrid","p","8","Ontogenetic","true","experimental"
"","null","html-keyboard-response","291","262547","0.0-13.0-2.26","eVGAp78mX8","656b41bec018aca657ed8254","6617fad957f7c6a12ea16e26","6622cf5dd054e46a9eebf974","
    <div id=""grid-container"">
        <!-- Grid items will be dynamically added here -->
    </div>    ","null","","","","","","","","","","","",""
"","null","html-keyboard-response","292","263249","0.0-13.0-0.27","eVGAp78mX8","656b41bec018aca657ed8254","6617fad957f7c6a12ea16e26","6622cf5dd054e46a9eebf974","fixation cross","null","","","","","","","","","","","",""
"","1566","html-keyboard-response","293","264815","0.0-13.0-1.27","eVGAp78mX8","656b41bec018aca657ed8254","6617fad957f7c6a12ea16e26","6622cf5dd054e46a9eebf974","image grid","p","","","","","Ontogenetic_Distractor_Nonthreat_target","2500","ongrid","p","8","Ontogenetic","true","experimental"
"","null","html-keyboard-response","294","264969","0.0-13.0-2.27","eVGAp78mX8","656b41bec018aca657ed8254","6617fad957f7c6a12ea16e26","6622cf5dd054e46a9eebf974","
    <div id=""grid-container"">
        <!-- Grid items will be dynamically added here -->
    </div>    ","null","","","","","","","","","","","",""
"","null","html-keyboard-response","295","265676","0.0-13.0-0.28","eVGAp78mX8","656b41bec018aca657ed8254","6617fad957f7c6a12ea16e26","6622cf5dd054e46a9eebf974","fixation cross","null","","","","","","","","","","","",""
"","924","html-keyboard-response","296","266601","0.0-13.0-1.28","eVGAp78mX8","656b41bec018aca657ed8254","6617fad957f7c6a12ea16e26","6622cf5dd054e46a9eebf974","image grid","q","","","","","Ontogenetic_Distractor_Threat_target","2500","ongrid","q","7","Ontogenetic","true","experimental"
"","null","html-keyboard-response","297","266756","0.0-13.0-2.28","eVGAp78mX8","656b41bec018aca657ed8254","6617fad957f7c6a12ea16e26","6622cf5dd054e46a9eebf974","
    <div id=""grid-container"">
        <!-- Grid items will be dynamically added here -->
    </div>    ","null","","","","","","","","","","","",""
"","null","html-keyboard-response","298","267465","0.0-13.0-0.29","eVGAp78mX8","656b41bec018aca657ed8254","6617fad957f7c6a12ea16e26","6622cf5dd054e46a9eebf974","fixation cross","null","","","","","","","","","","","",""
"","1141","html-keyboard-response","299","268607","0.0-13.0-1.29","eVGAp78mX8","656b41bec018aca657ed8254","6617fad957f7c6a12ea16e26","6622cf5dd054e46a9eebf974","image grid","p","","","","","Ontogenetic_Distractor_Nonthreat_target","2500","ongrid","p","6","Ontogenetic","true","experimental"
"","null","html-keyboard-response","300","268760","0.0-13.0-2.29","eVGAp78mX8","656b41bec018aca657ed8254","6617fad957f7c6a12ea16e26","6622cf5dd054e46a9eebf974","
    <div id=""grid-container"">
        <!-- Grid items will be dynamically added here -->
    </div>    ","null","","","","","","","","","","","",""
"","null","html-keyboard-response","301","269464","0.0-13.0-0.30","eVGAp78mX8","656b41bec018aca657ed8254","6617fad957f7c6a12ea16e26","6622cf5dd054e46a9eebf974","fixation cross","null","","","","","","","","","","","",""
"","624","html-keyboard-response","302","270090","0.0-13.0-1.30","eVGAp78mX8","656b41bec018aca657ed8254","6617fad957f7c6a12ea16e26","6622cf5dd054e46a9eebf974","image grid","q","","","","","Ontogenetic_Distractor_Threat_target","2500","ongrid","q","5","Ontogenetic","true","experimental"
"","null","html-keyboard-response","303","270242","0.0-13.0-2.30","eVGAp78mX8","656b41bec018aca657ed8254","6617fad957f7c6a12ea16e26","6622cf5dd054e46a9eebf974","
    <div id=""grid-container"">
        <!-- Grid items will be dynamically added here -->
    </div>    ","null","","","","","","","","","","","",""
"","null","html-keyboard-response","304","270953","0.0-13.0-0.31","eVGAp78mX8","656b41bec018aca657ed8254","6617fad957f7c6a12ea16e26","6622cf5dd054e46a9eebf974","fixation cross","null","","","","","","","","","","","",""
"","null","html-keyboard-response","305","273455","0.0-13.0-1.31","eVGAp78mX8","656b41bec018aca657ed8254","6617fad957f7c6a12ea16e26","6622cf5dd054e46a9eebf974","
        <div id=""grid-container"">
        <!-- Grid items will be dynamically added here -->
    </div>    ","null","","","","","","","","","","","",""
"","2675","html-keyboard-response","306","273630","0.0-13.0-2.31","eVGAp78mX8","656b41bec018aca657ed8254","6617fad957f7c6a12ea16e26","6622cf5dd054e46a9eebf974","mask grid"," ","","","","","Ontogenetic_Distractor_notarget","2500","onmask"," ","9","Ontogenetic","true","experimental"
"","null","html-keyboard-response","307","274337","0.0-13.0-0.32","eVGAp78mX8","656b41bec018aca657ed8254","6617fad957f7c6a12ea16e26","6622cf5dd054e46a9eebf974","fixation cross","null","","","","","","","","","","","",""
"","904","html-keyboard-response","308","275241","0.0-13.0-1.32","eVGAp78mX8","656b41bec018aca657ed8254","6617fad957f7c6a12ea16e26","6622cf5dd054e46a9eebf974","image grid","p","","","","","Ontogenetic_Distractor_Nonthreat_target","2500","ongrid","p","8","Ontogenetic","true","experimental"
"","null","html-keyboard-response","309","275396","0.0-13.0-2.32","eVGAp78mX8","656b41bec018aca657ed8254","6617fad957f7c6a12ea16e26","6622cf5dd054e46a9eebf974","
    <div id=""grid-container"">
        <!-- Grid items will be dynamically added here -->
    </div>    ","null","","","","","","","","","","","",""
"","null","html-keyboard-response","310","276099","0.0-13.0-0.33","eVGAp78mX8","656b41bec018aca657ed8254","6617fad957f7c6a12ea16e26","6622cf5dd054e46a9eebf974","fixation cross","null","","","","","","","","","","","",""
"","863","html-keyboard-response","311","276964","0.0-13.0-1.33","eVGAp78mX8","656b41bec018aca657ed8254","6617fad957f7c6a12ea16e26","6622cf5dd054e46a9eebf974","image grid","p","","","","","Ontogenetic_Distractor_Nonthreat_target","2500","ongrid","p","4","Ontogenetic","true","experimental"
"","null","html-keyboard-response","312","277119","0.0-13.0-2.33","eVGAp78mX8","656b41bec018aca657ed8254","6617fad957f7c6a12ea16e26","6622cf5dd054e46a9eebf974","
    <div id=""grid-container"">
        <!-- Grid items will be dynamically added here -->
    </div>    ","null","","","","","","","","","","","",""
"","null","html-keyboard-response","313","277825","0.0-13.0-0.34","eVGAp78mX8","656b41bec018aca657ed8254","6617fad957f7c6a12ea16e26","6622cf5dd054e46a9eebf974","fixation cross","null","","","","","","","","","","","",""
"","2345","html-keyboard-response","314","280169","0.0-13.0-1.34","eVGAp78mX8","656b41bec018aca657ed8254","6617fad957f7c6a12ea16e26","6622cf5dd054e46a9eebf974","image grid"," ","","","","","Ontogenetic_Distractor_notarget","2500","ongrid"," ","7","Ontogenetic","true","experimental"
"","null","html-keyboard-response","315","280324","0.0-13.0-2.34","eVGAp78mX8","656b41bec018aca657ed8254","6617fad957f7c6a12ea16e26","6622cf5dd054e46a9eebf974","
    <div id=""grid-container"">
        <!-- Grid items will be dynamically added here -->
    </div>    ","null","","","","","","","","","","","",""
"","null","html-keyboard-response","316","281031","0.0-13.0-0.35","eVGAp78mX8","656b41bec018aca657ed8254","6617fad957f7c6a12ea16e26","6622cf5dd054e46a9eebf974","fixation cross","null","","","","","","","","","","","",""
"","756","html-keyboard-response","317","281788","0.0-13.0-1.35","eVGAp78mX8","656b41bec018aca657ed8254","6617fad957f7c6a12ea16e26","6622cf5dd054e46a9eebf974","image grid","p","","","","","Ontogenetic_Distractor_Nonthreat_target","2500","ongrid","p","1","Ontogenetic","true","experimental"
"","null","html-keyboard-response","318","281942","0.0-13.0-2.35","eVGAp78mX8","656b41bec018aca657ed8254","6617fad957f7c6a12ea16e26","6622cf5dd054e46a9eebf974","
    <div id=""grid-container"">
        <!-- Grid items will be dynamically added here -->
    </div>    ","null","","","","","","","","","","","",""
"","null","html-keyboard-response","319","282648","0.0-13.0-0.36","eVGAp78mX8","656b41bec018aca657ed8254","6617fad957f7c6a12ea16e26","6622cf5dd054e46a9eebf974","fixation cross","null","","","","","","","","","","","",""
"","769","html-keyboard-response","320","283417","0.0-13.0-1.36","eVGAp78mX8","656b41bec018aca657ed8254","6617fad957f7c6a12ea16e26","6622cf5dd054e46a9eebf974","image grid","q","","","","","Ontogenetic_Distractor_Threat_target","2500","ongrid","q","7","Ontogenetic","true","experimental"
"","null","html-keyboard-response","321","283570","0.0-13.0-2.36","eVGAp78mX8","656b41bec018aca657ed8254","6617fad957f7c6a12ea16e26","6622cf5dd054e46a9eebf974","
    <div id=""grid-container"">
        <!-- Grid items will be dynamically added here -->
    </div>    ","null","","","","","","","","","","","",""
"","null","html-keyboard-response","322","284275","0.0-13.0-0.37","eVGAp78mX8","656b41bec018aca657ed8254","6617fad957f7c6a12ea16e26","6622cf5dd054e46a9eebf974","fixation cross","null","","","","","","","","","","","",""
"","819","html-keyboard-response","323","285094","0.0-13.0-1.37","eVGAp78mX8","656b41bec018aca657ed8254","6617fad957f7c6a12ea16e26","6622cf5dd054e46a9eebf974","image grid","q","","","","","Ontogenetic_Distractor_Threat_target","2500","ongrid","q","9","Ontogenetic","true","experimental"
"","null","html-keyboard-response","324","285251","0.0-13.0-2.37","eVGAp78mX8","656b41bec018aca657ed8254","6617fad957f7c6a12ea16e26","6622cf5dd054e46a9eebf974","
    <div id=""grid-container"">
        <!-- Grid items will be dynamically added here -->
    </div>    ","null","","","","","","","","","","","",""
"","null","html-keyboard-response","325","285955","0.0-13.0-0.38","eVGAp78mX8","656b41bec018aca657ed8254","6617fad957f7c6a12ea16e26","6622cf5dd054e46a9eebf974","fixation cross","null","","","","","","","","","","","",""
"","582","html-keyboard-response","326","286538","0.0-13.0-1.38","eVGAp78mX8","656b41bec018aca657ed8254","6617fad957f7c6a12ea16e26","6622cf5dd054e46a9eebf974","image grid","q","","","","","Ontogenetic_Distractor_Threat_target","2500","ongrid","q","5","Ontogenetic","true","experimental"
"","null","html-keyboard-response","327","286693","0.0-13.0-2.38","eVGAp78mX8","656b41bec018aca657ed8254","6617fad957f7c6a12ea16e26","6622cf5dd054e46a9eebf974","
    <div id=""grid-container"">
        <!-- Grid items will be dynamically added here -->
    </div>    ","null","","","","","","","","","","","",""
"","null","html-keyboard-response","328","287395","0.0-13.0-0.39","eVGAp78mX8","656b41bec018aca657ed8254","6617fad957f7c6a12ea16e26","6622cf5dd054e46a9eebf974","fixation cross","null","","","","","","","","","","","",""
"","757","html-keyboard-response","329","288154","0.0-13.0-1.39","eVGAp78mX8","656b41bec018aca657ed8254","6617fad957f7c6a12ea16e26","6622cf5dd054e46a9eebf974","image grid","q","","","","","Ontogenetic_Distractor_Threat_target","2500","ongrid","q","6","Ontogenetic","true","experimental"
"","null","html-keyboard-response","330","288309","0.0-13.0-2.39","eVGAp78mX8","656b41bec018aca657ed8254","6617fad957f7c6a12ea16e26","6622cf5dd054e46a9eebf974","
    <div id=""grid-container"">
        <!-- Grid items will be dynamically added here -->
    </div>    ","null","","","","","","","","","","","",""
"","9328","html-keyboard-response","331","297843","0.0-14.0","eVGAp78mX8","656b41bec018aca657ed8254","6617fad957f7c6a12ea16e26","6622cf5dd054e46a9eebf974","break screen","p","","","","","","","","","","","",""
"","null","html-keyboard-response","332","300348","0.0-15.0-0.0","eVGAp78mX8","656b41bec018aca657ed8254","6617fad957f7c6a12ea16e26","6622cf5dd054e46a9eebf974","fixation cross","null","","","","","","","","","","","",""
"","1497","html-keyboard-response","333","301846","0.0-15.0-1.0","eVGAp78mX8","656b41bec018aca657ed8254","6617fad957f7c6a12ea16e26","6622cf5dd054e46a9eebf974","image grid","p","","","","","Ontogenetic_Distractor_Nonthreat_target","2500","ongrid","p","4","Ontogenetic","true","experimental"
"","null","html-keyboard-response","334","301997","0.0-15.0-2.0","eVGAp78mX8","656b41bec018aca657ed8254","6617fad957f7c6a12ea16e26","6622cf5dd054e46a9eebf974","
    <div id=""grid-container"">
        <!-- Grid items will be dynamically added here -->
    </div>    ","null","","","","","","","","","","","",""
"","null","html-keyboard-response","335","302703","0.0-15.0-0.1","eVGAp78mX8","656b41bec018aca657ed8254","6617fad957f7c6a12ea16e26","6622cf5dd054e46a9eebf974","fixation cross","null","","","","","","","","","","","",""
"","1526","html-keyboard-response","336","304229","0.0-15.0-1.1","eVGAp78mX8","656b41bec018aca657ed8254","6617fad957f7c6a12ea16e26","6622cf5dd054e46a9eebf974","image grid","p","","","","","Ontogenetic_Distractor_Nonthreat_target","2500","ongrid","p","1","Ontogenetic","true","experimental"
"","null","html-keyboard-response","337","304381","0.0-15.0-2.1","eVGAp78mX8","656b41bec018aca657ed8254","6617fad957f7c6a12ea16e26","6622cf5dd054e46a9eebf974","
    <div id=""grid-container"">
        <!-- Grid items will be dynamically added here -->
    </div>    ","null","","","","","","","","","","","",""
"","null","html-keyboard-response","338","305089","0.0-15.0-0.2","eVGAp78mX8","656b41bec018aca657ed8254","6617fad957f7c6a12ea16e26","6622cf5dd054e46a9eebf974","fixation cross","null","","","","","","","","","","","",""
"","701","html-keyboard-response","339","305789","0.0-15.0-1.2","eVGAp78mX8","656b41bec018aca657ed8254","6617fad957f7c6a12ea16e26","6622cf5dd054e46a9eebf974","image grid","q","","","","","Ontogenetic_Distractor_Threat_target","2500","ongrid","q","3","Ontogenetic","true","experimental"
"","null","html-keyboard-response","340","305942","0.0-15.0-2.2","eVGAp78mX8","656b41bec018aca657ed8254","6617fad957f7c6a12ea16e26","6622cf5dd054e46a9eebf974","
    <div id=""grid-container"">
        <!-- Grid items will be dynamically added here -->
    </div>    ","null","","","","","","","","","","","",""
"","null","html-keyboard-response","341","306650","0.0-15.0-0.3","eVGAp78mX8","656b41bec018aca657ed8254","6617fad957f7c6a12ea16e26","6622cf5dd054e46a9eebf974","fixation cross","null","","","","","","","","","","","",""
"","703","html-keyboard-response","342","307353","0.0-15.0-1.3","eVGAp78mX8","656b41bec018aca657ed8254","6617fad957f7c6a12ea16e26","6622cf5dd054e46a9eebf974","image grid","q","","","","","Ontogenetic_Distractor_Threat_target","2500","ongrid","q","4","Ontogenetic","true","experimental"
"","null","html-keyboard-response","343","307506","0.0-15.0-2.3","eVGAp78mX8","656b41bec018aca657ed8254","6617fad957f7c6a12ea16e26","6622cf5dd054e46a9eebf974","
    <div id=""grid-container"">
        <!-- Grid items will be dynamically added here -->
    </div>    ","null","","","","","","","","","","","",""
"","null","html-keyboard-response","344","308213","0.0-15.0-0.4","eVGAp78mX8","656b41bec018aca657ed8254","6617fad957f7c6a12ea16e26","6622cf5dd054e46a9eebf974","fixation cross","null","","","","","","","","","","","",""
"","890","html-keyboard-response","345","309103","0.0-15.0-1.4","eVGAp78mX8","656b41bec018aca657ed8254","6617fad957f7c6a12ea16e26","6622cf5dd054e46a9eebf974","image grid","p","","","","","Ontogenetic_Distractor_Nonthreat_target","2500","ongrid","p","8","Ontogenetic","true","experimental"
"","null","html-keyboard-response","346","309257","0.0-15.0-2.4","eVGAp78mX8","656b41bec018aca657ed8254","6617fad957f7c6a12ea16e26","6622cf5dd054e46a9eebf974","
    <div id=""grid-container"">
        <!-- Grid items will be dynamically added here -->
    </div>    ","null","","","","","","","","","","","",""
"","null","html-keyboard-response","347","309959","0.0-15.0-0.5","eVGAp78mX8","656b41bec018aca657ed8254","6617fad957f7c6a12ea16e26","6622cf5dd054e46a9eebf974","fixation cross","null","","","","","","","","","","","",""
"","778","html-keyboard-response","348","310738","0.0-15.0-1.5","eVGAp78mX8","656b41bec018aca657ed8254","6617fad957f7c6a12ea16e26","6622cf5dd054e46a9eebf974","image grid","p","","","","","Ontogenetic_Distractor_Nonthreat_target","2500","ongrid","p","8","Ontogenetic","true","experimental"
"","null","html-keyboard-response","349","310891","0.0-15.0-2.5","eVGAp78mX8","656b41bec018aca657ed8254","6617fad957f7c6a12ea16e26","6622cf5dd054e46a9eebf974","
    <div id=""grid-container"">
        <!-- Grid items will be dynamically added here -->
    </div>    ","null","","","","","","","","","","","",""
"","null","html-keyboard-response","350","311600","0.0-15.0-0.6","eVGAp78mX8","656b41bec018aca657ed8254","6617fad957f7c6a12ea16e26","6622cf5dd054e46a9eebf974","fixation cross","null","","","","","","","","","","","",""
"","828","html-keyboard-response","351","312428","0.0-15.0-1.6","eVGAp78mX8","656b41bec018aca657ed8254","6617fad957f7c6a12ea16e26","6622cf5dd054e46a9eebf974","image grid","p","","","","","Ontogenetic_Distractor_Nonthreat_target","2500","ongrid","p","1","Ontogenetic","true","experimental"
"","null","html-keyboard-response","352","312581","0.0-15.0-2.6","eVGAp78mX8","656b41bec018aca657ed8254","6617fad957f7c6a12ea16e26","6622cf5dd054e46a9eebf974","
    <div id=""grid-container"">
        <!-- Grid items will be dynamically added here -->
    </div>    ","null","","","","","","","","","","","",""
"","null","html-keyboard-response","353","313285","0.0-15.0-0.7","eVGAp78mX8","656b41bec018aca657ed8254","6617fad957f7c6a12ea16e26","6622cf5dd054e46a9eebf974","fixation cross","null","","","","","","","","","","","",""
"","633","html-keyboard-response","354","313920","0.0-15.0-1.7","eVGAp78mX8","656b41bec018aca657ed8254","6617fad957f7c6a12ea16e26","6622cf5dd054e46a9eebf974","image grid","q","","","","","Ontogenetic_Distractor_Threat_target","2500","ongrid","q","7","Ontogenetic","true","experimental"
"","null","html-keyboard-response","355","314073","0.0-15.0-2.7","eVGAp78mX8","656b41bec018aca657ed8254","6617fad957f7c6a12ea16e26","6622cf5dd054e46a9eebf974","
    <div id=""grid-container"">
        <!-- Grid items will be dynamically added here -->
    </div>    ","null","","","","","","","","","","","",""
"","null","html-keyboard-response","356","314776","0.0-15.0-0.8","eVGAp78mX8","656b41bec018aca657ed8254","6617fad957f7c6a12ea16e26","6622cf5dd054e46a9eebf974","fixation cross","null","","","","","","","","","","","",""
"","599","html-keyboard-response","357","315375","0.0-15.0-1.8","eVGAp78mX8","656b41bec018aca657ed8254","6617fad957f7c6a12ea16e26","6622cf5dd054e46a9eebf974","image grid","p","","","","","Ontogenetic_Distractor_Threat_target","2500","ongrid","q","3","Ontogenetic","false","experimental"
"","null","html-keyboard-response","358","315527","0.0-15.0-2.8","eVGAp78mX8","656b41bec018aca657ed8254","6617fad957f7c6a12ea16e26","6622cf5dd054e46a9eebf974","
    <div id=""grid-container"">
        <!-- Grid items will be dynamically added here -->
    </div>    ","null","","","","","","","","","","","",""
"","21","html-keyboard-response","359","316230","0.0-15.0-0.9","eVGAp78mX8","656b41bec018aca657ed8254","6617fad957f7c6a12ea16e26","6622cf5dd054e46a9eebf974","fixation cross","q","","","","","","","","","","","",""
"","692","html-keyboard-response","360","316922","0.0-15.0-1.9","eVGAp78mX8","656b41bec018aca657ed8254","6617fad957f7c6a12ea16e26","6622cf5dd054e46a9eebf974","image grid","q","","","","","Ontogenetic_Distractor_Threat_target","2500","ongrid","q","8","Ontogenetic","true","experimental"
"","null","html-keyboard-response","361","317076","0.0-15.0-2.9","eVGAp78mX8","656b41bec018aca657ed8254","6617fad957f7c6a12ea16e26","6622cf5dd054e46a9eebf974","
    <div id=""grid-container"">
        <!-- Grid items will be dynamically added here -->
    </div>    ","null","","","","","","","","","","","",""
"","null","html-keyboard-response","362","317782","0.0-15.0-0.10","eVGAp78mX8","656b41bec018aca657ed8254","6617fad957f7c6a12ea16e26","6622cf5dd054e46a9eebf974","fixation cross","null","","","","","","","","","","","",""
"","703","html-keyboard-response","363","318486","0.0-15.0-1.10","eVGAp78mX8","656b41bec018aca657ed8254","6617fad957f7c6a12ea16e26","6622cf5dd054e46a9eebf974","image grid","q","","","","","Ontogenetic_Distractor_Threat_target","2500","ongrid","q","7","Ontogenetic","true","experimental"
"","null","html-keyboard-response","364","318643","0.0-15.0-2.10","eVGAp78mX8","656b41bec018aca657ed8254","6617fad957f7c6a12ea16e26","6622cf5dd054e46a9eebf974","
    <div id=""grid-container"">
        <!-- Grid items will be dynamically added here -->
    </div>    ","null","","","","","","","","","","","",""
"","null","html-keyboard-response","365","319346","0.0-15.0-0.11","eVGAp78mX8","656b41bec018aca657ed8254","6617fad957f7c6a12ea16e26","6622cf5dd054e46a9eebf974","fixation cross","null","","","","","","","","","","","",""
"","690","html-keyboard-response","366","320037","0.0-15.0-1.11","eVGAp78mX8","656b41bec018aca657ed8254","6617fad957f7c6a12ea16e26","6622cf5dd054e46a9eebf974","image grid","p","","","","","Ontogenetic_Distractor_Nonthreat_target","2500","ongrid","p","8","Ontogenetic","true","experimental"
"","null","html-keyboard-response","367","320190","0.0-15.0-2.11","eVGAp78mX8","656b41bec018aca657ed8254","6617fad957f7c6a12ea16e26","6622cf5dd054e46a9eebf974","
    <div id=""grid-container"">
        <!-- Grid items will be dynamically added here -->
    </div>    ","null","","","","","","","","","","","",""
"","null","html-keyboard-response","368","320896","0.0-15.0-0.12","eVGAp78mX8","656b41bec018aca657ed8254","6617fad957f7c6a12ea16e26","6622cf5dd054e46a9eebf974","fixation cross","null","","","","","","","","","","","",""
"","765","html-keyboard-response","369","321661","0.0-15.0-1.12","eVGAp78mX8","656b41bec018aca657ed8254","6617fad957f7c6a12ea16e26","6622cf5dd054e46a9eebf974","image grid","q","","","","","Ontogenetic_Distractor_Threat_target","2500","ongrid","q","4","Ontogenetic","true","experimental"
"","null","html-keyboard-response","370","321817","0.0-15.0-2.12","eVGAp78mX8","656b41bec018aca657ed8254","6617fad957f7c6a12ea16e26","6622cf5dd054e46a9eebf974","
    <div id=""grid-container"">
