"success","rt","trial_type","trial_index","time_elapsed","internal_node_id","unique_identifier","subject_id","study_id","session_id","stimulus","response","timeout","failed_images","failed_audio","failed_video","task","time_manipulation","respondedwhen","correctresponse","targetimagelocation","blocktype","correct","roundtype"
"true","922","fullscreen","0","1931","0.0-0.0","uULhv5QxC6","63d79dd07448168e7afd6990","6617fad957f7c6a12ea16e26","6622ca3ce488f002b1e480d2","","","","","","","","","","","","","",""
"","3086","html-keyboard-response","1","5023","0.0-1.0","uULhv5QxC6","63d79dd07448168e7afd6990","6617fad957f7c6a12ea16e26","6622ca3ce488f002b1e480d2","instruction screen 0"," ","","","","","","","","","","","",""
"true","","preload","2","9627","0.0-2.0","uULhv5QxC6","63d79dd07448168e7afd6990","6617fad957f7c6a12ea16e26","6622ca3ce488f002b1e480d2","","","false","[]","[]","[]","","","","","","","",""
"","5691","html-keyboard-response","3","15320","0.0-3.0","uULhv5QxC6","63d79dd07448168e7afd6990","6617fad957f7c6a12ea16e26","6622ca3ce488f002b1e480d2","instruction screen 1"," ","","","","","","","","","","","",""
"","8925","html-keyboard-response","4","24257","0.0-4.0","uULhv5QxC6","63d79dd07448168e7afd6990","6617fad957f7c6a12ea16e26","6622ca3ce488f002b1e480d2","instruction screen 2","q","","","","","","","","","","","",""
"","2589","html-keyboard-response","5","26852","0.0-5.0","uULhv5QxC6","63d79dd07448168e7afd6990","6617fad957f7c6a12ea16e26","6622ca3ce488f002b1e480d2","instruction screen 3","p","","","","","","","","","","","",""
"","1993","html-keyboard-response","6","28852","0.0-6.0","uULhv5QxC6","63d79dd07448168e7afd6990","6617fad957f7c6a12ea16e26","6622ca3ce488f002b1e480d2","instruction screen 4"," ","","","","","","","","","","","",""
"","990","html-keyboard-response","7","29847","0.0-7.0","uULhv5QxC6","63d79dd07448168e7afd6990","6617fad957f7c6a12ea16e26","6622ca3ce488f002b1e480d2","instruction screen 5"," ","","","","","","","","","","","",""
"","null","html-keyboard-response","8","30357","0.0-8.0","uULhv5QxC6","63d79dd07448168e7afd6990","6617fad957f7c6a12ea16e26","6622ca3ce488f002b1e480d2","fixation cross","null","","","","","","","","","","","",""
"","null","html-keyboard-response","9","30859","0.0-9.0-0.0","uULhv5QxC6","63d79dd07448168e7afd6990","6617fad957f7c6a12ea16e26","6622ca3ce488f002b1e480d2","fixation cross","null","","","","","","","","","","","",""
"","1291","html-keyboard-response","10","32151","0.0-9.0-1.0","uULhv5QxC6","63d79dd07448168e7afd6990","6617fad957f7c6a12ea16e26","6622ca3ce488f002b1e480d2","image grid","p","","","","","Phylogenetic_Distractor_Nonthreat_target","3000","ongrid","p","3","Phylogenetic","true","practice"
"","null","html-keyboard-response","11","32304","0.0-9.0-2.0","uULhv5QxC6","63d79dd07448168e7afd6990","6617fad957f7c6a12ea16e26","6622ca3ce488f002b1e480d2","
    <div id=""grid-container"">
        <!-- Grid items will be dynamically added here -->
    </div>    ","null","","","","","","","","","","","",""
"","null","html-keyboard-response","12","33508","0.0-9.0-3.0","uULhv5QxC6","63d79dd07448168e7afd6990","6617fad957f7c6a12ea16e26","6622ca3ce488f002b1e480d2","feedback screen","null","","","","","","","","","","","",""
"","null","html-keyboard-response","13","34013","0.0-9.0-0.1","uULhv5QxC6","63d79dd07448168e7afd6990","6617fad957f7c6a12ea16e26","6622ca3ce488f002b1e480d2","fixation cross","null","","","","","","","","","","","",""
"","842","html-keyboard-response","14","34857","0.0-9.0-1.1","uULhv5QxC6","63d79dd07448168e7afd6990","6617fad957f7c6a12ea16e26","6622ca3ce488f002b1e480d2","image grid","p","","","","","Phylogenetic_Distractor_Threat_target","2900","ongrid","q","4","Phylogenetic","false","practice"
"","null","html-keyboard-response","15","35009","0.0-9.0-2.1","uULhv5QxC6","63d79dd07448168e7afd6990","6617fad957f7c6a12ea16e26","6622ca3ce488f002b1e480d2","
    <div id=""grid-container"">
        <!-- Grid items will be dynamically added here -->
    </div>    ","null","","","","","","","","","","","",""
"","null","html-keyboard-response","16","36212","0.0-9.0-3.1","uULhv5QxC6","63d79dd07448168e7afd6990","6617fad957f7c6a12ea16e26","6622ca3ce488f002b1e480d2","feedback screen","null","","","","","","","","","","","",""
"","null","html-keyboard-response","17","36718","0.0-9.0-0.2","uULhv5QxC6","63d79dd07448168e7afd6990","6617fad957f7c6a12ea16e26","6622ca3ce488f002b1e480d2","fixation cross","null","","","","","","","","","","","",""
"","984","html-keyboard-response","18","37704","0.0-9.0-1.2","uULhv5QxC6","63d79dd07448168e7afd6990","6617fad957f7c6a12ea16e26","6622ca3ce488f002b1e480d2","image grid","p","","","","","Phylogenetic_Distractor_notarget","2800","ongrid"," ","9","Phylogenetic","false","practice"
"","null","html-keyboard-response","19","37856","0.0-9.0-2.2","uULhv5QxC6","63d79dd07448168e7afd6990","6617fad957f7c6a12ea16e26","6622ca3ce488f002b1e480d2","
    <div id=""grid-container"">
        <!-- Grid items will be dynamically added here -->
    </div>    ","null","","","","","","","","","","","",""
"","null","html-keyboard-response","20","39060","0.0-9.0-3.2","uULhv5QxC6","63d79dd07448168e7afd6990","6617fad957f7c6a12ea16e26","6622ca3ce488f002b1e480d2","feedback screen","null","","","","","","","","","","","",""
"","null","html-keyboard-response","21","39568","0.0-9.0-0.3","uULhv5QxC6","63d79dd07448168e7afd6990","6617fad957f7c6a12ea16e26","6622ca3ce488f002b1e480d2","fixation cross","null","","","","","","","","","","","",""
"","1907","html-keyboard-response","22","41477","0.0-9.0-1.3","uULhv5QxC6","63d79dd07448168e7afd6990","6617fad957f7c6a12ea16e26","6622ca3ce488f002b1e480d2","image grid","p","","","","","Ontogenetic_Distractor_Nonthreat_target","2700","ongrid","p","3","Phylogenetic","true","practice"
"","null","html-keyboard-response","23","41630","0.0-9.0-2.3","uULhv5QxC6","63d79dd07448168e7afd6990","6617fad957f7c6a12ea16e26","6622ca3ce488f002b1e480d2","
    <div id=""grid-container"">
        <!-- Grid items will be dynamically added here -->
    </div>    ","null","","","","","","","","","","","",""
"","null","html-keyboard-response","24","42833","0.0-9.0-3.3","uULhv5QxC6","63d79dd07448168e7afd6990","6617fad957f7c6a12ea16e26","6622ca3ce488f002b1e480d2","feedback screen","null","","","","","","","","","","","",""
"","null","html-keyboard-response","25","43342","0.0-9.0-0.4","uULhv5QxC6","63d79dd07448168e7afd6990","6617fad957f7c6a12ea16e26","6622ca3ce488f002b1e480d2","fixation cross","null","","","","","","","","","","","",""
"","858","html-keyboard-response","26","44201","0.0-9.0-1.4","uULhv5QxC6","63d79dd07448168e7afd6990","6617fad957f7c6a12ea16e26","6622ca3ce488f002b1e480d2","image grid","q","","","","","Ontogenetic_Distractor_Threat_target","2600","ongrid","q","3","Phylogenetic","true","practice"
"","null","html-keyboard-response","27","44353","0.0-9.0-2.4","uULhv5QxC6","63d79dd07448168e7afd6990","6617fad957f7c6a12ea16e26","6622ca3ce488f002b1e480d2","
    <div id=""grid-container"">
        <!-- Grid items will be dynamically added here -->
    </div>    ","null","","","","","","","","","","","",""
"","null","html-keyboard-response","28","45556","0.0-9.0-3.4","uULhv5QxC6","63d79dd07448168e7afd6990","6617fad957f7c6a12ea16e26","6622ca3ce488f002b1e480d2","feedback screen","null","","","","","","","","","","","",""
"","null","html-keyboard-response","29","46064","0.0-9.0-0.5","uULhv5QxC6","63d79dd07448168e7afd6990","6617fad957f7c6a12ea16e26","6622ca3ce488f002b1e480d2","fixation cross","null","","","","","","","","","","","",""
"","1075","html-keyboard-response","30","47140","0.0-9.0-1.5","uULhv5QxC6","63d79dd07448168e7afd6990","6617fad957f7c6a12ea16e26","6622ca3ce488f002b1e480d2","image grid","p","","","","","Ontogenetic_Distractor_notarget","2500","ongrid"," ","8","Phylogenetic","false","practice"
"","null","html-keyboard-response","31","47293","0.0-9.0-2.5","uULhv5QxC6","63d79dd07448168e7afd6990","6617fad957f7c6a12ea16e26","6622ca3ce488f002b1e480d2","
    <div id=""grid-container"">
        <!-- Grid items will be dynamically added here -->
    </div>    ","null","","","","","","","","","","","",""
"","null","html-keyboard-response","32","48496","0.0-9.0-3.5","uULhv5QxC6","63d79dd07448168e7afd6990","6617fad957f7c6a12ea16e26","6622ca3ce488f002b1e480d2","feedback screen","null","","","","","","","","","","","",""
"","null","html-keyboard-response","33","49004","0.0-9.0-0.6","uULhv5QxC6","63d79dd07448168e7afd6990","6617fad957f7c6a12ea16e26","6622ca3ce488f002b1e480d2","fixation cross","null","","","","","","","","","","","",""
"","721","html-keyboard-response","34","49726","0.0-9.0-1.6","uULhv5QxC6","63d79dd07448168e7afd6990","6617fad957f7c6a12ea16e26","6622ca3ce488f002b1e480d2","image grid","p","","","","","Ontogenetic_Distractor_Threat_target","2400","ongrid","q","3","Phylogenetic","false","practice"
"","null","html-keyboard-response","35","49878","0.0-9.0-2.6","uULhv5QxC6","63d79dd07448168e7afd6990","6617fad957f7c6a12ea16e26","6622ca3ce488f002b1e480d2","
    <div id=""grid-container"">
        <!-- Grid items will be dynamically added here -->
    </div>    ","null","","","","","","","","","","","",""
"","null","html-keyboard-response","36","51081","0.0-9.0-3.6","uULhv5QxC6","63d79dd07448168e7afd6990","6617fad957f7c6a12ea16e26","6622ca3ce488f002b1e480d2","feedback screen","null","","","","","","","","","","","",""
"","null","html-keyboard-response","37","51590","0.0-9.0-0.7","uULhv5QxC6","63d79dd07448168e7afd6990","6617fad957f7c6a12ea16e26","6622ca3ce488f002b1e480d2","fixation cross","null","","","","","","","","","","","",""
"","942","html-keyboard-response","38","52533","0.0-9.0-1.7","uULhv5QxC6","63d79dd07448168e7afd6990","6617fad957f7c6a12ea16e26","6622ca3ce488f002b1e480d2","image grid","p","","","","","Ontogenetic_Distractor_Nonthreat_target","2300","ongrid","p","4","Phylogenetic","true","practice"
"","null","html-keyboard-response","39","52685","0.0-9.0-2.7","uULhv5QxC6","63d79dd07448168e7afd6990","6617fad957f7c6a12ea16e26","6622ca3ce488f002b1e480d2","
    <div id=""grid-container"">
        <!-- Grid items will be dynamically added here -->
    </div>    ","null","","","","","","","","","","","",""
"","null","html-keyboard-response","40","53888","0.0-9.0-3.7","uULhv5QxC6","63d79dd07448168e7afd6990","6617fad957f7c6a12ea16e26","6622ca3ce488f002b1e480d2","feedback screen","null","","","","","","","","","","","",""
"","null","html-keyboard-response","41","54396","0.0-9.0-0.8","uULhv5QxC6","63d79dd07448168e7afd6990","6617fad957f7c6a12ea16e26","6622ca3ce488f002b1e480d2","fixation cross","null","","","","","","","","","","","",""
"","null","html-keyboard-response","42","56597","0.0-9.0-1.8","uULhv5QxC6","63d79dd07448168e7afd6990","6617fad957f7c6a12ea16e26","6622ca3ce488f002b1e480d2","
        <div id=""grid-container"">
        <!-- Grid items will be dynamically added here -->
    </div>    ","null","","","","","","","","","","","",""
"","2238","html-keyboard-response","43","56636","0.0-9.0-2.8","uULhv5QxC6","63d79dd07448168e7afd6990","6617fad957f7c6a12ea16e26","6622ca3ce488f002b1e480d2","mask grid","p","","","","","Phylogenetic_Distractor_Threat_target","2200","onmask","q","3","Phylogenetic","false","practice"
"","null","html-keyboard-response","44","57839","0.0-9.0-3.8","uULhv5QxC6","63d79dd07448168e7afd6990","6617fad957f7c6a12ea16e26","6622ca3ce488f002b1e480d2","feedback screen","null","","","","","","","","","","","",""
"","null","html-keyboard-response","45","58346","0.0-9.0-0.9","uULhv5QxC6","63d79dd07448168e7afd6990","6617fad957f7c6a12ea16e26","6622ca3ce488f002b1e480d2","fixation cross","null","","","","","","","","","","","",""
"","1607","html-keyboard-response","46","59955","0.0-9.0-1.9","uULhv5QxC6","63d79dd07448168e7afd6990","6617fad957f7c6a12ea16e26","6622ca3ce488f002b1e480d2","image grid","p","","","","","Ontogenetic_Distractor_Nonthreat_target","2100","ongrid","p","5","Phylogenetic","true","practice"
"","null","html-keyboard-response","47","60108","0.0-9.0-2.9","uULhv5QxC6","63d79dd07448168e7afd6990","6617fad957f7c6a12ea16e26","6622ca3ce488f002b1e480d2","
    <div id=""grid-container"">
        <!-- Grid items will be dynamically added here -->
    </div>    ","null","","","","","","","","","","","",""
"","null","html-keyboard-response","48","61310","0.0-9.0-3.9","uULhv5QxC6","63d79dd07448168e7afd6990","6617fad957f7c6a12ea16e26","6622ca3ce488f002b1e480d2","feedback screen","null","","","","","","","","","","","",""
"","null","html-keyboard-response","49","61818","0.0-9.0-0.10","uULhv5QxC6","63d79dd07448168e7afd6990","6617fad957f7c6a12ea16e26","6622ca3ce488f002b1e480d2","fixation cross","null","","","","","","","","","","","",""
"","1429","html-keyboard-response","50","63249","0.0-9.0-1.10","uULhv5QxC6","63d79dd07448168e7afd6990","6617fad957f7c6a12ea16e26","6622ca3ce488f002b1e480d2","image grid","q","","","","","Phylogenetic_Distractor_Threat_target","2000","ongrid","q","2","Phylogenetic","true","practice"
"","null","html-keyboard-response","51","63402","0.0-9.0-2.10","uULhv5QxC6","63d79dd07448168e7afd6990","6617fad957f7c6a12ea16e26","6622ca3ce488f002b1e480d2","
    <div id=""grid-container"">
        <!-- Grid items will be dynamically added here -->
    </div>    ","null","","","","","","","","","","","",""
"","null","html-keyboard-response","52","64605","0.0-9.0-3.10","uULhv5QxC6","63d79dd07448168e7afd6990","6617fad957f7c6a12ea16e26","6622ca3ce488f002b1e480d2","feedback screen","null","","","","","","","","","","","",""
"","null","html-keyboard-response","53","65111","0.0-9.0-0.11","uULhv5QxC6","63d79dd07448168e7afd6990","6617fad957f7c6a12ea16e26","6622ca3ce488f002b1e480d2","fixation cross","null","","","","","","","","","","","",""
"","1614","html-keyboard-response","54","66726","0.0-9.0-1.11","uULhv5QxC6","63d79dd07448168e7afd6990","6617fad957f7c6a12ea16e26","6622ca3ce488f002b1e480d2","image grid","p","","","","","Ontogenetic_Distractor_notarget","1900","ongrid"," ","7","Phylogenetic","false","practice"
"","null","html-keyboard-response","55","66878","0.0-9.0-2.11","uULhv5QxC6","63d79dd07448168e7afd6990","6617fad957f7c6a12ea16e26","6622ca3ce488f002b1e480d2","
    <div id=""grid-container"">
        <!-- Grid items will be dynamically added here -->
    </div>    ","null","","","","","","","","","","","",""
"","null","html-keyboard-response","56","68082","0.0-9.0-3.11","uULhv5QxC6","63d79dd07448168e7afd6990","6617fad957f7c6a12ea16e26","6622ca3ce488f002b1e480d2","feedback screen","null","","","","","","","","","","","",""
"","null","html-keyboard-response","57","68588","0.0-9.0-0.12","uULhv5QxC6","63d79dd07448168e7afd6990","6617fad957f7c6a12ea16e26","6622ca3ce488f002b1e480d2","fixation cross","null","","","","","","","","","","","",""
"","null","html-keyboard-response","58","70390","0.0-9.0-1.12","uULhv5QxC6","63d79dd07448168e7afd6990","6617fad957f7c6a12ea16e26","6622ca3ce488f002b1e480d2","
        <div id=""grid-container"">
        <!-- Grid items will be dynamically added here -->
    </div>    ","null","","","","","","","","","","","",""
"","1856","html-keyboard-response","59","70447","0.0-9.0-2.12","uULhv5QxC6","63d79dd07448168e7afd6990","6617fad957f7c6a12ea16e26","6622ca3ce488f002b1e480d2","mask grid","q","","","","","Phylogenetic_Distractor_Nonthreat_target","1800","onmask","p","5","Phylogenetic","false","practice"
"","null","html-keyboard-response","60","71652","0.0-9.0-3.12","uULhv5QxC6","63d79dd07448168e7afd6990","6617fad957f7c6a12ea16e26","6622ca3ce488f002b1e480d2","feedback screen","null","","","","","","","","","","","",""
"","null","html-keyboard-response","61","72157","0.0-9.0-0.13","uULhv5QxC6","63d79dd07448168e7afd6990","6617fad957f7c6a12ea16e26","6622ca3ce488f002b1e480d2","fixation cross","null","","","","","","","","","","","",""
"","885","html-keyboard-response","62","73044","0.0-9.0-1.13","uULhv5QxC6","63d79dd07448168e7afd6990","6617fad957f7c6a12ea16e26","6622ca3ce488f002b1e480d2","image grid","q","","","","","Ontogenetic_Distractor_Threat_target","1700","ongrid","q","8","Phylogenetic","true","practice"
"","null","html-keyboard-response","63","73197","0.0-9.0-2.13","uULhv5QxC6","63d79dd07448168e7afd6990","6617fad957f7c6a12ea16e26","6622ca3ce488f002b1e480d2","
    <div id=""grid-container"">
        <!-- Grid items will be dynamically added here -->
    </div>    ","null","","","","","","","","","","","",""
"","null","html-keyboard-response","64","74401","0.0-9.0-3.13","uULhv5QxC6","63d79dd07448168e7afd6990","6617fad957f7c6a12ea16e26","6622ca3ce488f002b1e480d2","feedback screen","null","","","","","","","","","","","",""
"","null","html-keyboard-response","65","74907","0.0-9.0-0.14","uULhv5QxC6","63d79dd07448168e7afd6990","6617fad957f7c6a12ea16e26","6622ca3ce488f002b1e480d2","fixation cross","null","","","","","","","","","","","",""
"","1360","html-keyboard-response","66","76269","0.0-9.0-1.14","uULhv5QxC6","63d79dd07448168e7afd6990","6617fad957f7c6a12ea16e26","6622ca3ce488f002b1e480d2","image grid","q","","","","","Phylogenetic_Distractor_Nonthreat_target","1600","ongrid","p","9","Phylogenetic","false","practice"
"","null","html-keyboard-response","67","76420","0.0-9.0-2.14","uULhv5QxC6","63d79dd07448168e7afd6990","6617fad957f7c6a12ea16e26","6622ca3ce488f002b1e480d2","
    <div id=""grid-container"">
        <!-- Grid items will be dynamically added here -->
    </div>    ","null","","","","","","","","","","","",""
"","null","html-keyboard-response","68","77624","0.0-9.0-3.14","uULhv5QxC6","63d79dd07448168e7afd6990","6617fad957f7c6a12ea16e26","6622ca3ce488f002b1e480d2","feedback screen","null","","","","","","","","","","","",""
"","null","html-keyboard-response","69","78130","0.0-9.0-0.15","uULhv5QxC6","63d79dd07448168e7afd6990","6617fad957f7c6a12ea16e26","6622ca3ce488f002b1e480d2","fixation cross","null","","","","","","","","","","","",""
"","null","html-keyboard-response","70","79632","0.0-9.0-1.15","uULhv5QxC6","63d79dd07448168e7afd6990","6617fad957f7c6a12ea16e26","6622ca3ce488f002b1e480d2","
        <div id=""grid-container"">
        <!-- Grid items will be dynamically added here -->
    </div>    ","null","","","","","","","","","","","",""
"","4973","html-keyboard-response","71","83106","0.0-9.0-2.15","uULhv5QxC6","63d79dd07448168e7afd6990","6617fad957f7c6a12ea16e26","6622ca3ce488f002b1e480d2","mask grid","p","","","","","Phylogenetic_Distractor_Threat_target","1500","onmask","q","6","Phylogenetic","false","practice"
"","null","html-keyboard-response","72","84310","0.0-9.0-3.15","uULhv5QxC6","63d79dd07448168e7afd6990","6617fad957f7c6a12ea16e26","6622ca3ce488f002b1e480d2","feedback screen","null","","","","","","","","","","","",""
"","null","html-keyboard-response","73","84817","0.0-9.0-0.16","uULhv5QxC6","63d79dd07448168e7afd6990","6617fad957f7c6a12ea16e26","6622ca3ce488f002b1e480d2","fixation cross","null","","","","","","","","","","","",""
"","1256","html-keyboard-response","74","86074","0.0-9.0-1.16","uULhv5QxC6","63d79dd07448168e7afd6990","6617fad957f7c6a12ea16e26","6622ca3ce488f002b1e480d2","image grid","p","","","","","Phylogenetic_Distractor_Nonthreat_target","1400","ongrid","p","8","Phylogenetic","true","practice"
"","null","html-keyboard-response","75","86227","0.0-9.0-2.16","uULhv5QxC6","63d79dd07448168e7afd6990","6617fad957f7c6a12ea16e26","6622ca3ce488f002b1e480d2","
    <div id=""grid-container"">
        <!-- Grid items will be dynamically added here -->
    </div>    ","null","","","","","","","","","","","",""
"","null","html-keyboard-response","76","87431","0.0-9.0-3.16","uULhv5QxC6","63d79dd07448168e7afd6990","6617fad957f7c6a12ea16e26","6622ca3ce488f002b1e480d2","feedback screen","null","","","","","","","","","","","",""
"","null","html-keyboard-response","77","87937","0.0-9.0-0.17","uULhv5QxC6","63d79dd07448168e7afd6990","6617fad957f7c6a12ea16e26","6622ca3ce488f002b1e480d2","fixation cross","null","","","","","","","","","","","",""
"","null","html-keyboard-response","78","89239","0.0-9.0-1.17","uULhv5QxC6","63d79dd07448168e7afd6990","6617fad957f7c6a12ea16e26","6622ca3ce488f002b1e480d2","
        <div id=""grid-container"">
        <!-- Grid items will be dynamically added here -->
    </div>    ","null","","","","","","","","","","","",""
"","1406","html-keyboard-response","79","89348","0.0-9.0-2.17","uULhv5QxC6","63d79dd07448168e7afd6990","6617fad957f7c6a12ea16e26","6622ca3ce488f002b1e480d2","mask grid","q","","","","","Phylogenetic_Distractor_notarget","1300","onmask"," ","8","Phylogenetic","false","practice"
"","null","html-keyboard-response","80","90551","0.0-9.0-3.17","uULhv5QxC6","63d79dd07448168e7afd6990","6617fad957f7c6a12ea16e26","6622ca3ce488f002b1e480d2","feedback screen","null","","","","","","","","","","","",""
"","null","html-keyboard-response","81","91057","0.0-9.0-0.18","uULhv5QxC6","63d79dd07448168e7afd6990","6617fad957f7c6a12ea16e26","6622ca3ce488f002b1e480d2","fixation cross","null","","","","","","","","","","","",""
"","994","html-keyboard-response","82","92053","0.0-9.0-1.18","uULhv5QxC6","63d79dd07448168e7afd6990","6617fad957f7c6a12ea16e26","6622ca3ce488f002b1e480d2","image grid","p","","","","","Ontogenetic_Distractor_Nonthreat_target","1200","ongrid","p","8","Phylogenetic","true","practice"
"","null","html-keyboard-response","83","92205","0.0-9.0-2.18","uULhv5QxC6","63d79dd07448168e7afd6990","6617fad957f7c6a12ea16e26","6622ca3ce488f002b1e480d2","
    <div id=""grid-container"">
        <!-- Grid items will be dynamically added here -->
    </div>    ","null","","","","","","","","","","","",""
"","null","html-keyboard-response","84","93409","0.0-9.0-3.18","uULhv5QxC6","63d79dd07448168e7afd6990","6617fad957f7c6a12ea16e26","6622ca3ce488f002b1e480d2","feedback screen","null","","","","","","","","","","","",""
"","null","html-keyboard-response","85","93915","0.0-9.0-0.19","uULhv5QxC6","63d79dd07448168e7afd6990","6617fad957f7c6a12ea16e26","6622ca3ce488f002b1e480d2","fixation cross","null","","","","","","","","","","","",""
"","691","html-keyboard-response","86","94607","0.0-9.0-1.19","uULhv5QxC6","63d79dd07448168e7afd6990","6617fad957f7c6a12ea16e26","6622ca3ce488f002b1e480d2","image grid","q","","","","","Ontogenetic_Distractor_Threat_target","1100","ongrid","q","7","Phylogenetic","true","practice"
"","null","html-keyboard-response","87","94759","0.0-9.0-2.19","uULhv5QxC6","63d79dd07448168e7afd6990","6617fad957f7c6a12ea16e26","6622ca3ce488f002b1e480d2","
    <div id=""grid-container"">
        <!-- Grid items will be dynamically added here -->
    </div>    ","null","","","","","","","","","","","",""
"","null","html-keyboard-response","88","95962","0.0-9.0-3.19","uULhv5QxC6","63d79dd07448168e7afd6990","6617fad957f7c6a12ea16e26","6622ca3ce488f002b1e480d2","feedback screen","null","","","","","","","","","","","",""
"","1820","html-keyboard-response","89","97828","0.0-10.0","uULhv5QxC6","63d79dd07448168e7afd6990","6617fad957f7c6a12ea16e26","6622ca3ce488f002b1e480d2","pre-experimental_briefing"," ","","","","","","","","","","","",""
"","null","html-keyboard-response","90","100331","0.0-11.0-0.0","uULhv5QxC6","63d79dd07448168e7afd6990","6617fad957f7c6a12ea16e26","6622ca3ce488f002b1e480d2","fixation cross","null","","","","","","","","","","","",""
"","820","html-keyboard-response","91","101152","0.0-11.0-1.0","uULhv5QxC6","63d79dd07448168e7afd6990","6617fad957f7c6a12ea16e26","6622ca3ce488f002b1e480d2","image grid","q","","","","","Phylogenetic_Distractor_notarget","2500","ongrid"," ","7","Phylogenetic","false","experimental"
"","null","html-keyboard-response","92","101305","0.0-11.0-2.0","uULhv5QxC6","63d79dd07448168e7afd6990","6617fad957f7c6a12ea16e26","6622ca3ce488f002b1e480d2","
    <div id=""grid-container"">
        <!-- Grid items will be dynamically added here -->
    </div>    ","null","","","","","","","","","","","",""
"","null","html-keyboard-response","93","102007","0.0-11.0-0.1","uULhv5QxC6","63d79dd07448168e7afd6990","6617fad957f7c6a12ea16e26","6622ca3ce488f002b1e480d2","fixation cross","null","","","","","","","","","","","",""
"","1568","html-keyboard-response","94","103577","0.0-11.0-1.1","uULhv5QxC6","63d79dd07448168e7afd6990","6617fad957f7c6a12ea16e26","6622ca3ce488f002b1e480d2","image grid","q","","","","","Phylogenetic_Distractor_Threat_target","2500","ongrid","q","7","Phylogenetic","true","experimental"
"","null","html-keyboard-response","95","103730","0.0-11.0-2.1","uULhv5QxC6","63d79dd07448168e7afd6990","6617fad957f7c6a12ea16e26","6622ca3ce488f002b1e480d2","
    <div id=""grid-container"">
        <!-- Grid items will be dynamically added here -->
    </div>    ","null","","","","","","","","","","","",""
"","null","html-keyboard-response","96","104431","0.0-11.0-0.2","uULhv5QxC6","63d79dd07448168e7afd6990","6617fad957f7c6a12ea16e26","6622ca3ce488f002b1e480d2","fixation cross","null","","","","","","","","","","","",""
"","1355","html-keyboard-response","97","105788","0.0-11.0-1.2","uULhv5QxC6","63d79dd07448168e7afd6990","6617fad957f7c6a12ea16e26","6622ca3ce488f002b1e480d2","image grid","q","","","","","Phylogenetic_Distractor_Threat_target","2500","ongrid","q","5","Phylogenetic","true","experimental"
"","null","html-keyboard-response","98","105941","0.0-11.0-2.2","uULhv5QxC6","63d79dd07448168e7afd6990","6617fad957f7c6a12ea16e26","6622ca3ce488f002b1e480d2","
    <div id=""grid-container"">
        <!-- Grid items will be dynamically added here -->
    </div>    ","null","","","","","","","","","","","",""
"","null","html-keyboard-response","99","106643","0.0-11.0-0.3","uULhv5QxC6","63d79dd07448168e7afd6990","6617fad957f7c6a12ea16e26","6622ca3ce488f002b1e480d2","fixation cross","null","","","","","","","","","","","",""
"","1489","html-keyboard-response","100","108133","0.0-11.0-1.3","uULhv5QxC6","63d79dd07448168e7afd6990","6617fad957f7c6a12ea16e26","6622ca3ce488f002b1e480d2","image grid","p","","","","","Phylogenetic_Distractor_Nonthreat_target","2500","ongrid","p","7","Phylogenetic","true","experimental"
"","null","html-keyboard-response","101","108285","0.0-11.0-2.3","uULhv5QxC6","63d79dd07448168e7afd6990","6617fad957f7c6a12ea16e26","6622ca3ce488f002b1e480d2","
    <div id=""grid-container"">
        <!-- Grid items will be dynamically added here -->
    </div>    ","null","","","","","","","","","","","",""
"","null","html-keyboard-response","102","108987","0.0-11.0-0.4","uULhv5QxC6","63d79dd07448168e7afd6990","6617fad957f7c6a12ea16e26","6622ca3ce488f002b1e480d2","fixation cross","null","","","","","","","","","","","",""
"","1909","html-keyboard-response","103","110897","0.0-11.0-1.4","uULhv5QxC6","63d79dd07448168e7afd6990","6617fad957f7c6a12ea16e26","6622ca3ce488f002b1e480d2","image grid","p","","","","","Phylogenetic_Distractor_Nonthreat_target","2500","ongrid","p","4","Phylogenetic","true","experimental"
"","null","html-keyboard-response","104","111050","0.0-11.0-2.4","uULhv5QxC6","63d79dd07448168e7afd6990","6617fad957f7c6a12ea16e26","6622ca3ce488f002b1e480d2","
    <div id=""grid-container"">
        <!-- Grid items will be dynamically added here -->
    </div>    ","null","","","","","","","","","","","",""
"","null","html-keyboard-response","105","111752","0.0-11.0-0.5","uULhv5QxC6","63d79dd07448168e7afd6990","6617fad957f7c6a12ea16e26","6622ca3ce488f002b1e480d2","fixation cross","null","","","","","","","","","","","",""
"","937","html-keyboard-response","106","112691","0.0-11.0-1.5","uULhv5QxC6","63d79dd07448168e7afd6990","6617fad957f7c6a12ea16e26","6622ca3ce488f002b1e480d2","image grid","q","","","","","Phylogenetic_Distractor_Threat_target","2500","ongrid","q","3","Phylogenetic","true","experimental"
"","null","html-keyboard-response","107","112843","0.0-11.0-2.5","uULhv5QxC6","63d79dd07448168e7afd6990","6617fad957f7c6a12ea16e26","6622ca3ce488f002b1e480d2","
    <div id=""grid-container"">
        <!-- Grid items will be dynamically added here -->
    </div>    ","null","","","","","","","","","","","",""
"","null","html-keyboard-response","108","113546","0.0-11.0-0.6","uULhv5QxC6","63d79dd07448168e7afd6990","6617fad957f7c6a12ea16e26","6622ca3ce488f002b1e480d2","fixation cross","null","","","","","","","","","","","",""
"","1507","html-keyboard-response","109","115054","0.0-11.0-1.6","uULhv5QxC6","63d79dd07448168e7afd6990","6617fad957f7c6a12ea16e26","6622ca3ce488f002b1e480d2","image grid","q","","","","","Phylogenetic_Distractor_Nonthreat_target","2500","ongrid","p","8","Phylogenetic","false","experimental"
"","null","html-keyboard-response","110","115207","0.0-11.0-2.6","uULhv5QxC6","63d79dd07448168e7afd6990","6617fad957f7c6a12ea16e26","6622ca3ce488f002b1e480d2","
    <div id=""grid-container"">
        <!-- Grid items will be dynamically added here -->
    </div>    ","null","","","","","","","","","","","",""
"","null","html-keyboard-response","111","115910","0.0-11.0-0.7","uULhv5QxC6","63d79dd07448168e7afd6990","6617fad957f7c6a12ea16e26","6622ca3ce488f002b1e480d2","fixation cross","null","","","","","","","","","","","",""
"","966","html-keyboard-response","112","116878","0.0-11.0-1.7","uULhv5QxC6","63d79dd07448168e7afd6990","6617fad957f7c6a12ea16e26","6622ca3ce488f002b1e480d2","image grid","p","","","","","Phylogenetic_Distractor_Nonthreat_target","2500","ongrid","p","6","Phylogenetic","true","experimental"
"","null","html-keyboard-response","113","117030","0.0-11.0-2.7","uULhv5QxC6","63d79dd07448168e7afd6990","6617fad957f7c6a12ea16e26","6622ca3ce488f002b1e480d2","
    <div id=""grid-container"">
        <!-- Grid items will be dynamically added here -->
    </div>    ","null","","","","","","","","","","","",""
"","null","html-keyboard-response","114","117732","0.0-11.0-0.8","uULhv5QxC6","63d79dd07448168e7afd6990","6617fad957f7c6a12ea16e26","6622ca3ce488f002b1e480d2","fixation cross","null","","","","","","","","","","","",""
"","1428","html-keyboard-response","115","119162","0.0-11.0-1.8","uULhv5QxC6","63d79dd07448168e7afd6990","6617fad957f7c6a12ea16e26","6622ca3ce488f002b1e480d2","image grid","p","","","","","Phylogenetic_Distractor_Nonthreat_target","2500","ongrid","p","4","Phylogenetic","true","experimental"
"","null","html-keyboard-response","116","119314","0.0-11.0-2.8","uULhv5QxC6","63d79dd07448168e7afd6990","6617fad957f7c6a12ea16e26","6622ca3ce488f002b1e480d2","
    <div id=""grid-container"">
        <!-- Grid items will be dynamically added here -->
    </div>    ","null","","","","","","","","","","","",""
"","null","html-keyboard-response","117","120017","0.0-11.0-0.9","uULhv5QxC6","63d79dd07448168e7afd6990","6617fad957f7c6a12ea16e26","6622ca3ce488f002b1e480d2","fixation cross","null","","","","","","","","","","","",""
"","1220","html-keyboard-response","118","121239","0.0-11.0-1.9","uULhv5QxC6","63d79dd07448168e7afd6990","6617fad957f7c6a12ea16e26","6622ca3ce488f002b1e480d2","image grid","q","","","","","Phylogenetic_Distractor_Threat_target","2500","ongrid","q","3","Phylogenetic","true","experimental"
"","null","html-keyboard-response","119","121391","0.0-11.0-2.9","uULhv5QxC6","63d79dd07448168e7afd6990","6617fad957f7c6a12ea16e26","6622ca3ce488f002b1e480d2","
    <div id=""grid-container"">
        <!-- Grid items will be dynamically added here -->
    </div>    ","null","","","","","","","","","","","",""
"","null","html-keyboard-response","120","122093","0.0-11.0-0.10","uULhv5QxC6","63d79dd07448168e7afd6990","6617fad957f7c6a12ea16e26","6622ca3ce488f002b1e480d2","fixation cross","null","","","","","","","","","","","",""
"","772","html-keyboard-response","121","122867","0.0-11.0-1.10","uULhv5QxC6","63d79dd07448168e7afd6990","6617fad957f7c6a12ea16e26","6622ca3ce488f002b1e480d2","image grid","q","","","","","Phylogenetic_Distractor_Threat_target","2500","ongrid","q","5","Phylogenetic","true","experimental"
"","null","html-keyboard-response","122","123020","0.0-11.0-2.10","uULhv5QxC6","63d79dd07448168e7afd6990","6617fad957f7c6a12ea16e26","6622ca3ce488f002b1e480d2","
    <div id=""grid-container"">
        <!-- Grid items will be dynamically added here -->
    </div>    ","null","","","","","","","","","","","",""
"","null","html-keyboard-response","123","123722","0.0-11.0-0.11","uULhv5QxC6","63d79dd07448168e7afd6990","6617fad957f7c6a12ea16e26","6622ca3ce488f002b1e480d2","fixation cross","null","","","","","","","","","","","",""
"","1954","html-keyboard-response","124","125677","0.0-11.0-1.11","uULhv5QxC6","63d79dd07448168e7afd6990","6617fad957f7c6a12ea16e26","6622ca3ce488f002b1e480d2","image grid","p","","","","","Phylogenetic_Distractor_notarget","2500","ongrid"," ","7","Phylogenetic","false","experimental"
"","null","html-keyboard-response","125","125830","0.0-11.0-2.11","uULhv5QxC6","63d79dd07448168e7afd6990","6617fad957f7c6a12ea16e26","6622ca3ce488f002b1e480d2","
    <div id=""grid-container"">
        <!-- Grid items will be dynamically added here -->
    </div>    ","null","","","","","","","","","","","",""
"","null","html-keyboard-response","126","126532","0.0-11.0-0.12","uULhv5QxC6","63d79dd07448168e7afd6990","6617fad957f7c6a12ea16e26","6622ca3ce488f002b1e480d2","fixation cross","null","","","","","","","","","","","",""
"","1831","html-keyboard-response","127","128365","0.0-11.0-1.12","uULhv5QxC6","63d79dd07448168e7afd6990","6617fad957f7c6a12ea16e26","6622ca3ce488f002b1e480d2","image grid","q","","","","","Phylogenetic_Distractor_Nonthreat_target","2500","ongrid","p","7","Phylogenetic","false","experimental"
"","null","html-keyboard-response","128","128517","0.0-11.0-2.12","uULhv5QxC6","63d79dd07448168e7afd6990","6617fad957f7c6a12ea16e26","6622ca3ce488f002b1e480d2","
    <div id=""grid-container"">
        <!-- Grid items will be dynamically added here -->
    </div>    ","null","","","","","","","","","","","",""
"","null","html-keyboard-response","129","129219","0.0-11.0-0.13","uULhv5QxC6","63d79dd07448168e7afd6990","6617fad957f7c6a12ea16e26","6622ca3ce488f002b1e480d2","fixation cross","null","","","","","","","","","","","",""
"","1814","html-keyboard-response","130","131035","0.0-11.0-1.13","uULhv5QxC6","63d79dd07448168e7afd6990","6617fad957f7c6a12ea16e26","6622ca3ce488f002b1e480d2","image grid","p","","","","","Phylogenetic_Distractor_Nonthreat_target","2500","ongrid","p","9","Phylogenetic","true","experimental"
"","null","html-keyboard-response","131","131188","0.0-11.0-2.13","uULhv5QxC6","63d79dd07448168e7afd6990","6617fad957f7c6a12ea16e26","6622ca3ce488f002b1e480d2","
    <div id=""grid-container"">
        <!-- Grid items will be dynamically added here -->
    </div>    ","null","","","","","","","","","","","",""
"","null","html-keyboard-response","132","131890","0.0-11.0-0.14","uULhv5QxC6","63d79dd07448168e7afd6990","6617fad957f7c6a12ea16e26","6622ca3ce488f002b1e480d2","fixation cross","null","","","","","","","","","","","",""
"","663","html-keyboard-response","133","132554","0.0-11.0-1.14","uULhv5QxC6","63d79dd07448168e7afd6990","6617fad957f7c6a12ea16e26","6622ca3ce488f002b1e480d2","image grid","q","","","","","Phylogenetic_Distractor_Threat_target","2500","ongrid","q","7","Phylogenetic","true","experimental"
"","null","html-keyboard-response","134","132707","0.0-11.0-2.14","uULhv5QxC6","63d79dd07448168e7afd6990","6617fad957f7c6a12ea16e26","6622ca3ce488f002b1e480d2","
    <div id=""grid-container"">
        <!-- Grid items will be dynamically added here -->
    </div>    ","null","","","","","","","","","","","",""
"","null","html-keyboard-response","135","133409","0.0-11.0-0.15","uULhv5QxC6","63d79dd07448168e7afd6990","6617fad957f7c6a12ea16e26","6622ca3ce488f002b1e480d2","fixation cross","null","","","","","","","","","","","",""
"","1353","html-keyboard-response","136","134763","0.0-11.0-1.15","uULhv5QxC6","63d79dd07448168e7afd6990","6617fad957f7c6a12ea16e26","6622ca3ce488f002b1e480d2","image grid","p","","","","","Phylogenetic_Distractor_notarget","2500","ongrid"," ","4","Phylogenetic","false","experimental"
"","null","html-keyboard-response","137","134916","0.0-11.0-2.15","uULhv5QxC6","63d79dd07448168e7afd6990","6617fad957f7c6a12ea16e26","6622ca3ce488f002b1e480d2","
    <div id=""grid-container"">
        <!-- Grid items will be dynamically added here -->
    </div>    ","null","","","","","","","","","","","",""
"","null","html-keyboard-response","138","135618","0.0-11.0-0.16","uULhv5QxC6","63d79dd07448168e7afd6990","6617fad957f7c6a12ea16e26","6622ca3ce488f002b1e480d2","fixation cross","null","","","","","","","","","","","",""
"","1194","html-keyboard-response","139","136814","0.0-11.0-1.16","uULhv5QxC6","63d79dd07448168e7afd6990","6617fad957f7c6a12ea16e26","6622ca3ce488f002b1e480d2","image grid","p","","","","","Phylogenetic_Distractor_Nonthreat_target","2500","ongrid","p","4","Phylogenetic","true","experimental"
"","null","html-keyboard-response","140","136967","0.0-11.0-2.16","uULhv5QxC6","63d79dd07448168e7afd6990","6617fad957f7c6a12ea16e26","6622ca3ce488f002b1e480d2","
    <div id=""grid-container"">
        <!-- Grid items will be dynamically added here -->
    </div>    ","null","","","","","","","","","","","",""
"","null","html-keyboard-response","141","137669","0.0-11.0-0.17","uULhv5QxC6","63d79dd07448168e7afd6990","6617fad957f7c6a12ea16e26","6622ca3ce488f002b1e480d2","fixation cross","null","","","","","","","","","","","",""
"","1125","html-keyboard-response","142","138796","0.0-11.0-1.17","uULhv5QxC6","63d79dd07448168e7afd6990","6617fad957f7c6a12ea16e26","6622ca3ce488f002b1e480d2","image grid","p","","","","","Phylogenetic_Distractor_Nonthreat_target","2500","ongrid","p","7","Phylogenetic","true","experimental"
"","null","html-keyboard-response","143","138949","0.0-11.0-2.17","uULhv5QxC6","63d79dd07448168e7afd6990","6617fad957f7c6a12ea16e26","6622ca3ce488f002b1e480d2","
    <div id=""grid-container"">
        <!-- Grid items will be dynamically added here -->
    </div>    ","null","","","","","","","","","","","",""
"","null","html-keyboard-response","144","139651","0.0-11.0-0.18","uULhv5QxC6","63d79dd07448168e7afd6990","6617fad957f7c6a12ea16e26","6622ca3ce488f002b1e480d2","fixation cross","null","","","","","","","","","","","",""
"","1619","html-keyboard-response","145","141271","0.0-11.0-1.18","uULhv5QxC6","63d79dd07448168e7afd6990","6617fad957f7c6a12ea16e26","6622ca3ce488f002b1e480d2","image grid","p","","","","","Phylogenetic_Distractor_Nonthreat_target","2500","ongrid","p","3","Phylogenetic","true","experimental"
"","null","html-keyboard-response","146","141423","0.0-11.0-2.18","uULhv5QxC6","63d79dd07448168e7afd6990","6617fad957f7c6a12ea16e26","6622ca3ce488f002b1e480d2","
    <div id=""grid-container"">
        <!-- Grid items will be dynamically added here -->
    </div>    ","null","","","","","","","","","","","",""
"","null","html-keyboard-response","147","142126","0.0-11.0-0.19","uULhv5QxC6","63d79dd07448168e7afd6990","6617fad957f7c6a12ea16e26","6622ca3ce488f002b1e480d2","fixation cross","null","","","","","","","","","","","",""
"","665","html-keyboard-response","148","142793","0.0-11.0-1.19","uULhv5QxC6","63d79dd07448168e7afd6990","6617fad957f7c6a12ea16e26","6622ca3ce488f002b1e480d2","image grid","q","","","","","Phylogenetic_Distractor_Threat_target","2500","ongrid","q","3","Phylogenetic","true","experimental"
"","null","html-keyboard-response","149","142945","0.0-11.0-2.19","uULhv5QxC6","63d79dd07448168e7afd6990","6617fad957f7c6a12ea16e26","6622ca3ce488f002b1e480d2","
    <div id=""grid-container"">
        <!-- Grid items will be dynamically added here -->
    </div>    ","null","","","","","","","","","","","",""
"","null","html-keyboard-response","150","143648","0.0-11.0-0.20","uULhv5QxC6","63d79dd07448168e7afd6990","6617fad957f7c6a12ea16e26","6622ca3ce488f002b1e480d2","fixation cross","null","","","","","","","","","","","",""
"","445","html-keyboard-response","151","144095","0.0-11.0-1.20","uULhv5QxC6","63d79dd07448168e7afd6990","6617fad957f7c6a12ea16e26","6622ca3ce488f002b1e480d2","image grid","q","","","","","Phylogenetic_Distractor_Threat_target","2500","ongrid","q","2","Phylogenetic","true","experimental"
"","null","html-keyboard-response","152","144248","0.0-11.0-2.20","uULhv5QxC6","63d79dd07448168e7afd6990","6617fad957f7c6a12ea16e26","6622ca3ce488f002b1e480d2","
    <div id=""grid-container"">
        <!-- Grid items will be dynamically added here -->
    </div>    ","null","","","","","","","","","","","",""
"","null","html-keyboard-response","153","144949","0.0-11.0-0.21","uULhv5QxC6","63d79dd07448168e7afd6990","6617fad957f7c6a12ea16e26","6622ca3ce488f002b1e480d2","fixation cross","null","","","","","","","","","","","",""
"","930","html-keyboard-response","154","145881","0.0-11.0-1.21","uULhv5QxC6","63d79dd07448168e7afd6990","6617fad957f7c6a12ea16e26","6622ca3ce488f002b1e480d2","image grid","q","","","","","Phylogenetic_Distractor_Threat_target","2500","ongrid","q","8","Phylogenetic","true","experimental"
"","null","html-keyboard-response","155","146033","0.0-11.0-2.21","uULhv5QxC6","63d79dd07448168e7afd6990","6617fad957f7c6a12ea16e26","6622ca3ce488f002b1e480d2","
    <div id=""grid-container"">
        <!-- Grid items will be dynamically added here -->
    </div>    ","null","","","","","","","","","","","",""
"","null","html-keyboard-response","156","146736","0.0-11.0-0.22","uULhv5QxC6","63d79dd07448168e7afd6990","6617fad957f7c6a12ea16e26","6622ca3ce488f002b1e480d2","fixation cross","null","","","","","","","","","","","",""
"","869","html-keyboard-response","157","147606","0.0-11.0-1.22","uULhv5QxC6","63d79dd07448168e7afd6990","6617fad957f7c6a12ea16e26","6622ca3ce488f002b1e480d2","image grid","p","","","","","Phylogenetic_Distractor_Nonthreat_target","2500","ongrid","p","8","Phylogenetic","true","experimental"
"","null","html-keyboard-response","158","147758","0.0-11.0-2.22","uULhv5QxC6","63d79dd07448168e7afd6990","6617fad957f7c6a12ea16e26","6622ca3ce488f002b1e480d2","
    <div id=""grid-container"">
        <!-- Grid items will be dynamically added here -->
    </div>    ","null","","","","","","","","","","","",""
"","null","html-keyboard-response","159","148461","0.0-11.0-0.23","uULhv5QxC6","63d79dd07448168e7afd6990","6617fad957f7c6a12ea16e26","6622ca3ce488f002b1e480d2","fixation cross","null","","","","","","","","","","","",""
"","765","html-keyboard-response","160","149227","0.0-11.0-1.23","uULhv5QxC6","63d79dd07448168e7afd6990","6617fad957f7c6a12ea16e26","6622ca3ce488f002b1e480d2","image grid","q","","","","","Phylogenetic_Distractor_Threat_target","2500","ongrid","q","4","Phylogenetic","true","experimental"
"","null","html-keyboard-response","161","149380","0.0-11.0-2.23","uULhv5QxC6","63d79dd07448168e7afd6990","6617fad957f7c6a12ea16e26","6622ca3ce488f002b1e480d2","
    <div id=""grid-container"">
        <!-- Grid items will be dynamically added here -->
    </div>    ","null","","","","","","","","","","","",""
"","null","html-keyboard-response","162","150082","0.0-11.0-0.24","uULhv5QxC6","63d79dd07448168e7afd6990","6617fad957f7c6a12ea16e26","6622ca3ce488f002b1e480d2","fixation cross","null","","","","","","","","","","","",""
"","607","html-keyboard-response","163","150690","0.0-11.0-1.24","uULhv5QxC6","63d79dd07448168e7afd6990","6617fad957f7c6a12ea16e26","6622ca3ce488f002b1e480d2","image grid","q","","","","","Phylogenetic_Distractor_Threat_target","2500","ongrid","q","7","Phylogenetic","true","experimental"
"","null","html-keyboard-response","164","150843","0.0-11.0-2.24","uULhv5QxC6","63d79dd07448168e7afd6990","6617fad957f7c6a12ea16e26","6622ca3ce488f002b1e480d2","
    <div id=""grid-container"">
        <!-- Grid items will be dynamically added here -->
    </div>    ","null","","","","","","","","","","","",""
"","null","html-keyboard-response","165","151544","0.0-11.0-0.25","uULhv5QxC6","63d79dd07448168e7afd6990","6617fad957f7c6a12ea16e26","6622ca3ce488f002b1e480d2","fixation cross","null","","","","","","","","","","","",""
"","1029","html-keyboard-response","166","152574","0.0-11.0-1.25","uULhv5QxC6","63d79dd07448168e7afd6990","6617fad957f7c6a12ea16e26","6622ca3ce488f002b1e480d2","image grid","q","","","","","Phylogenetic_Distractor_Threat_target","2500","ongrid","q","6","Phylogenetic","true","experimental"
"","null","html-keyboard-response","167","152727","0.0-11.0-2.25","uULhv5QxC6","63d79dd07448168e7afd6990","6617fad957f7c6a12ea16e26","6622ca3ce488f002b1e480d2","
    <div id=""grid-container"">
        <!-- Grid items will be dynamically added here -->
    </div>    ","null","","","","","","","","","","","",""
"","null","html-keyboard-response","168","153429","0.0-11.0-0.26","uULhv5QxC6","63d79dd07448168e7afd6990","6617fad957f7c6a12ea16e26","6622ca3ce488f002b1e480d2","fixation cross","null","","","","","","","","","","","",""
"","736","html-keyboard-response","169","154167","0.0-11.0-1.26","uULhv5QxC6","63d79dd07448168e7afd6990","6617fad957f7c6a12ea16e26","6622ca3ce488f002b1e480d2","image grid","q","","","","","Phylogenetic_Distractor_Threat_target","2500","ongrid","q","9","Phylogenetic","true","experimental"
"","null","html-keyboard-response","170","154320","0.0-11.0-2.26","uULhv5QxC6","63d79dd07448168e7afd6990","6617fad957f7c6a12ea16e26","6622ca3ce488f002b1e480d2","
    <div id=""grid-container"">
        <!-- Grid items will be dynamically added here -->
    </div>    ","null","","","","","","","","","","","",""
"","null","html-keyboard-response","171","155022","0.0-11.0-0.27","uULhv5QxC6","63d79dd07448168e7afd6990","6617fad957f7c6a12ea16e26","6622ca3ce488f002b1e480d2","fixation cross","null","","","","","","","","","","","",""
"","655","html-keyboard-response","172","155678","0.0-11.0-1.27","uULhv5QxC6","63d79dd07448168e7afd6990","6617fad957f7c6a12ea16e26","6622ca3ce488f002b1e480d2","image grid","p","","","","","Phylogenetic_Distractor_Nonthreat_target","2500","ongrid","p","5","Phylogenetic","true","experimental"
"","null","html-keyboard-response","173","155831","0.0-11.0-2.27","uULhv5QxC6","63d79dd07448168e7afd6990","6617fad957f7c6a12ea16e26","6622ca3ce488f002b1e480d2","
    <div id=""grid-container"">
        <!-- Grid items will be dynamically added here -->
    </div>    ","null","","","","","","","","","","","",""
"","null","html-keyboard-response","174","156533","0.0-11.0-0.28","uULhv5QxC6","63d79dd07448168e7afd6990","6617fad957f7c6a12ea16e26","6622ca3ce488f002b1e480d2","fixation cross","null","","","","","","","","","","","",""
"","797","html-keyboard-response","175","157331","0.0-11.0-1.28","uULhv5QxC6","63d79dd07448168e7afd6990","6617fad957f7c6a12ea16e26","6622ca3ce488f002b1e480d2","image grid","q","","","","","Phylogenetic_Distractor_Nonthreat_target","2500","ongrid","p","9","Phylogenetic","false","experimental"
"","null","html-keyboard-response","176","157483","0.0-11.0-2.28","uULhv5QxC6","63d79dd07448168e7afd6990","6617fad957f7c6a12ea16e26","6622ca3ce488f002b1e480d2","
    <div id=""grid-container"">
        <!-- Grid items will be dynamically added here -->
    </div>    ","null","","","","","","","","","","","",""
"","null","html-keyboard-response","177","158185","0.0-11.0-0.29","uULhv5QxC6","63d79dd07448168e7afd6990","6617fad957f7c6a12ea16e26","6622ca3ce488f002b1e480d2","fixation cross","null","","","","","","","","","","","",""
"","727","html-keyboard-response","178","158914","0.0-11.0-1.29","uULhv5QxC6","63d79dd07448168e7afd6990","6617fad957f7c6a12ea16e26","6622ca3ce488f002b1e480d2","image grid","q","","","","","Phylogenetic_Distractor_Threat_target","2500","ongrid","q","5","Phylogenetic","true","experimental"
"","null","html-keyboard-response","179","159068","0.0-11.0-2.29","uULhv5QxC6","63d79dd07448168e7afd6990","6617fad957f7c6a12ea16e26","6622ca3ce488f002b1e480d2","
    <div id=""grid-container"">
        <!-- Grid items will be dynamically added here -->
    </div>    ","null","","","","","","","","","","","",""
"","null","html-keyboard-response","180","159770","0.0-11.0-0.30","uULhv5QxC6","63d79dd07448168e7afd6990","6617fad957f7c6a12ea16e26","6622ca3ce488f002b1e480d2","fixation cross","null","","","","","","","","","","","",""
"","1180","html-keyboard-response","181","160951","0.0-11.0-1.30","uULhv5QxC6","63d79dd07448168e7afd6990","6617fad957f7c6a12ea16e26","6622ca3ce488f002b1e480d2","image grid","p","","","","","Phylogenetic_Distractor_Threat_target","2500","ongrid","q","1","Phylogenetic","false","experimental"
"","null","html-keyboard-response","182","161104","0.0-11.0-2.30","uULhv5QxC6","63d79dd07448168e7afd6990","6617fad957f7c6a12ea16e26","6622ca3ce488f002b1e480d2","
    <div id=""grid-container"">
        <!-- Grid items will be dynamically added here -->
    </div>    ","null","","","","","","","","","","","",""
"","null","html-keyboard-response","183","161806","0.0-11.0-0.31","uULhv5QxC6","63d79dd07448168e7afd6990","6617fad957f7c6a12ea16e26","6622ca3ce488f002b1e480d2","fixation cross","null","","","","","","","","","","","",""
"","772","html-keyboard-response","184","162579","0.0-11.0-1.31","uULhv5QxC6","63d79dd07448168e7afd6990","6617fad957f7c6a12ea16e26","6622ca3ce488f002b1e480d2","image grid","q","","","","","Phylogenetic_Distractor_Threat_target","2500","ongrid","q","6","Phylogenetic","true","experimental"
"","null","html-keyboard-response","185","162732","0.0-11.0-2.31","uULhv5QxC6","63d79dd07448168e7afd6990","6617fad957f7c6a12ea16e26","6622ca3ce488f002b1e480d2","
    <div id=""grid-container"">
        <!-- Grid items will be dynamically added here -->
    </div>    ","null","","","","","","","","","","","",""
"","null","html-keyboard-response","186","163435","0.0-11.0-0.32","uULhv5QxC6","63d79dd07448168e7afd6990","6617fad957f7c6a12ea16e26","6622ca3ce488f002b1e480d2","fixation cross","null","","","","","","","","","","","",""
"","855","html-keyboard-response","187","164291","0.0-11.0-1.32","uULhv5QxC6","63d79dd07448168e7afd6990","6617fad957f7c6a12ea16e26","6622ca3ce488f002b1e480d2","image grid","p","","","","","Phylogenetic_Distractor_Nonthreat_target","2500","ongrid","p","3","Phylogenetic","true","experimental"
"","null","html-keyboard-response","188","164444","0.0-11.0-2.32","uULhv5QxC6","63d79dd07448168e7afd6990","6617fad957f7c6a12ea16e26","6622ca3ce488f002b1e480d2","
    <div id=""grid-container"">
        <!-- Grid items will be dynamically added here -->
    </div>    ","null","","","","","","","","","","","",""
"","null","html-keyboard-response","189","165146","0.0-11.0-0.33","uULhv5QxC6","63d79dd07448168e7afd6990","6617fad957f7c6a12ea16e26","6622ca3ce488f002b1e480d2","fixation cross","null","","","","","","","","","","","",""
"","621","html-keyboard-response","190","165768","0.0-11.0-1.33","uULhv5QxC6","63d79dd07448168e7afd6990","6617fad957f7c6a12ea16e26","6622ca3ce488f002b1e480d2","image grid","q","","","","","Phylogenetic_Distractor_Threat_target","2500","ongrid","q","8","Phylogenetic","true","experimental"
"","null","html-keyboard-response","191","165921","0.0-11.0-2.33","uULhv5QxC6","63d79dd07448168e7afd6990","6617fad957f7c6a12ea16e26","6622ca3ce488f002b1e480d2","
    <div id=""grid-container"">
        <!-- Grid items will be dynamically added here -->
    </div>    ","null","","","","","","","","","","","",""
"","null","html-keyboard-response","192","166623","0.0-11.0-0.34","uULhv5QxC6","63d79dd07448168e7afd6990","6617fad957f7c6a12ea16e26","6622ca3ce488f002b1e480d2","fixation cross","null","","","","","","","","","","","",""
"","571","html-keyboard-response","193","167196","0.0-11.0-1.34","uULhv5QxC6","63d79dd07448168e7afd6990","6617fad957f7c6a12ea16e26","6622ca3ce488f002b1e480d2","image grid","q","","","","","Phylogenetic_Distractor_Nonthreat_target","2500","ongrid","p","1","Phylogenetic","false","experimental"
"","null","html-keyboard-response","194","167347","0.0-11.0-2.34","uULhv5QxC6","63d79dd07448168e7afd6990","6617fad957f7c6a12ea16e26","6622ca3ce488f002b1e480d2","
    <div id=""grid-container"">
        <!-- Grid items will be dynamically added here -->
    </div>    ","null","","","","","","","","","","","",""
"","null","html-keyboard-response","195","168049","0.0-11.0-0.35","uULhv5QxC6","63d79dd07448168e7afd6990","6617fad957f7c6a12ea16e26","6622ca3ce488f002b1e480d2","fixation cross","null","","","","","","","","","","","",""
"","826","html-keyboard-response","196","168877","0.0-11.0-1.35","uULhv5QxC6","63d79dd07448168e7afd6990","6617fad957f7c6a12ea16e26","6622ca3ce488f002b1e480d2","image grid","p","","","","","Phylogenetic_Distractor_Nonthreat_target","2500","ongrid","p","1","Phylogenetic","true","experimental"
"","null","html-keyboard-response","197","169030","0.0-11.0-2.35","uULhv5QxC6","63d79dd07448168e7afd6990","6617fad957f7c6a12ea16e26","6622ca3ce488f002b1e480d2","
    <div id=""grid-container"">
        <!-- Grid items will be dynamically added here -->
    </div>    ","null","","","","","","","","","","","",""
"","null","html-keyboard-response","198","169731","0.0-11.0-0.36","uULhv5QxC6","63d79dd07448168e7afd6990","6617fad957f7c6a12ea16e26","6622ca3ce488f002b1e480d2","fixation cross","null","","","","","","","","","","","",""
"","1007","html-keyboard-response","199","170740","0.0-11.0-1.36","uULhv5QxC6","63d79dd07448168e7afd6990","6617fad957f7c6a12ea16e26","6622ca3ce488f002b1e480d2","image grid","p","","","","","Phylogenetic_Distractor_notarget","2500","ongrid"," ","2","Phylogenetic","false","experimental"
"","null","html-keyboard-response","200","170893","0.0-11.0-2.36","uULhv5QxC6","63d79dd07448168e7afd6990","6617fad957f7c6a12ea16e26","6622ca3ce488f002b1e480d2","
    <div id=""grid-container"">
        <!-- Grid items will be dynamically added here -->
    </div>    ","null","","","","","","","","","","","",""
"","null","html-keyboard-response","201","171595","0.0-11.0-0.37","uULhv5QxC6","63d79dd07448168e7afd6990","6617fad957f7c6a12ea16e26","6622ca3ce488f002b1e480d2","fixation cross","null","","","","","","","","","","","",""
"","745","html-keyboard-response","202","172341","0.0-11.0-1.37","uULhv5QxC6","63d79dd07448168e7afd6990","6617fad957f7c6a12ea16e26","6622ca3ce488f002b1e480d2","image grid","p","","","","","Phylogenetic_Distractor_Nonthreat_target","2500","ongrid","p","6","Phylogenetic","true","experimental"
"","null","html-keyboard-response","203","172494","0.0-11.0-2.37","uULhv5QxC6","63d79dd07448168e7afd6990","6617fad957f7c6a12ea16e26","6622ca3ce488f002b1e480d2","
    <div id=""grid-container"">
        <!-- Grid items will be dynamically added here -->
    </div>    ","null","","","","","","","","","","","",""
"","null","html-keyboard-response","204","173196","0.0-11.0-0.38","uULhv5QxC6","63d79dd07448168e7afd6990","6617fad957f7c6a12ea16e26","6622ca3ce488f002b1e480d2","fixation cross","null","","","","","","","","","","","",""
"","1316","html-keyboard-response","205","174514","0.0-11.0-1.38","uULhv5QxC6","63d79dd07448168e7afd6990","6617fad957f7c6a12ea16e26","6622ca3ce488f002b1e480d2","image grid","q","","","","","Phylogenetic_Distractor_Threat_target","2500","ongrid","q","3","Phylogenetic","true","experimental"
"","null","html-keyboard-response","206","174666","0.0-11.0-2.38","uULhv5QxC6","63d79dd07448168e7afd6990","6617fad957f7c6a12ea16e26","6622ca3ce488f002b1e480d2","
    <div id=""grid-container"">
        <!-- Grid items will be dynamically added here -->
    </div>    ","null","","","","","","","","","","","",""
"","null","html-keyboard-response","207","175369","0.0-11.0-0.39","uULhv5QxC6","63d79dd07448168e7afd6990","6617fad957f7c6a12ea16e26","6622ca3ce488f002b1e480d2","fixation cross","null","","","","","","","","","","","",""
"","808","html-keyboard-response","208","176179","0.0-11.0-1.39","uULhv5QxC6","63d79dd07448168e7afd6990","6617fad957f7c6a12ea16e26","6622ca3ce488f002b1e480d2","image grid","p","","","","","Phylogenetic_Distractor_Nonthreat_target","2500","ongrid","p","7","Phylogenetic","true","experimental"
"","null","html-keyboard-response","209","176332","0.0-11.0-2.39","uULhv5QxC6","63d79dd07448168e7afd6990","6617fad957f7c6a12ea16e26","6622ca3ce488f002b1e480d2","
    <div id=""grid-container"">
        <!-- Grid items will be dynamically added here -->
    </div>    ","null","","","","","","","","","","","",""
"","2058","html-keyboard-response","210","178623","0.0-12.0","uULhv5QxC6","63d79dd07448168e7afd6990","6617fad957f7c6a12ea16e26","6622ca3ce488f002b1e480d2","break screen"," ","","","","","","","","","","","",""
"","null","html-keyboard-response","211","181126","0.0-13.0-0.0","uULhv5QxC6","63d79dd07448168e7afd6990","6617fad957f7c6a12ea16e26","6622ca3ce488f002b1e480d2","fixation cross","null","","","","","","","","","","","",""
"","1872","html-keyboard-response","212","182999","0.0-13.0-1.0","uULhv5QxC6","63d79dd07448168e7afd6990","6617fad957f7c6a12ea16e26","6622ca3ce488f002b1e480d2","image grid","q","","","","","Ontogenetic_Distractor_Threat_target","2500","ongrid","q","5","Ontogenetic","true","experimental"
"","null","html-keyboard-response","213","183152","0.0-13.0-2.0","uULhv5QxC6","63d79dd07448168e7afd6990","6617fad957f7c6a12ea16e26","6622ca3ce488f002b1e480d2","
    <div id=""grid-container"">
        <!-- Grid items will be dynamically added here -->
    </div>    ","null","","","","","","","","","","","",""
"","null","html-keyboard-response","214","183854","0.0-13.0-0.1","uULhv5QxC6","63d79dd07448168e7afd6990","6617fad957f7c6a12ea16e26","6622ca3ce488f002b1e480d2","fixation cross","null","","","","","","","","","","","",""
"","960","html-keyboard-response","215","184815","0.0-13.0-1.1","uULhv5QxC6","63d79dd07448168e7afd6990","6617fad957f7c6a12ea16e26","6622ca3ce488f002b1e480d2","image grid","p","","","","","Ontogenetic_Distractor_Nonthreat_target","2500","ongrid","p","4","Ontogenetic","true","experimental"
"","null","html-keyboard-response","216","184968","0.0-13.0-2.1","uULhv5QxC6","63d79dd07448168e7afd6990","6617fad957f7c6a12ea16e26","6622ca3ce488f002b1e480d2","
    <div id=""grid-container"">
        <!-- Grid items will be dynamically added here -->
    </div>    ","null","","","","","","","","","","","",""
"","null","html-keyboard-response","217","185670","0.0-13.0-0.2","uULhv5QxC6","63d79dd07448168e7afd6990","6617fad957f7c6a12ea16e26","6622ca3ce488f002b1e480d2","fixation cross","null","","","","","","","","","","","",""
"","1655","html-keyboard-response","218","187325","0.0-13.0-1.2","uULhv5QxC6","63d79dd07448168e7afd6990","6617fad957f7c6a12ea16e26","6622ca3ce488f002b1e480d2","image grid","p","","","","","Ontogenetic_Distractor_notarget","2500","ongrid"," ","3","Ontogenetic","false","experimental"
"","null","html-keyboard-response","219","187478","0.0-13.0-2.2","uULhv5QxC6","63d79dd07448168e7afd6990","6617fad957f7c6a12ea16e26","6622ca3ce488f002b1e480d2","
    <div id=""grid-container"">
        <!-- Grid items will be dynamically added here -->
    </div>    ","null","","","","","","","","","","","",""
"","null","html-keyboard-response","220","188180","0.0-13.0-0.3","uULhv5QxC6","63d79dd07448168e7afd6990","6617fad957f7c6a12ea16e26","6622ca3ce488f002b1e480d2","fixation cross","null","","","","","","","","","","","",""
"","1525","html-keyboard-response","221","189707","0.0-13.0-1.3","uULhv5QxC6","63d79dd07448168e7afd6990","6617fad957f7c6a12ea16e26","6622ca3ce488f002b1e480d2","image grid","p","","","","","Ontogenetic_Distractor_Nonthreat_target","2500","ongrid","p","6","Ontogenetic","true","experimental"
"","null","html-keyboard-response","222","189860","0.0-13.0-2.3","uULhv5QxC6","63d79dd07448168e7afd6990","6617fad957f7c6a12ea16e26","6622ca3ce488f002b1e480d2","
    <div id=""grid-container"">
        <!-- Grid items will be dynamically added here -->
    </div>    ","null","","","","","","","","","","","",""
"","null","html-keyboard-response","223","190562","0.0-13.0-0.4","uULhv5QxC6","63d79dd07448168e7afd6990","6617fad957f7c6a12ea16e26","6622ca3ce488f002b1e480d2","fixation cross","null","","","","","","","","","","","",""
"","1108","html-keyboard-response","224","191671","0.0-13.0-1.4","uULhv5QxC6","63d79dd07448168e7afd6990","6617fad957f7c6a12ea16e26","6622ca3ce488f002b1e480d2","image grid","q","","","","","Ontogenetic_Distractor_Threat_target","2500","ongrid","q","8","Ontogenetic","true","experimental"
"","null","html-keyboard-response","225","191824","0.0-13.0-2.4","uULhv5QxC6","63d79dd07448168e7afd6990","6617fad957f7c6a12ea16e26","6622ca3ce488f002b1e480d2","
    <div id=""grid-container"">
        <!-- Grid items will be dynamically added here -->
    </div>    ","null","","","","","","","","","","","",""
"","null","html-keyboard-response","226","192526","0.0-13.0-0.5","uULhv5QxC6","63d79dd07448168e7afd6990","6617fad957f7c6a12ea16e26","6622ca3ce488f002b1e480d2","fixation cross","null","","","","","","","","","","","",""
"","958","html-keyboard-response","227","193485","0.0-13.0-1.5","uULhv5QxC6","63d79dd07448168e7afd6990","6617fad957f7c6a12ea16e26","6622ca3ce488f002b1e480d2","image grid","p","","","","","Ontogenetic_Distractor_Nonthreat_target","2500","ongrid","p","4","Ontogenetic","true","experimental"
"","null","html-keyboard-response","228","193638","0.0-13.0-2.5","uULhv5QxC6","63d79dd07448168e7afd6990","6617fad957f7c6a12ea16e26","6622ca3ce488f002b1e480d2","
    <div id=""grid-container"">
        <!-- Grid items will be dynamically added here -->
    </div>    ","null","","","","","","","","","","","",""
"","null","html-keyboard-response","229","194340","0.0-13.0-0.6","uULhv5QxC6","63d79dd07448168e7afd6990","6617fad957f7c6a12ea16e26","6622ca3ce488f002b1e480d2","fixation cross","null","","","","","","","","","","","",""
"","994","html-keyboard-response","230","195336","0.0-13.0-1.6","uULhv5QxC6","63d79dd07448168e7afd6990","6617fad957f7c6a12ea16e26","6622ca3ce488f002b1e480d2","image grid","p","","","","","Ontogenetic_Distractor_Nonthreat_target","2500","ongrid","p","4","Ontogenetic","true","experimental"
"","null","html-keyboard-response","231","195489","0.0-13.0-2.6","uULhv5QxC6","63d79dd07448168e7afd6990","6617fad957f7c6a12ea16e26","6622ca3ce488f002b1e480d2","
    <div id=""grid-container"">
        <!-- Grid items will be dynamically added here -->
    </div>    ","null","","","","","","","","","","","",""
"","null","html-keyboard-response","232","196191","0.0-13.0-0.7","uULhv5QxC6","63d79dd07448168e7afd6990","6617fad957f7c6a12ea16e26","6622ca3ce488f002b1e480d2","fixation cross","null","","","","","","","","","","","",""
"","1067","html-keyboard-response","233","197260","0.0-13.0-1.7","uULhv5QxC6","63d79dd07448168e7afd6990","6617fad957f7c6a12ea16e26","6622ca3ce488f002b1e480d2","image grid","q","","","","","Ontogenetic_Distractor_Threat_target","2500","ongrid","q","6","Ontogenetic","true","experimental"
"","null","html-keyboard-response","234","197413","0.0-13.0-2.7","uULhv5QxC6","63d79dd07448168e7afd6990","6617fad957f7c6a12ea16e26","6622ca3ce488f002b1e480d2","
    <div id=""grid-container"">
        <!-- Grid items will be dynamically added here -->
    </div>    ","null","","","","","","","","","","","",""
"","null","html-keyboard-response","235","198115","0.0-13.0-0.8","uULhv5QxC6","63d79dd07448168e7afd6990","6617fad957f7c6a12ea16e26","6622ca3ce488f002b1e480d2","fixation cross","null","","","","","","","","","","","",""
"","1404","html-keyboard-response","236","199521","0.0-13.0-1.8","uULhv5QxC6","63d79dd07448168e7afd6990","6617fad957f7c6a12ea16e26","6622ca3ce488f002b1e480d2","image grid","p","","","","","Ontogenetic_Distractor_Threat_target","2500","ongrid","q","4","Ontogenetic","false","experimental"
"","null","html-keyboard-response","237","199674","0.0-13.0-2.8","uULhv5QxC6","63d79dd07448168e7afd6990","6617fad957f7c6a12ea16e26","6622ca3ce488f002b1e480d2","
    <div id=""grid-container"">
        <!-- Grid items will be dynamically added here -->
    </div>    ","null","","","","","","","","","","","",""
"","null","html-keyboard-response","238","200376","0.0-13.0-0.9","uULhv5QxC6","63d79dd07448168e7afd6990","6617fad957f7c6a12ea16e26","6622ca3ce488f002b1e480d2","fixation cross","null","","","","","","","","","","","",""
"","902","html-keyboard-response","239","201279","0.0-13.0-1.9","uULhv5QxC6","63d79dd07448168e7afd6990","6617fad957f7c6a12ea16e26","6622ca3ce488f002b1e480d2","image grid","q","","","","","Ontogenetic_Distractor_Threat_target","2500","ongrid","q","2","Ontogenetic","true","experimental"
"","null","html-keyboard-response","240","201433","0.0-13.0-2.9","uULhv5QxC6","63d79dd07448168e7afd6990","6617fad957f7c6a12ea16e26","6622ca3ce488f002b1e480d2","
    <div id=""grid-container"">
        <!-- Grid items will be dynamically added here -->
    </div>    ","null","","","","","","","","","","","",""
"","null","html-keyboard-response","241","202135","0.0-13.0-0.10","uULhv5QxC6","63d79dd07448168e7afd6990","6617fad957f7c6a12ea16e26","6622ca3ce488f002b1e480d2","fixation cross","null","","","","","","","","","","","",""
"","1503","html-keyboard-response","242","203640","0.0-13.0-1.10","uULhv5QxC6","63d79dd07448168e7afd6990","6617fad957f7c6a12ea16e26","6622ca3ce488f002b1e480d2","image grid","p","","","","","Ontogenetic_Distractor_Threat_target","2500","ongrid","q","5","Ontogenetic","false","experimental"
"","null","html-keyboard-response","243","203792","0.0-13.0-2.10","uULhv5QxC6","63d79dd07448168e7afd6990","6617fad957f7c6a12ea16e26","6622ca3ce488f002b1e480d2","
    <div id=""grid-container"">
        <!-- Grid items will be dynamically added here -->
    </div>    ","null","","","","","","","","","","","",""
"","null","html-keyboard-response","244","204495","0.0-13.0-0.11","uULhv5QxC6","63d79dd07448168e7afd6990","6617fad957f7c6a12ea16e26","6622ca3ce488f002b1e480d2","fixation cross","null","","","","","","","","","","","",""
"","1469","html-keyboard-response","245","205965","0.0-13.0-1.11","uULhv5QxC6","63d79dd07448168e7afd6990","6617fad957f7c6a12ea16e26","6622ca3ce488f002b1e480d2","image grid","q","","","","","Ontogenetic_Distractor_Threat_target","2500","ongrid","q","2","Ontogenetic","true","experimental"
"","null","html-keyboard-response","246","206119","0.0-13.0-2.11","uULhv5QxC6","63d79dd07448168e7afd6990","6617fad957f7c6a12ea16e26","6622ca3ce488f002b1e480d2","
    <div id=""grid-container"">
        <!-- Grid items will be dynamically added here -->
    </div>    ","null","","","","","","","","","","","",""
"","null","html-keyboard-response","247","206821","0.0-13.0-0.12","uULhv5QxC6","63d79dd07448168e7afd6990","6617fad957f7c6a12ea16e26","6622ca3ce488f002b1e480d2","fixation cross","null","","","","","","","","","","","",""
"","880","html-keyboard-response","248","207703","0.0-13.0-1.12","uULhv5QxC6","63d79dd07448168e7afd6990","6617fad957f7c6a12ea16e26","6622ca3ce488f002b1e480d2","image grid","p","","","","","Ontogenetic_Distractor_Nonthreat_target","2500","ongrid","p","1","Ontogenetic","true","experimental"
"","null","html-keyboard-response","249","207856","0.0-13.0-2.12","uULhv5QxC6","63d79dd07448168e7afd6990","6617fad957f7c6a12ea16e26","6622ca3ce488f002b1e480d2","
    <div id=""grid-container"">
        <!-- Grid items will be dynamically added here -->
    </div>    ","null","","","","","","","","","","","",""
"","null","html-keyboard-response","250","208558","0.0-13.0-0.13","uULhv5QxC6","63d79dd07448168e7afd6990","6617fad957f7c6a12ea16e26","6622ca3ce488f002b1e480d2","fixation cross","null","","","","","","","","","","","",""
"","1295","html-keyboard-response","251","209854","0.0-13.0-1.13","uULhv5QxC6","63d79dd07448168e7afd6990","6617fad957f7c6a12ea16e26","6622ca3ce488f002b1e480d2","image grid","p","","","","","Ontogenetic_Distractor_Nonthreat_target","2500","ongrid","p","3","Ontogenetic","true","experimental"
"","null","html-keyboard-response","252","210008","0.0-13.0-2.13","uULhv5QxC6","63d79dd07448168e7afd6990","6617fad957f7c6a12ea16e26","6622ca3ce488f002b1e480d2","
    <div id=""grid-container"">
        <!-- Grid items will be dynamically added here -->
    </div>    ","null","","","","","","","","","","","",""
"","null","html-keyboard-response","253","210710","0.0-13.0-0.14","uULhv5QxC6","63d79dd07448168e7afd6990","6617fad957f7c6a12ea16e26","6622ca3ce488f002b1e480d2","fixation cross","null","","","","","","","","","","","",""
"","1131","html-keyboard-response","254","211842","0.0-13.0-1.14","uULhv5QxC6","63d79dd07448168e7afd6990","6617fad957f7c6a12ea16e26","6622ca3ce488f002b1e480d2","image grid","p","","","","","Ontogenetic_Distractor_Nonthreat_target","2500","ongrid","p","3","Ontogenetic","true","experimental"
"","null","html-keyboard-response","255","211996","0.0-13.0-2.14","uULhv5QxC6","63d79dd07448168e7afd6990","6617fad957f7c6a12ea16e26","6622ca3ce488f002b1e480d2","
    <div id=""grid-container"">
        <!-- Grid items will be dynamically added here -->
    </div>    ","null","","","","","","","","","","","",""
"","null","html-keyboard-response","256","212698","0.0-13.0-0.15","uULhv5QxC6","63d79dd07448168e7afd6990","6617fad957f7c6a12ea16e26","6622ca3ce488f002b1e480d2","fixation cross","null","","","","","","","","","","","",""
"","852","html-keyboard-response","257","213552","0.0-13.0-1.15","uULhv5QxC6","63d79dd07448168e7afd6990","6617fad957f7c6a12ea16e26","6622ca3ce488f002b1e480d2","image grid","p","","","","","Ontogenetic_Distractor_Nonthreat_target","2500","ongrid","p","2","Ontogenetic","true","experimental"
"","null","html-keyboard-response","258","213705","0.0-13.0-2.15","uULhv5QxC6","63d79dd07448168e7afd6990","6617fad957f7c6a12ea16e26","6622ca3ce488f002b1e480d2","
    <div id=""grid-container"">
        <!-- Grid items will be dynamically added here -->
    </div>    ","null","","","","","","","","","","","",""
"","null","html-keyboard-response","259","214407","0.0-13.0-0.16","uULhv5QxC6","63d79dd07448168e7afd6990","6617fad957f7c6a12ea16e26","6622ca3ce488f002b1e480d2","fixation cross","null","","","","","","","","","","","",""
"","1358","html-keyboard-response","260","215766","0.0-13.0-1.16","uULhv5QxC6","63d79dd07448168e7afd6990","6617fad957f7c6a12ea16e26","6622ca3ce488f002b1e480d2","image grid","q","","","","","Ontogenetic_Distractor_Threat_target","2500","ongrid","q","2","Ontogenetic","true","experimental"
"","null","html-keyboard-response","261","215919","0.0-13.0-2.16","uULhv5QxC6","63d79dd07448168e7afd6990","6617fad957f7c6a12ea16e26","6622ca3ce488f002b1e480d2","
    <div id=""grid-container"">
        <!-- Grid items will be dynamically added here -->
    </div>    ","null","","","","","","","","","","","",""
"","null","html-keyboard-response","262","216622","0.0-13.0-0.17","uULhv5QxC6","63d79dd07448168e7afd6990","6617fad957f7c6a12ea16e26","6622ca3ce488f002b1e480d2","fixation cross","null","","","","","","","","","","","",""
"","638","html-keyboard-response","263","217261","0.0-13.0-1.17","uULhv5QxC6","63d79dd07448168e7afd6990","6617fad957f7c6a12ea16e26","6622ca3ce488f002b1e480d2","image grid","q","","","","","Ontogenetic_Distractor_Nonthreat_target","2500","ongrid","p","8","Ontogenetic","false","experimental"
"","null","html-keyboard-response","264","217412","0.0-13.0-2.17","uULhv5QxC6","63d79dd07448168e7afd6990","6617fad957f7c6a12ea16e26","6622ca3ce488f002b1e480d2","
    <div id=""grid-container"">
        <!-- Grid items will be dynamically added here -->
    </div>    ","null","","","","","","","","","","","",""
"","null","html-keyboard-response","265","218115","0.0-13.0-0.18","uULhv5QxC6","63d79dd07448168e7afd6990","6617fad957f7c6a12ea16e26","6622ca3ce488f002b1e480d2","fixation cross","null","","","","","","","","","","","",""
"","1073","html-keyboard-response","266","219189","0.0-13.0-1.18","uULhv5QxC6","63d79dd07448168e7afd6990","6617fad957f7c6a12ea16e26","6622ca3ce488f002b1e480d2","image grid","q","","","","","Ontogenetic_Distractor_Threat_target","2500","ongrid","q","3","Ontogenetic","true","experimental"
"","null","html-keyboard-response","267","219342","0.0-13.0-2.18","uULhv5QxC6","63d79dd07448168e7afd6990","6617fad957f7c6a12ea16e26","6622ca3ce488f002b1e480d2","
    <div id=""grid-container"">
        <!-- Grid items will be dynamically added here -->
    </div>    ","null","","","","","","","","","","","",""
"","null","html-keyboard-response","268","220044","0.0-13.0-0.19","uULhv5QxC6","63d79dd07448168e7afd6990","6617fad957f7c6a12ea16e26","6622ca3ce488f002b1e480d2","fixation cross","null","","","","","","","","","","","",""
"","934","html-keyboard-response","269","220979","0.0-13.0-1.19","uULhv5QxC6","63d79dd07448168e7afd6990","6617fad957f7c6a12ea16e26","6622ca3ce488f002b1e480d2","image grid","p","","","","","Ontogenetic_Distractor_Nonthreat_target","2500","ongrid","p","9","Ontogenetic","true","experimental"
"","null","html-keyboard-response","270","221132","0.0-13.0-2.19","uULhv5QxC6","63d79dd07448168e7afd6990","6617fad957f7c6a12ea16e26","6622ca3ce488f002b1e480d2","
    <div id=""grid-container"">
        <!-- Grid items will be dynamically added here -->
    </div>    ","null","","","","","","","","","","","",""
"","null","html-keyboard-response","271","221834","0.0-13.0-0.20","uULhv5QxC6","63d79dd07448168e7afd6990","6617fad957f7c6a12ea16e26","6622ca3ce488f002b1e480d2","fixation cross","null","","","","","","","","","","","",""
"","988","html-keyboard-response","272","222823","0.0-13.0-1.20","uULhv5QxC6","63d79dd07448168e7afd6990","6617fad957f7c6a12ea16e26","6622ca3ce488f002b1e480d2","image grid","q","","","","","Ontogenetic_Distractor_Threat_target","2500","ongrid","q","3","Ontogenetic","true","experimental"
"","null","html-keyboard-response","273","222976","0.0-13.0-2.20","uULhv5QxC6","63d79dd07448168e7afd6990","6617fad957f7c6a12ea16e26","6622ca3ce488f002b1e480d2","
    <div id=""grid-container"">
        <!-- Grid items will be dynamically added here -->
    </div>    ","null","","","","","","","","","","","",""
"","null","html-keyboard-response","274","223678","0.0-13.0-0.21","uULhv5QxC6","63d79dd07448168e7afd6990","6617fad957f7c6a12ea16e26","6622ca3ce488f002b1e480d2","fixation cross","null","","","","","","","","","","","",""
"","837","html-keyboard-response","275","224516","0.0-13.0-1.21","uULhv5QxC6","63d79dd07448168e7afd6990","6617fad957f7c6a12ea16e26","6622ca3ce488f002b1e480d2","image grid","p","","","","","Ontogenetic_Distractor_Nonthreat_target","2500","ongrid","p","3","Ontogenetic","true","experimental"
"","null","html-keyboard-response","276","224669","0.0-13.0-2.21","uULhv5QxC6","63d79dd07448168e7afd6990","6617fad957f7c6a12ea16e26","6622ca3ce488f002b1e480d2","
    <div id=""grid-container"">
        <!-- Grid items will be dynamically added here -->
    </div>    ","null","","","","","","","","","","","",""
"","null","html-keyboard-response","277","225372","0.0-13.0-0.22","uULhv5QxC6","63d79dd07448168e7afd6990","6617fad957f7c6a12ea16e26","6622ca3ce488f002b1e480d2","fixation cross","null","","","","","","","","","","","",""
"","1061","html-keyboard-response","278","226434","0.0-13.0-1.22","uULhv5QxC6","63d79dd07448168e7afd6990","6617fad957f7c6a12ea16e26","6622ca3ce488f002b1e480d2","image grid","p","","","","","Ontogenetic_Distractor_Threat_target","2500","ongrid","q","4","Ontogenetic","false","experimental"
"","null","html-keyboard-response","279","226586","0.0-13.0-2.22","uULhv5QxC6","63d79dd07448168e7afd6990","6617fad957f7c6a12ea16e26","6622ca3ce488f002b1e480d2","
    <div id=""grid-container"">
        <!-- Grid items will be dynamically added here -->
    </div>    ","null","","","","","","","","","","","",""
"","null","html-keyboard-response","280","227288","0.0-13.0-0.23","uULhv5QxC6","63d79dd07448168e7afd6990","6617fad957f7c6a12ea16e26","6622ca3ce488f002b1e480d2","fixation cross","null","","","","","","","","","","","",""
"","1236","html-keyboard-response","281","228526","0.0-13.0-1.23","uULhv5QxC6","63d79dd07448168e7afd6990","6617fad957f7c6a12ea16e26","6622ca3ce488f002b1e480d2","image grid","p","","","","","Ontogenetic_Distractor_Nonthreat_target","2500","ongrid","p","7","Ontogenetic","true","experimental"
"","null","html-keyboard-response","282","228679","0.0-13.0-2.23","uULhv5QxC6","63d79dd07448168e7afd6990","6617fad957f7c6a12ea16e26","6622ca3ce488f002b1e480d2","
    <div id=""grid-container"">
        <!-- Grid items will be dynamically added here -->
    </div>    ","null","","","","","","","","","","","",""
"","null","html-keyboard-response","283","229381","0.0-13.0-0.24","uULhv5QxC6","63d79dd07448168e7afd6990","6617fad957f7c6a12ea16e26","6622ca3ce488f002b1e480d2","fixation cross","null","","","","","","","","","","","",""
"","1009","html-keyboard-response","284","230392","0.0-13.0-1.24","uULhv5QxC6","63d79dd07448168e7afd6990","6617fad957f7c6a12ea16e26","6622ca3ce488f002b1e480d2","image grid","q","","","","","Ontogenetic_Distractor_Threat_target","2500","ongrid","q","9","Ontogenetic","true","experimental"
"","null","html-keyboard-response","285","230545","0.0-13.0-2.24","uULhv5QxC6","63d79dd07448168e7afd6990","6617fad957f7c6a12ea16e26","6622ca3ce488f002b1e480d2","
    <div id=""grid-container"">
        <!-- Grid items will be dynamically added here -->
    </div>    ","null","","","","","","","","","","","",""
"","null","html-keyboard-response","286","231247","0.0-13.0-0.25","uULhv5QxC6","63d79dd07448168e7afd6990","6617fad957f7c6a12ea16e26","6622ca3ce488f002b1e480d2","fixation cross","null","","","","","","","","","","","",""
"","928","html-keyboard-response","287","232177","0.0-13.0-1.25","uULhv5QxC6","63d79dd07448168e7afd6990","6617fad957f7c6a12ea16e26","6622ca3ce488f002b1e480d2","image grid","q","","","","","Ontogenetic_Distractor_Threat_target","2500","ongrid","q","6","Ontogenetic","true","experimental"
"","null","html-keyboard-response","288","232330","0.0-13.0-2.25","uULhv5QxC6","63d79dd07448168e7afd6990","6617fad957f7c6a12ea16e26","6622ca3ce488f002b1e480d2","
    <div id=""grid-container"">
        <!-- Grid items will be dynamically added here -->
    </div>    ","null","","","","","","","","","","","",""
"","null","html-keyboard-response","289","233032","0.0-13.0-0.26","uULhv5QxC6","63d79dd07448168e7afd6990","6617fad957f7c6a12ea16e26","6622ca3ce488f002b1e480d2","fixation cross","null","","","","","","","","","","","",""
"","1105","html-keyboard-response","290","234138","0.0-13.0-1.26","uULhv5QxC6","63d79dd07448168e7afd6990","6617fad957f7c6a12ea16e26","6622ca3ce488f002b1e480d2","image grid","p","","","","","Ontogenetic_Distractor_Nonthreat_target","2500","ongrid","p","1","Ontogenetic","true","experimental"
"","null","html-keyboard-response","291","234292","0.0-13.0-2.26","uULhv5QxC6","63d79dd07448168e7afd6990","6617fad957f7c6a12ea16e26","6622ca3ce488f002b1e480d2","
    <div id=""grid-container"">
        <!-- Grid items will be dynamically added here -->
    </div>    ","null","","","","","","","","","","","",""
"","null","html-keyboard-response","292","234994","0.0-13.0-0.27","uULhv5QxC6","63d79dd07448168e7afd6990","6617fad957f7c6a12ea16e26","6622ca3ce488f002b1e480d2","fixation cross","null","","","","","","","","","","","",""
"","981","html-keyboard-response","293","235976","0.0-13.0-1.27","uULhv5QxC6","63d79dd07448168e7afd6990","6617fad957f7c6a12ea16e26","6622ca3ce488f002b1e480d2","image grid","q","","","","","Ontogenetic_Distractor_Threat_target","2500","ongrid","q","4","Ontogenetic","true","experimental"
"","null","html-keyboard-response","294","236130","0.0-13.0-2.27","uULhv5QxC6","63d79dd07448168e7afd6990","6617fad957f7c6a12ea16e26","6622ca3ce488f002b1e480d2","
    <div id=""grid-container"">
        <!-- Grid items will be dynamically added here -->
    </div>    ","null","","","","","","","","","","","",""
"","null","html-keyboard-response","295","236832","0.0-13.0-0.28","uULhv5QxC6","63d79dd07448168e7afd6990","6617fad957f7c6a12ea16e26","6622ca3ce488f002b1e480d2","fixation cross","null","","","","","","","","","","","",""
"","1045","html-keyboard-response","296","237879","0.0-13.0-1.28","uULhv5QxC6","63d79dd07448168e7afd6990","6617fad957f7c6a12ea16e26","6622ca3ce488f002b1e480d2","image grid","q","","","","","Ontogenetic_Distractor_Threat_target","2500","ongrid","q","4","Ontogenetic","true","experimental"
"","null","html-keyboard-response","297","238033","0.0-13.0-2.28","uULhv5QxC6","63d79dd07448168e7afd6990","6617fad957f7c6a12ea16e26","6622ca3ce488f002b1e480d2","
    <div id=""grid-container"">
        <!-- Grid items will be dynamically added here -->
    </div>    ","null","","","","","","","","","","","",""
"","null","html-keyboard-response","298","238735","0.0-13.0-0.29","uULhv5QxC6","63d79dd07448168e7afd6990","6617fad957f7c6a12ea16e26","6622ca3ce488f002b1e480d2","fixation cross","null","","","","","","","","","","","",""
"","1673","html-keyboard-response","299","240409","0.0-13.0-1.29","uULhv5QxC6","63d79dd07448168e7afd6990","6617fad957f7c6a12ea16e26","6622ca3ce488f002b1e480d2","image grid","p","","","","","Ontogenetic_Distractor_Threat_target","2500","ongrid","q","4","Ontogenetic","false","experimental"
"","null","html-keyboard-response","300","240562","0.0-13.0-2.29","uULhv5QxC6","63d79dd07448168e7afd6990","6617fad957f7c6a12ea16e26","6622ca3ce488f002b1e480d2","
    <div id=""grid-container"">
        <!-- Grid items will be dynamically added here -->
    </div>    ","null","","","","","","","","","","","",""
"","null","html-keyboard-response","301","241264","0.0-13.0-0.30","uULhv5QxC6","63d79dd07448168e7afd6990","6617fad957f7c6a12ea16e26","6622ca3ce488f002b1e480d2","fixation cross","null","","","","","","","","","","","",""
"","867","html-keyboard-response","302","242133","0.0-13.0-1.30","uULhv5QxC6","63d79dd07448168e7afd6990","6617fad957f7c6a12ea16e26","6622ca3ce488f002b1e480d2","image grid","p","","","","","Ontogenetic_Distractor_Nonthreat_target","2500","ongrid","p","6","Ontogenetic","true","experimental"
"","null","html-keyboard-response","303","242286","0.0-13.0-2.30","uULhv5QxC6","63d79dd07448168e7afd6990","6617fad957f7c6a12ea16e26","6622ca3ce488f002b1e480d2","
    <div id=""grid-container"">
        <!-- Grid items will be dynamically added here -->
    </div>    ","null","","","","","","","","","","","",""
"","null","html-keyboard-response","304","242988","0.0-13.0-0.31","uULhv5QxC6","63d79dd07448168e7afd6990","6617fad957f7c6a12ea16e26","6622ca3ce488f002b1e480d2","fixation cross","null","","","","","","","","","","","",""
"","1430","html-keyboard-response","305","244420","0.0-13.0-1.31","uULhv5QxC6","63d79dd07448168e7afd6990","6617fad957f7c6a12ea16e26","6622ca3ce488f002b1e480d2","image grid","p","","","","","Ontogenetic_Distractor_Nonthreat_target","2500","ongrid","p","1","Ontogenetic","true","experimental"
"","null","html-keyboard-response","306","244573","0.0-13.0-2.31","uULhv5QxC6","63d79dd07448168e7afd6990","6617fad957f7c6a12ea16e26","6622ca3ce488f002b1e480d2","
    <div id=""grid-container"">
        <!-- Grid items will be dynamically added here -->
    </div>    ","null","","","","","","","","","","","",""
"","null","html-keyboard-response","307","245275","0.0-13.0-0.32","uULhv5QxC6","63d79dd07448168e7afd6990","6617fad957f7c6a12ea16e26","6622ca3ce488f002b1e480d2","fixation cross","null","","","","","","","","","","","",""
"","1504","html-keyboard-response","308","246780","0.0-13.0-1.32","uULhv5QxC6","63d79dd07448168e7afd6990","6617fad957f7c6a12ea16e26","6622ca3ce488f002b1e480d2","image grid","p","","","","","Ontogenetic_Distractor_notarget","2500","ongrid"," ","8","Ontogenetic","false","experimental"
"","null","html-keyboard-response","309","246934","0.0-13.0-2.32","uULhv5QxC6","63d79dd07448168e7afd6990","6617fad957f7c6a12ea16e26","6622ca3ce488f002b1e480d2","
    <div id=""grid-container"">
        <!-- Grid items will be dynamically added here -->
    </div>    ","null","","","","","","","","","","","",""
"","null","html-keyboard-response","310","247635","0.0-13.0-0.33","uULhv5QxC6","63d79dd07448168e7afd6990","6617fad957f7c6a12ea16e26","6622ca3ce488f002b1e480d2","fixation cross","null","","","","","","","","","","","",""
"","1160","html-keyboard-response","311","248797","0.0-13.0-1.33","uULhv5QxC6","63d79dd07448168e7afd6990","6617fad957f7c6a12ea16e26","6622ca3ce488f002b1e480d2","image grid","q","","","","","Ontogenetic_Distractor_Threat_target","2500","ongrid","q","7","Ontogenetic","true","experimental"
"","null","html-keyboard-response","312","248950","0.0-13.0-2.33","uULhv5QxC6","63d79dd07448168e7afd6990","6617fad957f7c6a12ea16e26","6622ca3ce488f002b1e480d2","
    <div id=""grid-container"">
        <!-- Grid items will be dynamically added here -->
    </div>    ","null","","","","","","","","","","","",""
"","null","html-keyboard-response","313","249652","0.0-13.0-0.34","uULhv5QxC6","63d79dd07448168e7afd6990","6617fad957f7c6a12ea16e26","6622ca3ce488f002b1e480d2","fixation cross","null","","","","","","","","","","","",""
"","1265","html-keyboard-response","314","250918","0.0-13.0-1.34","uULhv5QxC6","63d79dd07448168e7afd6990","6617fad957f7c6a12ea16e26","6622ca3ce488f002b1e480d2","image grid","p","","","","","Ontogenetic_Distractor_Nonthreat_target","2500","ongrid","p","7","Ontogenetic","true","experimental"
"","null","html-keyboard-response","315","251072","0.0-13.0-2.34","uULhv5QxC6","63d79dd07448168e7afd6990","6617fad957f7c6a12ea16e26","6622ca3ce488f002b1e480d2","
    <div id=""grid-container"">
        <!-- Grid items will be dynamically added here -->
    </div>    ","null","","","","","","","","","","","",""
"","null","html-keyboard-response","316","251774","0.0-13.0-0.35","uULhv5QxC6","63d79dd07448168e7afd6990","6617fad957f7c6a12ea16e26","6622ca3ce488f002b1e480d2","fixation cross","null","","","","","","","","","","","",""
"","1054","html-keyboard-response","317","252829","0.0-13.0-1.35","uULhv5QxC6","63d79dd07448168e7afd6990","6617fad957f7c6a12ea16e26","6622ca3ce488f002b1e480d2","image grid","q","","","","","Ontogenetic_Distractor_Threat_target","2500","ongrid","q","9","Ontogenetic","true","experimental"
"","null","html-keyboard-response","318","252983","0.0-13.0-2.35","uULhv5QxC6","63d79dd07448168e7afd6990","6617fad957f7c6a12ea16e26","6622ca3ce488f002b1e480d2","
    <div id=""grid-container"">
        <!-- Grid items will be dynamically added here -->
    </div>    ","null","","","","","","","","","","","",""
"","null","html-keyboard-response","319","253685","0.0-13.0-0.36","uULhv5QxC6","63d79dd07448168e7afd6990","6617fad957f7c6a12ea16e26","6622ca3ce488f002b1e480d2","fixation cross","null","","","","","","","","","","","",""
"","1602","html-keyboard-response","320","255288","0.0-13.0-1.36","uULhv5QxC6","63d79dd07448168e7afd6990","6617fad957f7c6a12ea16e26","6622ca3ce488f002b1e480d2","image grid","p","","","","","Ontogenetic_Distractor_notarget","2500","ongrid"," ","9","Ontogenetic","false","experimental"
"","null","html-keyboard-response","321","255442","0.0-13.0-2.36","uULhv5QxC6","63d79dd07448168e7afd6990","6617fad957f7c6a12ea16e26","6622ca3ce488f002b1e480d2","
    <div id=""grid-container"">
        <!-- Grid items will be dynamically added here -->
    </div>    ","null","","","","","","","","","","","",""
"","null","html-keyboard-response","322","256144","0.0-13.0-0.37","uULhv5QxC6","63d79dd07448168e7afd6990","6617fad957f7c6a12ea16e26","6622ca3ce488f002b1e480d2","fixation cross","null","","","","","","","","","","","",""
"","1104","html-keyboard-response","323","257249","0.0-13.0-1.37","uULhv5QxC6","63d79dd07448168e7afd6990","6617fad957f7c6a12ea16e26","6622ca3ce488f002b1e480d2","image grid","p","","","","","Ontogenetic_Distractor_notarget","2500","ongrid"," ","1","Ontogenetic","false","experimental"
"","null","html-keyboard-response","324","257404","0.0-13.0-2.37","uULhv5QxC6","63d79dd07448168e7afd6990","6617fad957f7c6a12ea16e26","6622ca3ce488f002b1e480d2","
    <div id=""grid-container"">
        <!-- Grid items will be dynamically added here -->
    </div>    ","null","","","","","","","","","","","",""
"","null","html-keyboard-response","325","258105","0.0-13.0-0.38","uULhv5QxC6","63d79dd07448168e7afd6990","6617fad957f7c6a12ea16e26","6622ca3ce488f002b1e480d2","fixation cross","null","","","","","","","","","","","",""
"","1270","html-keyboard-response","326","259376","0.0-13.0-1.38","uULhv5QxC6","63d79dd07448168e7afd6990","6617fad957f7c6a12ea16e26","6622ca3ce488f002b1e480d2","image grid","p","","","","","Ontogenetic_Distractor_Nonthreat_target","2500","ongrid","p","4","Ontogenetic","true","experimental"
"","null","html-keyboard-response","327","259530","0.0-13.0-2.38","uULhv5QxC6","63d79dd07448168e7afd6990","6617fad957f7c6a12ea16e26","6622ca3ce488f002b1e480d2","
    <div id=""grid-container"">
        <!-- Grid items will be dynamically added here -->
    </div>    ","null","","","","","","","","","","","",""
"","null","html-keyboard-response","328","260232","0.0-13.0-0.39","uULhv5QxC6","63d79dd07448168e7afd6990","6617fad957f7c6a12ea16e26","6622ca3ce488f002b1e480d2","fixation cross","null","","","","","","","","","","","",""
"","927","html-keyboard-response","329","261160","0.0-13.0-1.39","uULhv5QxC6","63d79dd07448168e7afd6990","6617fad957f7c6a12ea16e26","6622ca3ce488f002b1e480d2","image grid","p","","","","","Ontogenetic_Distractor_Nonthreat_target","2500","ongrid","p","4","Ontogenetic","true","experimental"
"","null","html-keyboard-response","330","261314","0.0-13.0-2.39","uULhv5QxC6","63d79dd07448168e7afd6990","6617fad957f7c6a12ea16e26","6622ca3ce488f002b1e480d2","
    <div id=""grid-container"">
        <!-- Grid items will be dynamically added here -->
    </div>    ","null","","","","","","","","","","","",""
"","1080","html-keyboard-response","331","262597","0.0-14.0","uULhv5QxC6","63d79dd07448168e7afd6990","6617fad957f7c6a12ea16e26","6622ca3ce488f002b1e480d2","break screen"," ","","","","","","","","","","","",""
"","null","html-keyboard-response","332","265099","0.0-15.0-0.0","uULhv5QxC6","63d79dd07448168e7afd6990","6617fad957f7c6a12ea16e26","6622ca3ce488f002b1e480d2","fixation cross","null","","","","","","","","","","","",""
"","null","html-keyboard-response","333","265901","0.0-15.0-1.0","uULhv5QxC6","63d79dd07448168e7afd6990","6617fad957f7c6a12ea16e26","6622ca3ce488f002b1e480d2","
        <div id=""grid-container"">
        <!-- Grid items will be dynamically added here -->
    </div>    ","null","","","","","","","","","","","",""
"","918","html-keyboard-response","334","266021","0.0-15.0-2.0","uULhv5QxC6","63d79dd07448168e7afd6990","6617fad957f7c6a12ea16e26","6622ca3ce488f002b1e480d2","mask grid","p","","","","","Phylogenetic_Distractor_Nonthreat_target","800","onmask","p","4","Phylogenetic","true","experimental"
"","null","html-keyboard-response","335","266725","0.0-15.0-0.1","uULhv5QxC6","63d79dd07448168e7afd6990","6617fad957f7c6a12ea16e26","6622ca3ce488f002b1e480d2","fixation cross","null","","","","","","","","","","","",""
"","716","html-keyboard-response","336","267444","0.0-15.0-1.1","uULhv5QxC6","63d79dd07448168e7afd6990","6617fad957f7c6a12ea16e26","6622ca3ce488f002b1e480d2","image grid","q","","","","","Phylogenetic_Distractor_Threat_target","800","ongrid","q","4","Phylogenetic","true","experimental"
"","null","html-keyboard-response","337","267597","0.0-15.0-2.1","uULhv5QxC6","63d79dd07448168e7afd6990","6617fad957f7c6a12ea16e26","6622ca3ce488f002b1e480d2","
    <div id=""grid-container"">
        <!-- Grid items will be dynamically added here -->
    </div>    ","null","","","","","","","","","","","",""
"","null","html-keyboard-response","338","268299","0.0-15.0-0.2","uULhv5QxC6","63d79dd07448168e7afd6990","6617fad957f7c6a12ea16e26","6622ca3ce488f002b1e480d2","fixation cross","null","","","","","","","","","","","",""
"","523","html-keyboard-response","339","268824","0.0-15.0-1.2","uULhv5QxC6","63d79dd07448168e7afd6990","6617fad957f7c6a12ea16e26","6622ca3ce488f002b1e480d2","image grid","q","","","","","Phylogenetic_Distractor_Threat_target","800","ongrid","q","3","Phylogenetic","true","experimental"
"","null","html-keyboard-response","340","268978","0.0-15.0-2.2","uULhv5QxC6","63d79dd07448168e7afd6990","6617fad957f7c6a12ea16e26","6622ca3ce488f002b1e480d2","
    <div id=""grid-container"">
        <!-- Grid items will be dynamically added here -->
    </div>    ","null","","","","","","","","","","","",""
"","null","html-keyboard-response","341","269680","0.0-15.0-0.3","uULhv5QxC6","63d79dd07448168e7afd6990","6617fad957f7c6a12ea16e26","6622ca3ce488f002b1e480d2","fixation cross","null","","","","","","","","","","","",""
"","442","html-keyboard-response","342","270123","0.0-15.0-1.3","uULhv5QxC6","63d79dd07448168e7afd6990","6617fad957f7c6a12ea16e26","6622ca3ce488f002b1e480d2","image grid","q","","","","","Phylogenetic_Distractor_Threat_target","800","ongrid","q","3","Phylogenetic","true","experimental"
"","null","html-keyboard-response","343","270278","0.0-15.0-2.3","uULhv5QxC6","63d79dd07448168e7afd6990","6617fad957f7c6a12ea16e26","6622ca3ce488f002b1e480d2","
    <div id=""grid-container"">
        <!-- Grid items will be dynamically added here -->
    </div>    ","null","","","","","","","","","","","",""
"","null","html-keyboard-response","344","270980","0.0-15.0-0.4","uULhv5QxC6","63d79dd07448168e7afd6990","6617fad957f7c6a12ea16e26","6622ca3ce488f002b1e480d2","fixation cross","null","","","","","","","","","","","",""
"","766","html-keyboard-response","345","271747","0.0-15.0-1.4","uULhv5QxC6","63d79dd07448168e7afd6990","6617fad957f7c6a12ea16e26","6622ca3ce488f002b1e480d2","image grid","q","","","","","Phylogenetic_Distractor_Threat_target","800","ongrid","q","8","Phylogenetic","true","experimental"
"","null","html-keyboard-response","346","271899","0.0-15.0-2.4","uULhv5QxC6","63d79dd07448168e7afd6990","6617fad957f7c6a12ea16e26","6622ca3ce488f002b1e480d2","
    <div id=""grid-container"">
        <!-- Grid items will be dynamically added here -->
    </div>    ","null","","","","","","","","","","","",""
"","null","html-keyboard-response","347","272601","0.0-15.0-0.5","uULhv5QxC6","63d79dd07448168e7afd6990","6617fad957f7c6a12ea16e26","6622ca3ce488f002b1e480d2","fixation cross","null","","","","","","","","","","","",""
"","495","html-keyboard-response","348","273098","0.0-15.0-1.5","uULhv5QxC6","63d79dd07448168e7afd6990","6617fad957f7c6a12ea16e26","6622ca3ce488f002b1e480d2","image grid","q","","","","","Phylogenetic_Distractor_Threat_target","800","ongrid","q","1","Phylogenetic","true","experimental"
"","null","html-keyboard-response","349","273252","0.0-15.0-2.5","uULhv5QxC6","63d79dd07448168e7afd6990","6617fad957f7c6a12ea16e26","6622ca3ce488f002b1e480d2","
    <div id=""grid-container"">
        <!-- Grid items will be dynamically added here -->
    </div>    ","null","","","","","","","","","","","",""
"","null","html-keyboard-response","350","273954","0.0-15.0-0.6","uULhv5QxC6","63d79dd07448168e7afd6990","6617fad957f7c6a12ea16e26","6622ca3ce488f002b1e480d2","fixation cross","null","","","","","","","","","","","",""
"","611","html-keyboard-response","351","274566","0.0-15.0-1.6","uULhv5QxC6","63d79dd07448168e7afd6990","6617fad957f7c6a12ea16e26","6622ca3ce488f002b1e480d2","image grid","p","","","","","Phylogenetic_Distractor_Nonthreat_target","800","ongrid","p","3","Phylogenetic","true","experimental"
"","null","html-keyboard-response","352","274721","0.0-15.0-2.6","uULhv5QxC6","63d79dd07448168e7afd6990","6617fad957f7c6a12ea16e26","6622ca3ce488f002b1e480d2","
    <div id=""grid-container"">
        <!-- Grid items will be dynamically added here -->
    </div>    ","null","","","","","","","","","","","",""
"","null","html-keyboard-response","353","275423","0.0-15.0-0.7","uULhv5QxC6","63d79dd07448168e7afd6990","6617fad957f7c6a12ea16e26","6622ca3ce488f002b1e480d2","fixation cross","null","","","","","","","","","","","",""
"","788","html-keyboard-response","354","276212","0.0-15.0-1.7","uULhv5QxC6","63d79dd07448168e7afd6990","6617fad957f7c6a12ea16e26","6622ca3ce488f002b1e480d2","image grid","p","","","","","Phylogenetic_Distractor_Nonthreat_target","800","ongrid","p","4","Phylogenetic","true","experimental"
"","null","html-keyboard-response","355","276366","0.0-15.0-2.7","uULhv5QxC6","63d79dd07448168e7afd6990","6617fad957f7c6a12ea16e26","6622ca3ce488f002b1e480d2","
    <div id=""grid-container"">
        <!-- Grid items will be dynamically added here -->
    </div>    ","null","","","","","","","","","","","",""
"","null","html-keyboard-response","356","277068","0.0-15.0-0.8","uULhv5QxC6","63d79dd07448168e7afd6990","6617fad957f7c6a12ea16e26","6622ca3ce488f002b1e480d2","fixation cross","null","","","","","","","","","","","",""
"","534","html-keyboard-response","357","277604","0.0-15.0-1.8","uULhv5QxC6","63d79dd07448168e7afd6990","6617fad957f7c6a12ea16e26","6622ca3ce488f002b1e480d2","image grid","q","","","","","Phylogenetic_Distractor_Threat_target","800","ongrid","q","4","Phylogenetic","true","experimental"
"","null","html-keyboard-response","358","277758","0.0-15.0-2.8","uULhv5QxC6","63d79dd07448168e7afd6990","6617fad957f7c6a12ea16e26","6622ca3ce488f002b1e480d2","
    <div id=""grid-container"">
        <!-- Grid items will be dynamically added here -->
    </div>    ","null","","","","","","","","","","","",""
"","null","html-keyboard-response","359","278460","0.0-15.0-0.9","uULhv5QxC6","63d79dd07448168e7afd6990","6617fad957f7c6a12ea16e26","6622ca3ce488f002b1e480d2","fixation cross","null","","","","","","","","","","","",""
"","788","html-keyboard-response","360","279249","0.0-15.0-1.9","uULhv5QxC6","63d79dd07448168e7afd6990","6617fad957f7c6a12ea16e26","6622ca3ce488f002b1e480d2","image grid","p","","","","","Phylogenetic_Distractor_Nonthreat_target","800","ongrid","p","3","Phylogenetic","true","experimental"
"","null","html-keyboard-response","361","279403","0.0-15.0-2.9","uULhv5QxC6","63d79dd07448168e7afd6990","6617fad957f7c6a12ea16e26","6622ca3ce488f002b1e480d2","
    <div id=""grid-container"">
        <!-- Grid items will be dynamically added here -->
    </div>    ","null","","","","","","","","","","","",""
"","null","html-keyboard-response","362","280105","0.0-15.0-0.10","uULhv5QxC6","63d79dd07448168e7afd6990","6617fad957f7c6a12ea16e26","6622ca3ce488f002b1e480d2","fixation cross","null","","","","","","","","","","","",""
"","470","html-keyboard-response","363","280576","0.0-15.0-1.10","uULhv5QxC6","63d79dd07448168e7afd6990","6617fad957f7c6a12ea16e26","6622ca3ce488f002b1e480d2","image grid","q","","","","","Phylogenetic_Distractor_Threat_target","800","ongrid","q","1","Phylogenetic","true","experimental"
"","null","html-keyboard-response","364","280729","0.0-15.0-2.10","uULhv5QxC6","63d79dd07448168e7afd6990","6617fad957f7c6a12ea16e26","6622ca3ce488f002b1e480d2","
    <div id=""grid-container"">
        <!-- Grid items will be dynamically added here -->
    </div>    ","null","","","","","","","","","","","",""
"","null","html-keyboard-response","365","281432","0.0-15.0-0.11","uULhv5QxC6","63d79dd07448168e7afd6990","6617fad957f7c6a12ea16e26","6622ca3ce488f002b1e480d2","fixation cross","null","","","","","","","","","","","",""
"","692","html-keyboard-response","366","282125","0.0-15.0-1.11","uULhv5QxC6","63d79dd07448168e7afd6990","6617fad957f7c6a12ea16e26","6622ca3ce488f002b1e480d2","image grid","p","","","","","Phylogenetic_Distractor_notarget","800","ongrid"," ","1","Phylogenetic","false","experimental"
"","null","html-keyboard-response","367","282279","0.0-15.0-2.11","uULhv5QxC6","63d79dd07448168e7afd6990","6617fad957f7c6a12ea16e26","6622ca3ce488f002b1e480d2","
    <div id=""grid-container"">
        <!-- Grid items will be dynamically added here -->
    </div>    ","null","","","","","","","","","","","",""
"","null","html-keyboard-response","368","282981","0.0-15.0-0.12","uULhv5QxC6","63d79dd07448168e7afd6990","6617fad957f7c6a12ea16e26","6622ca3ce488f002b1e480d2","fixation cross","null","","","","","","","","","","","",""
"","539","html-keyboard-response","369","283521","0.0-15.0-1.12","uULhv5QxC6","63d79dd07448168e7afd6990","6617fad957f7c6a12ea16e26","6622ca3ce488f002b1e480d2","image grid","q","","","","","Phylogenetic_Distractor_Threat_target","800","ongrid","q","4","Phylogenetic","true","experimental"
"","null","html-keyboard-response","370","283675","0.0-15.0-2.12","uULhv5QxC6","63d79dd07448168e7afd6990","6617fad957f7c6a12ea16e26","6622ca3ce488f002b1e480d2","
    <div id=""grid-container"">
        <!-- Grid items will be dynamically added here -->
