"success","rt","trial_type","trial_index","time_elapsed","internal_node_id","unique_identifier","subject_id","study_id","session_id","stimulus","response","timeout","failed_images","failed_audio","failed_video","task","respondedwhen","time_manipulation","correctresponse","targetimagelocation","blocktype","correct","roundtype"
"true","2150","fullscreen","0","3155","0.0-0.0","cmyb53Jgog","559c1e28fdf99b2189ee807d","6617fad957f7c6a12ea16e26","6622cf46a32ced38ebfd4440","","","","","","","","","","","","","",""
"","18088","html-keyboard-response","1","21249","0.0-1.0","cmyb53Jgog","559c1e28fdf99b2189ee807d","6617fad957f7c6a12ea16e26","6622cf46a32ced38ebfd4440","instruction screen 0"," ","","","","","","","","","","","",""
"true","","preload","2","24389","0.0-2.0","cmyb53Jgog","559c1e28fdf99b2189ee807d","6617fad957f7c6a12ea16e26","6622cf46a32ced38ebfd4440","","","false","[]","[]","[]","","","","","","","",""
"","11437","html-keyboard-response","3","35829","0.0-3.0","cmyb53Jgog","559c1e28fdf99b2189ee807d","6617fad957f7c6a12ea16e26","6622cf46a32ced38ebfd4440","instruction screen 1"," ","","","","","","","","","","","",""
"","10659","html-keyboard-response","4","46497","0.0-4.0","cmyb53Jgog","559c1e28fdf99b2189ee807d","6617fad957f7c6a12ea16e26","6622cf46a32ced38ebfd4440","instruction screen 2","q","","","","","","","","","","","",""
"","10263","html-keyboard-response","5","56771","0.0-5.0","cmyb53Jgog","559c1e28fdf99b2189ee807d","6617fad957f7c6a12ea16e26","6622cf46a32ced38ebfd4440","instruction screen 3","p","","","","","","","","","","","",""
"","8711","html-keyboard-response","6","65494","0.0-6.0","cmyb53Jgog","559c1e28fdf99b2189ee807d","6617fad957f7c6a12ea16e26","6622cf46a32ced38ebfd4440","instruction screen 4"," ","","","","","","","","","","","",""
"","6843","html-keyboard-response","7","72378","0.0-7.0","cmyb53Jgog","559c1e28fdf99b2189ee807d","6617fad957f7c6a12ea16e26","6622cf46a32ced38ebfd4440","instruction screen 5"," ","","","","","","","","","","","",""
"","null","html-keyboard-response","8","72922","0.0-8.0","cmyb53Jgog","559c1e28fdf99b2189ee807d","6617fad957f7c6a12ea16e26","6622cf46a32ced38ebfd4440","fixation cross","null","","","","","","","","","","","",""
"","null","html-keyboard-response","9","73425","0.0-9.0-0.0","cmyb53Jgog","559c1e28fdf99b2189ee807d","6617fad957f7c6a12ea16e26","6622cf46a32ced38ebfd4440","fixation cross","null","","","","","","","","","","","",""
"","null","html-keyboard-response","10","76427","0.0-9.0-1.0","cmyb53Jgog","559c1e28fdf99b2189ee807d","6617fad957f7c6a12ea16e26","6622cf46a32ced38ebfd4440","
        <div id=""grid-container"">
        <!-- Grid items will be dynamically added here -->
    </div>    ","null","","","","","","","","","","","",""
"","4328","html-keyboard-response","11","77794","0.0-9.0-2.0","cmyb53Jgog","559c1e28fdf99b2189ee807d","6617fad957f7c6a12ea16e26","6622cf46a32ced38ebfd4440","mask grid"," ","","","","","Ontogenetic_Distractor_notarget","onmask","3000"," ","5","Phylogenetic","true","practice"
"","null","html-keyboard-response","12","78999","0.0-9.0-3.0","cmyb53Jgog","559c1e28fdf99b2189ee807d","6617fad957f7c6a12ea16e26","6622cf46a32ced38ebfd4440","feedback screen","null","","","","","","","","","","","",""
"","null","html-keyboard-response","13","79511","0.0-9.0-0.1","cmyb53Jgog","559c1e28fdf99b2189ee807d","6617fad957f7c6a12ea16e26","6622cf46a32ced38ebfd4440","fixation cross","null","","","","","","","","","","","",""
"","2299","html-keyboard-response","14","81811","0.0-9.0-1.1","cmyb53Jgog","559c1e28fdf99b2189ee807d","6617fad957f7c6a12ea16e26","6622cf46a32ced38ebfd4440","image grid","p","","","","","Ontogenetic_Distractor_Nonthreat_target","ongrid","2900","p","1","Phylogenetic","true","practice"
"","null","html-keyboard-response","15","81963","0.0-9.0-2.1","cmyb53Jgog","559c1e28fdf99b2189ee807d","6617fad957f7c6a12ea16e26","6622cf46a32ced38ebfd4440","
    <div id=""grid-container"">
        <!-- Grid items will be dynamically added here -->
    </div>    ","null","","","","","","","","","","","",""
"","null","html-keyboard-response","16","83167","0.0-9.0-3.1","cmyb53Jgog","559c1e28fdf99b2189ee807d","6617fad957f7c6a12ea16e26","6622cf46a32ced38ebfd4440","feedback screen","null","","","","","","","","","","","",""
"","null","html-keyboard-response","17","83677","0.0-9.0-0.2","cmyb53Jgog","559c1e28fdf99b2189ee807d","6617fad957f7c6a12ea16e26","6622cf46a32ced38ebfd4440","fixation cross","null","","","","","","","","","","","",""
"","null","html-keyboard-response","18","86479","0.0-9.0-1.2","cmyb53Jgog","559c1e28fdf99b2189ee807d","6617fad957f7c6a12ea16e26","6622cf46a32ced38ebfd4440","
        <div id=""grid-container"">
        <!-- Grid items will be dynamically added here -->
    </div>    ","null","","","","","","","","","","","",""
"","3483","html-keyboard-response","19","87164","0.0-9.0-2.2","cmyb53Jgog","559c1e28fdf99b2189ee807d","6617fad957f7c6a12ea16e26","6622cf46a32ced38ebfd4440","mask grid"," ","","","","","Phylogenetic_Distractor_Threat_target","onmask","2800","q","2","Phylogenetic","false","practice"
"","null","html-keyboard-response","20","88368","0.0-9.0-3.2","cmyb53Jgog","559c1e28fdf99b2189ee807d","6617fad957f7c6a12ea16e26","6622cf46a32ced38ebfd4440","feedback screen","null","","","","","","","","","","","",""
"","null","html-keyboard-response","21","88878","0.0-9.0-0.3","cmyb53Jgog","559c1e28fdf99b2189ee807d","6617fad957f7c6a12ea16e26","6622cf46a32ced38ebfd4440","fixation cross","null","","","","","","","","","","","",""
"","2313","html-keyboard-response","22","91192","0.0-9.0-1.3","cmyb53Jgog","559c1e28fdf99b2189ee807d","6617fad957f7c6a12ea16e26","6622cf46a32ced38ebfd4440","image grid","q","","","","","Phylogenetic_Distractor_Threat_target","ongrid","2700","q","9","Phylogenetic","true","practice"
"","null","html-keyboard-response","23","91345","0.0-9.0-2.3","cmyb53Jgog","559c1e28fdf99b2189ee807d","6617fad957f7c6a12ea16e26","6622cf46a32ced38ebfd4440","
    <div id=""grid-container"">
        <!-- Grid items will be dynamically added here -->
    </div>    ","null","","","","","","","","","","","",""
"","null","html-keyboard-response","24","92550","0.0-9.0-3.3","cmyb53Jgog","559c1e28fdf99b2189ee807d","6617fad957f7c6a12ea16e26","6622cf46a32ced38ebfd4440","feedback screen","null","","","","","","","","","","","",""
"","null","html-keyboard-response","25","93054","0.0-9.0-0.4","cmyb53Jgog","559c1e28fdf99b2189ee807d","6617fad957f7c6a12ea16e26","6622cf46a32ced38ebfd4440","fixation cross","null","","","","","","","","","","","",""
"","null","html-keyboard-response","26","95657","0.0-9.0-1.4","cmyb53Jgog","559c1e28fdf99b2189ee807d","6617fad957f7c6a12ea16e26","6622cf46a32ced38ebfd4440","
        <div id=""grid-container"">
        <!-- Grid items will be dynamically added here -->
    </div>    ","null","","","","","","","","","","","",""
"","2797","html-keyboard-response","27","95856","0.0-9.0-2.4","cmyb53Jgog","559c1e28fdf99b2189ee807d","6617fad957f7c6a12ea16e26","6622cf46a32ced38ebfd4440","mask grid"," ","","","","","Phylogenetic_Distractor_notarget","onmask","2600"," ","5","Phylogenetic","true","practice"
"","null","html-keyboard-response","28","97060","0.0-9.0-3.4","cmyb53Jgog","559c1e28fdf99b2189ee807d","6617fad957f7c6a12ea16e26","6622cf46a32ced38ebfd4440","feedback screen","null","","","","","","","","","","","",""
"","null","html-keyboard-response","29","97567","0.0-9.0-0.5","cmyb53Jgog","559c1e28fdf99b2189ee807d","6617fad957f7c6a12ea16e26","6622cf46a32ced38ebfd4440","fixation cross","null","","","","","","","","","","","",""
"","null","html-keyboard-response","30","100069","0.0-9.0-1.5","cmyb53Jgog","559c1e28fdf99b2189ee807d","6617fad957f7c6a12ea16e26","6622cf46a32ced38ebfd4440","
        <div id=""grid-container"">
        <!-- Grid items will be dynamically added here -->
    </div>    ","null","","","","","","","","","","","",""
"","3186","html-keyboard-response","31","100757","0.0-9.0-2.5","cmyb53Jgog","559c1e28fdf99b2189ee807d","6617fad957f7c6a12ea16e26","6622cf46a32ced38ebfd4440","mask grid"," ","","","","","Phylogenetic_Distractor_notarget","onmask","2500"," ","1","Phylogenetic","true","practice"
"","null","html-keyboard-response","32","101960","0.0-9.0-3.5","cmyb53Jgog","559c1e28fdf99b2189ee807d","6617fad957f7c6a12ea16e26","6622cf46a32ced38ebfd4440","feedback screen","null","","","","","","","","","","","",""
"","null","html-keyboard-response","33","102468","0.0-9.0-0.6","cmyb53Jgog","559c1e28fdf99b2189ee807d","6617fad957f7c6a12ea16e26","6622cf46a32ced38ebfd4440","fixation cross","null","","","","","","","","","","","",""
"","1871","html-keyboard-response","34","104341","0.0-9.0-1.6","cmyb53Jgog","559c1e28fdf99b2189ee807d","6617fad957f7c6a12ea16e26","6622cf46a32ced38ebfd4440","image grid","q","","","","","Ontogenetic_Distractor_Nonthreat_target","ongrid","2400","p","9","Phylogenetic","false","practice"
"","null","html-keyboard-response","35","104493","0.0-9.0-2.6","cmyb53Jgog","559c1e28fdf99b2189ee807d","6617fad957f7c6a12ea16e26","6622cf46a32ced38ebfd4440","
    <div id=""grid-container"">
        <!-- Grid items will be dynamically added here -->
    </div>    ","null","","","","","","","","","","","",""
"","null","html-keyboard-response","36","105697","0.0-9.0-3.6","cmyb53Jgog","559c1e28fdf99b2189ee807d","6617fad957f7c6a12ea16e26","6622cf46a32ced38ebfd4440","feedback screen","null","","","","","","","","","","","",""
"","null","html-keyboard-response","37","106205","0.0-9.0-0.7","cmyb53Jgog","559c1e28fdf99b2189ee807d","6617fad957f7c6a12ea16e26","6622cf46a32ced38ebfd4440","fixation cross","null","","","","","","","","","","","",""
"","null","html-keyboard-response","38","108507","0.0-9.0-1.7","cmyb53Jgog","559c1e28fdf99b2189ee807d","6617fad957f7c6a12ea16e26","6622cf46a32ced38ebfd4440","
        <div id=""grid-container"">
        <!-- Grid items will be dynamically added here -->
    </div>    ","null","","","","","","","","","","","",""
"","2941","html-keyboard-response","39","109150","0.0-9.0-2.7","cmyb53Jgog","559c1e28fdf99b2189ee807d","6617fad957f7c6a12ea16e26","6622cf46a32ced38ebfd4440","mask grid","p","","","","","Phylogenetic_Distractor_Nonthreat_target","onmask","2300","p","3","Phylogenetic","true","practice"
"","null","html-keyboard-response","40","110354","0.0-9.0-3.7","cmyb53Jgog","559c1e28fdf99b2189ee807d","6617fad957f7c6a12ea16e26","6622cf46a32ced38ebfd4440","feedback screen","null","","","","","","","","","","","",""
"","null","html-keyboard-response","41","110862","0.0-9.0-0.8","cmyb53Jgog","559c1e28fdf99b2189ee807d","6617fad957f7c6a12ea16e26","6622cf46a32ced38ebfd4440","fixation cross","null","","","","","","","","","","","",""
"","1204","html-keyboard-response","42","112068","0.0-9.0-1.8","cmyb53Jgog","559c1e28fdf99b2189ee807d","6617fad957f7c6a12ea16e26","6622cf46a32ced38ebfd4440","image grid","p","","","","","Ontogenetic_Distractor_Nonthreat_target","ongrid","2200","p","8","Phylogenetic","true","practice"
"","null","html-keyboard-response","43","112220","0.0-9.0-2.8","cmyb53Jgog","559c1e28fdf99b2189ee807d","6617fad957f7c6a12ea16e26","6622cf46a32ced38ebfd4440","
    <div id=""grid-container"">
        <!-- Grid items will be dynamically added here -->
    </div>    ","null","","","","","","","","","","","",""
"","null","html-keyboard-response","44","113425","0.0-9.0-3.8","cmyb53Jgog","559c1e28fdf99b2189ee807d","6617fad957f7c6a12ea16e26","6622cf46a32ced38ebfd4440","feedback screen","null","","","","","","","","","","","",""
"","null","html-keyboard-response","45","113929","0.0-9.0-0.9","cmyb53Jgog","559c1e28fdf99b2189ee807d","6617fad957f7c6a12ea16e26","6622cf46a32ced38ebfd4440","fixation cross","null","","","","","","","","","","","",""
"","1281","html-keyboard-response","46","115211","0.0-9.0-1.9","cmyb53Jgog","559c1e28fdf99b2189ee807d","6617fad957f7c6a12ea16e26","6622cf46a32ced38ebfd4440","image grid","p","","","","","Ontogenetic_Distractor_Nonthreat_target","ongrid","2100","p","5","Phylogenetic","true","practice"
"","null","html-keyboard-response","47","115364","0.0-9.0-2.9","cmyb53Jgog","559c1e28fdf99b2189ee807d","6617fad957f7c6a12ea16e26","6622cf46a32ced38ebfd4440","
    <div id=""grid-container"">
        <!-- Grid items will be dynamically added here -->
    </div>    ","null","","","","","","","","","","","",""
"","null","html-keyboard-response","48","116567","0.0-9.0-3.9","cmyb53Jgog","559c1e28fdf99b2189ee807d","6617fad957f7c6a12ea16e26","6622cf46a32ced38ebfd4440","feedback screen","null","","","","","","","","","","","",""
"","null","html-keyboard-response","49","117072","0.0-9.0-0.10","cmyb53Jgog","559c1e28fdf99b2189ee807d","6617fad957f7c6a12ea16e26","6622cf46a32ced38ebfd4440","fixation cross","null","","","","","","","","","","","",""
"","1838","html-keyboard-response","50","118912","0.0-9.0-1.10","cmyb53Jgog","559c1e28fdf99b2189ee807d","6617fad957f7c6a12ea16e26","6622cf46a32ced38ebfd4440","image grid"," ","","","","","Ontogenetic_Distractor_notarget","ongrid","2000"," ","6","Phylogenetic","true","practice"
"","null","html-keyboard-response","51","119064","0.0-9.0-2.10","cmyb53Jgog","559c1e28fdf99b2189ee807d","6617fad957f7c6a12ea16e26","6622cf46a32ced38ebfd4440","
    <div id=""grid-container"">
        <!-- Grid items will be dynamically added here -->
    </div>    ","null","","","","","","","","","","","",""
"","null","html-keyboard-response","52","120268","0.0-9.0-3.10","cmyb53Jgog","559c1e28fdf99b2189ee807d","6617fad957f7c6a12ea16e26","6622cf46a32ced38ebfd4440","feedback screen","null","","","","","","","","","","","",""
"","null","html-keyboard-response","53","120776","0.0-9.0-0.11","cmyb53Jgog","559c1e28fdf99b2189ee807d","6617fad957f7c6a12ea16e26","6622cf46a32ced38ebfd4440","fixation cross","null","","","","","","","","","","","",""
"","1364","html-keyboard-response","54","122142","0.0-9.0-1.11","cmyb53Jgog","559c1e28fdf99b2189ee807d","6617fad957f7c6a12ea16e26","6622cf46a32ced38ebfd4440","image grid","p","","","","","Phylogenetic_Distractor_Nonthreat_target","ongrid","1900","p","5","Phylogenetic","true","practice"
"","null","html-keyboard-response","55","122294","0.0-9.0-2.11","cmyb53Jgog","559c1e28fdf99b2189ee807d","6617fad957f7c6a12ea16e26","6622cf46a32ced38ebfd4440","
    <div id=""grid-container"">
        <!-- Grid items will be dynamically added here -->
    </div>    ","null","","","","","","","","","","","",""
"","null","html-keyboard-response","56","123498","0.0-9.0-3.11","cmyb53Jgog","559c1e28fdf99b2189ee807d","6617fad957f7c6a12ea16e26","6622cf46a32ced38ebfd4440","feedback screen","null","","","","","","","","","","","",""
"","null","html-keyboard-response","57","124009","0.0-9.0-0.12","cmyb53Jgog","559c1e28fdf99b2189ee807d","6617fad957f7c6a12ea16e26","6622cf46a32ced38ebfd4440","fixation cross","null","","","","","","","","","","","",""
"","null","html-keyboard-response","58","125811","0.0-9.0-1.12","cmyb53Jgog","559c1e28fdf99b2189ee807d","6617fad957f7c6a12ea16e26","6622cf46a32ced38ebfd4440","
        <div id=""grid-container"">
        <!-- Grid items will be dynamically added here -->
    </div>    ","null","","","","","","","","","","","",""
"","1857","html-keyboard-response","59","125869","0.0-9.0-2.12","cmyb53Jgog","559c1e28fdf99b2189ee807d","6617fad957f7c6a12ea16e26","6622cf46a32ced38ebfd4440","mask grid","q","","","","","Phylogenetic_Distractor_Threat_target","onmask","1800","q","5","Phylogenetic","true","practice"
"","null","html-keyboard-response","60","127074","0.0-9.0-3.12","cmyb53Jgog","559c1e28fdf99b2189ee807d","6617fad957f7c6a12ea16e26","6622cf46a32ced38ebfd4440","feedback screen","null","","","","","","","","","","","",""
"","null","html-keyboard-response","61","127583","0.0-9.0-0.13","cmyb53Jgog","559c1e28fdf99b2189ee807d","6617fad957f7c6a12ea16e26","6622cf46a32ced38ebfd4440","fixation cross","null","","","","","","","","","","","",""
"","988","html-keyboard-response","62","128573","0.0-9.0-1.13","cmyb53Jgog","559c1e28fdf99b2189ee807d","6617fad957f7c6a12ea16e26","6622cf46a32ced38ebfd4440","image grid","q","","","","","Ontogenetic_Distractor_Threat_target","ongrid","1700","q","8","Phylogenetic","true","practice"
"","null","html-keyboard-response","63","128725","0.0-9.0-2.13","cmyb53Jgog","559c1e28fdf99b2189ee807d","6617fad957f7c6a12ea16e26","6622cf46a32ced38ebfd4440","
    <div id=""grid-container"">
        <!-- Grid items will be dynamically added here -->
    </div>    ","null","","","","","","","","","","","",""
"","null","html-keyboard-response","64","129928","0.0-9.0-3.13","cmyb53Jgog","559c1e28fdf99b2189ee807d","6617fad957f7c6a12ea16e26","6622cf46a32ced38ebfd4440","feedback screen","null","","","","","","","","","","","",""
"","null","html-keyboard-response","65","130436","0.0-9.0-0.14","cmyb53Jgog","559c1e28fdf99b2189ee807d","6617fad957f7c6a12ea16e26","6622cf46a32ced38ebfd4440","fixation cross","null","","","","","","","","","","","",""
"","null","html-keyboard-response","66","132038","0.0-9.0-1.14","cmyb53Jgog","559c1e28fdf99b2189ee807d","6617fad957f7c6a12ea16e26","6622cf46a32ced38ebfd4440","
        <div id=""grid-container"">
        <!-- Grid items will be dynamically added here -->
    </div>    ","null","","","","","","","","","","","",""
"","1879","html-keyboard-response","67","132320","0.0-9.0-2.14","cmyb53Jgog","559c1e28fdf99b2189ee807d","6617fad957f7c6a12ea16e26","6622cf46a32ced38ebfd4440","mask grid"," ","","","","","Phylogenetic_Distractor_Nonthreat_target","onmask","1600","p","1","Phylogenetic","false","practice"
"","null","html-keyboard-response","68","133524","0.0-9.0-3.14","cmyb53Jgog","559c1e28fdf99b2189ee807d","6617fad957f7c6a12ea16e26","6622cf46a32ced38ebfd4440","feedback screen","null","","","","","","","","","","","",""
"","null","html-keyboard-response","69","134033","0.0-9.0-0.15","cmyb53Jgog","559c1e28fdf99b2189ee807d","6617fad957f7c6a12ea16e26","6622cf46a32ced38ebfd4440","fixation cross","null","","","","","","","","","","","",""
"","1077","html-keyboard-response","70","135110","0.0-9.0-1.15","cmyb53Jgog","559c1e28fdf99b2189ee807d","6617fad957f7c6a12ea16e26","6622cf46a32ced38ebfd4440","image grid","q","","","","","Ontogenetic_Distractor_Threat_target","ongrid","1500","q","2","Phylogenetic","true","practice"
"","null","html-keyboard-response","71","135262","0.0-9.0-2.15","cmyb53Jgog","559c1e28fdf99b2189ee807d","6617fad957f7c6a12ea16e26","6622cf46a32ced38ebfd4440","
    <div id=""grid-container"">
        <!-- Grid items will be dynamically added here -->
    </div>    ","null","","","","","","","","","","","",""
"","null","html-keyboard-response","72","136466","0.0-9.0-3.15","cmyb53Jgog","559c1e28fdf99b2189ee807d","6617fad957f7c6a12ea16e26","6622cf46a32ced38ebfd4440","feedback screen","null","","","","","","","","","","","",""
"","null","html-keyboard-response","73","136974","0.0-9.0-0.16","cmyb53Jgog","559c1e28fdf99b2189ee807d","6617fad957f7c6a12ea16e26","6622cf46a32ced38ebfd4440","fixation cross","null","","","","","","","","","","","",""
"","740","html-keyboard-response","74","137715","0.0-9.0-1.16","cmyb53Jgog","559c1e28fdf99b2189ee807d","6617fad957f7c6a12ea16e26","6622cf46a32ced38ebfd4440","image grid","q","","","","","Ontogenetic_Distractor_Threat_target","ongrid","1400","q","1","Phylogenetic","true","practice"
"","null","html-keyboard-response","75","137866","0.0-9.0-2.16","cmyb53Jgog","559c1e28fdf99b2189ee807d","6617fad957f7c6a12ea16e26","6622cf46a32ced38ebfd4440","
    <div id=""grid-container"">
        <!-- Grid items will be dynamically added here -->
    </div>    ","null","","","","","","","","","","","",""
"","null","html-keyboard-response","76","139069","0.0-9.0-3.16","cmyb53Jgog","559c1e28fdf99b2189ee807d","6617fad957f7c6a12ea16e26","6622cf46a32ced38ebfd4440","feedback screen","null","","","","","","","","","","","",""
"","null","html-keyboard-response","77","139580","0.0-9.0-0.17","cmyb53Jgog","559c1e28fdf99b2189ee807d","6617fad957f7c6a12ea16e26","6622cf46a32ced38ebfd4440","fixation cross","null","","","","","","","","","","","",""
"","714","html-keyboard-response","78","140295","0.0-9.0-1.17","cmyb53Jgog","559c1e28fdf99b2189ee807d","6617fad957f7c6a12ea16e26","6622cf46a32ced38ebfd4440","image grid","q","","","","","Ontogenetic_Distractor_Threat_target","ongrid","1300","q","2","Phylogenetic","true","practice"
"","null","html-keyboard-response","79","140448","0.0-9.0-2.17","cmyb53Jgog","559c1e28fdf99b2189ee807d","6617fad957f7c6a12ea16e26","6622cf46a32ced38ebfd4440","
    <div id=""grid-container"">
        <!-- Grid items will be dynamically added here -->
    </div>    ","null","","","","","","","","","","","",""
"","null","html-keyboard-response","80","141652","0.0-9.0-3.17","cmyb53Jgog","559c1e28fdf99b2189ee807d","6617fad957f7c6a12ea16e26","6622cf46a32ced38ebfd4440","feedback screen","null","","","","","","","","","","","",""
"","null","html-keyboard-response","81","142157","0.0-9.0-0.18","cmyb53Jgog","559c1e28fdf99b2189ee807d","6617fad957f7c6a12ea16e26","6622cf46a32ced38ebfd4440","fixation cross","null","","","","","","","","","","","",""
"","null","html-keyboard-response","82","143359","0.0-9.0-1.18","cmyb53Jgog","559c1e28fdf99b2189ee807d","6617fad957f7c6a12ea16e26","6622cf46a32ced38ebfd4440","
        <div id=""grid-container"">
        <!-- Grid items will be dynamically added here -->
    </div>    ","null","","","","","","","","","","","",""
"","1621","html-keyboard-response","83","143781","0.0-9.0-2.18","cmyb53Jgog","559c1e28fdf99b2189ee807d","6617fad957f7c6a12ea16e26","6622cf46a32ced38ebfd4440","mask grid","q","","","","","Phylogenetic_Distractor_Threat_target","onmask","1200","q","9","Phylogenetic","true","practice"
"","null","html-keyboard-response","84","144986","0.0-9.0-3.18","cmyb53Jgog","559c1e28fdf99b2189ee807d","6617fad957f7c6a12ea16e26","6622cf46a32ced38ebfd4440","feedback screen","null","","","","","","","","","","","",""
"","null","html-keyboard-response","85","145492","0.0-9.0-0.19","cmyb53Jgog","559c1e28fdf99b2189ee807d","6617fad957f7c6a12ea16e26","6622cf46a32ced38ebfd4440","fixation cross","null","","","","","","","","","","","",""
"","null","html-keyboard-response","86","146594","0.0-9.0-1.19","cmyb53Jgog","559c1e28fdf99b2189ee807d","6617fad957f7c6a12ea16e26","6622cf46a32ced38ebfd4440","
        <div id=""grid-container"">
        <!-- Grid items will be dynamically added here -->
    </div>    ","null","","","","","","","","","","","",""
"","1711","html-keyboard-response","87","147206","0.0-9.0-2.19","cmyb53Jgog","559c1e28fdf99b2189ee807d","6617fad957f7c6a12ea16e26","6622cf46a32ced38ebfd4440","mask grid","q","","","","","Phylogenetic_Distractor_Nonthreat_target","onmask","1100","p","4","Phylogenetic","false","practice"
"","null","html-keyboard-response","88","148410","0.0-9.0-3.19","cmyb53Jgog","559c1e28fdf99b2189ee807d","6617fad957f7c6a12ea16e26","6622cf46a32ced38ebfd4440","feedback screen","null","","","","","","","","","","","",""
"","3813","html-keyboard-response","89","152261","0.0-10.0","cmyb53Jgog","559c1e28fdf99b2189ee807d","6617fad957f7c6a12ea16e26","6622cf46a32ced38ebfd4440","pre-experimental_briefing"," ","","","","","","","","","","","",""
"","null","html-keyboard-response","90","154764","0.0-11.0-0.0","cmyb53Jgog","559c1e28fdf99b2189ee807d","6617fad957f7c6a12ea16e26","6622cf46a32ced38ebfd4440","fixation cross","null","","","","","","","","","","","",""
"","1734","html-keyboard-response","91","156499","0.0-11.0-1.0","cmyb53Jgog","559c1e28fdf99b2189ee807d","6617fad957f7c6a12ea16e26","6622cf46a32ced38ebfd4440","image grid","q","","","","","Phylogenetic_Distractor_Threat_target","ongrid","2500","q","4","Phylogenetic","true","experimental"
"","null","html-keyboard-response","92","156652","0.0-11.0-2.0","cmyb53Jgog","559c1e28fdf99b2189ee807d","6617fad957f7c6a12ea16e26","6622cf46a32ced38ebfd4440","
    <div id=""grid-container"">
        <!-- Grid items will be dynamically added here -->
    </div>    ","null","","","","","","","","","","","",""
"","null","html-keyboard-response","93","157354","0.0-11.0-0.1","cmyb53Jgog","559c1e28fdf99b2189ee807d","6617fad957f7c6a12ea16e26","6622cf46a32ced38ebfd4440","fixation cross","null","","","","","","","","","","","",""
"","1769","html-keyboard-response","94","159125","0.0-11.0-1.1","cmyb53Jgog","559c1e28fdf99b2189ee807d","6617fad957f7c6a12ea16e26","6622cf46a32ced38ebfd4440","image grid","p","","","","","Phylogenetic_Distractor_Nonthreat_target","ongrid","2500","p","9","Phylogenetic","true","experimental"
"","null","html-keyboard-response","95","159276","0.0-11.0-2.1","cmyb53Jgog","559c1e28fdf99b2189ee807d","6617fad957f7c6a12ea16e26","6622cf46a32ced38ebfd4440","
    <div id=""grid-container"">
        <!-- Grid items will be dynamically added here -->
    </div>    ","null","","","","","","","","","","","",""
"","null","html-keyboard-response","96","159978","0.0-11.0-0.2","cmyb53Jgog","559c1e28fdf99b2189ee807d","6617fad957f7c6a12ea16e26","6622cf46a32ced38ebfd4440","fixation cross","null","","","","","","","","","","","",""
"","1209","html-keyboard-response","97","161189","0.0-11.0-1.2","cmyb53Jgog","559c1e28fdf99b2189ee807d","6617fad957f7c6a12ea16e26","6622cf46a32ced38ebfd4440","image grid","q","","","","","Phylogenetic_Distractor_Threat_target","ongrid","2500","q","9","Phylogenetic","true","experimental"
"","null","html-keyboard-response","98","161343","0.0-11.0-2.2","cmyb53Jgog","559c1e28fdf99b2189ee807d","6617fad957f7c6a12ea16e26","6622cf46a32ced38ebfd4440","
    <div id=""grid-container"">
        <!-- Grid items will be dynamically added here -->
    </div>    ","null","","","","","","","","","","","",""
"","null","html-keyboard-response","99","162045","0.0-11.0-0.3","cmyb53Jgog","559c1e28fdf99b2189ee807d","6617fad957f7c6a12ea16e26","6622cf46a32ced38ebfd4440","fixation cross","null","","","","","","","","","","","",""
"","1359","html-keyboard-response","100","163406","0.0-11.0-1.3","cmyb53Jgog","559c1e28fdf99b2189ee807d","6617fad957f7c6a12ea16e26","6622cf46a32ced38ebfd4440","image grid"," ","","","","","Phylogenetic_Distractor_notarget","ongrid","2500"," ","6","Phylogenetic","true","experimental"
"","null","html-keyboard-response","101","163559","0.0-11.0-2.3","cmyb53Jgog","559c1e28fdf99b2189ee807d","6617fad957f7c6a12ea16e26","6622cf46a32ced38ebfd4440","
    <div id=""grid-container"">
        <!-- Grid items will be dynamically added here -->
    </div>    ","null","","","","","","","","","","","",""
"","null","html-keyboard-response","102","164261","0.0-11.0-0.4","cmyb53Jgog","559c1e28fdf99b2189ee807d","6617fad957f7c6a12ea16e26","6622cf46a32ced38ebfd4440","fixation cross","null","","","","","","","","","","","",""
"","1161","html-keyboard-response","103","165423","0.0-11.0-1.4","cmyb53Jgog","559c1e28fdf99b2189ee807d","6617fad957f7c6a12ea16e26","6622cf46a32ced38ebfd4440","image grid","p","","","","","Phylogenetic_Distractor_Nonthreat_target","ongrid","2500","p","9","Phylogenetic","true","experimental"
"","null","html-keyboard-response","104","165576","0.0-11.0-2.4","cmyb53Jgog","559c1e28fdf99b2189ee807d","6617fad957f7c6a12ea16e26","6622cf46a32ced38ebfd4440","
    <div id=""grid-container"">
        <!-- Grid items will be dynamically added here -->
    </div>    ","null","","","","","","","","","","","",""
"","null","html-keyboard-response","105","166277","0.0-11.0-0.5","cmyb53Jgog","559c1e28fdf99b2189ee807d","6617fad957f7c6a12ea16e26","6622cf46a32ced38ebfd4440","fixation cross","null","","","","","","","","","","","",""
"","868","html-keyboard-response","106","167147","0.0-11.0-1.5","cmyb53Jgog","559c1e28fdf99b2189ee807d","6617fad957f7c6a12ea16e26","6622cf46a32ced38ebfd4440","image grid","p","","","","","Phylogenetic_Distractor_Nonthreat_target","ongrid","2500","p","5","Phylogenetic","true","experimental"
"","null","html-keyboard-response","107","167299","0.0-11.0-2.5","cmyb53Jgog","559c1e28fdf99b2189ee807d","6617fad957f7c6a12ea16e26","6622cf46a32ced38ebfd4440","
    <div id=""grid-container"">
        <!-- Grid items will be dynamically added here -->
    </div>    ","null","","","","","","","","","","","",""
"","null","html-keyboard-response","108","168001","0.0-11.0-0.6","cmyb53Jgog","559c1e28fdf99b2189ee807d","6617fad957f7c6a12ea16e26","6622cf46a32ced38ebfd4440","fixation cross","null","","","","","","","","","","","",""
"","964","html-keyboard-response","109","168966","0.0-11.0-1.6","cmyb53Jgog","559c1e28fdf99b2189ee807d","6617fad957f7c6a12ea16e26","6622cf46a32ced38ebfd4440","image grid","p","","","","","Phylogenetic_Distractor_Nonthreat_target","ongrid","2500","p","5","Phylogenetic","true","experimental"
"","null","html-keyboard-response","110","169118","0.0-11.0-2.6","cmyb53Jgog","559c1e28fdf99b2189ee807d","6617fad957f7c6a12ea16e26","6622cf46a32ced38ebfd4440","
    <div id=""grid-container"">
        <!-- Grid items will be dynamically added here -->
    </div>    ","null","","","","","","","","","","","",""
"","null","html-keyboard-response","111","169821","0.0-11.0-0.7","cmyb53Jgog","559c1e28fdf99b2189ee807d","6617fad957f7c6a12ea16e26","6622cf46a32ced38ebfd4440","fixation cross","null","","","","","","","","","","","",""
"","888","html-keyboard-response","112","170710","0.0-11.0-1.7","cmyb53Jgog","559c1e28fdf99b2189ee807d","6617fad957f7c6a12ea16e26","6622cf46a32ced38ebfd4440","image grid","q","","","","","Phylogenetic_Distractor_Threat_target","ongrid","2500","q","2","Phylogenetic","true","experimental"
"","null","html-keyboard-response","113","170864","0.0-11.0-2.7","cmyb53Jgog","559c1e28fdf99b2189ee807d","6617fad957f7c6a12ea16e26","6622cf46a32ced38ebfd4440","
    <div id=""grid-container"">
        <!-- Grid items will be dynamically added here -->
    </div>    ","null","","","","","","","","","","","",""
"","null","html-keyboard-response","114","171565","0.0-11.0-0.8","cmyb53Jgog","559c1e28fdf99b2189ee807d","6617fad957f7c6a12ea16e26","6622cf46a32ced38ebfd4440","fixation cross","null","","","","","","","","","","","",""
"","802","html-keyboard-response","115","172369","0.0-11.0-1.8","cmyb53Jgog","559c1e28fdf99b2189ee807d","6617fad957f7c6a12ea16e26","6622cf46a32ced38ebfd4440","image grid","q","","","","","Phylogenetic_Distractor_Threat_target","ongrid","2500","q","4","Phylogenetic","true","experimental"
"","null","html-keyboard-response","116","172523","0.0-11.0-2.8","cmyb53Jgog","559c1e28fdf99b2189ee807d","6617fad957f7c6a12ea16e26","6622cf46a32ced38ebfd4440","
    <div id=""grid-container"">
        <!-- Grid items will be dynamically added here -->
    </div>    ","null","","","","","","","","","","","",""
"","null","html-keyboard-response","117","173224","0.0-11.0-0.9","cmyb53Jgog","559c1e28fdf99b2189ee807d","6617fad957f7c6a12ea16e26","6622cf46a32ced38ebfd4440","fixation cross","null","","","","","","","","","","","",""
"","811","html-keyboard-response","118","174036","0.0-11.0-1.9","cmyb53Jgog","559c1e28fdf99b2189ee807d","6617fad957f7c6a12ea16e26","6622cf46a32ced38ebfd4440","image grid","q","","","","","Phylogenetic_Distractor_Threat_target","ongrid","2500","q","8","Phylogenetic","true","experimental"
"","null","html-keyboard-response","119","174189","0.0-11.0-2.9","cmyb53Jgog","559c1e28fdf99b2189ee807d","6617fad957f7c6a12ea16e26","6622cf46a32ced38ebfd4440","
    <div id=""grid-container"">
        <!-- Grid items will be dynamically added here -->
    </div>    ","null","","","","","","","","","","","",""
"","null","html-keyboard-response","120","174891","0.0-11.0-0.10","cmyb53Jgog","559c1e28fdf99b2189ee807d","6617fad957f7c6a12ea16e26","6622cf46a32ced38ebfd4440","fixation cross","null","","","","","","","","","","","",""
"","696","html-keyboard-response","121","175589","0.0-11.0-1.10","cmyb53Jgog","559c1e28fdf99b2189ee807d","6617fad957f7c6a12ea16e26","6622cf46a32ced38ebfd4440","image grid","q","","","","","Phylogenetic_Distractor_Threat_target","ongrid","2500","q","8","Phylogenetic","true","experimental"
"","null","html-keyboard-response","122","175742","0.0-11.0-2.10","cmyb53Jgog","559c1e28fdf99b2189ee807d","6617fad957f7c6a12ea16e26","6622cf46a32ced38ebfd4440","
    <div id=""grid-container"">
        <!-- Grid items will be dynamically added here -->
    </div>    ","null","","","","","","","","","","","",""
"","null","html-keyboard-response","123","176444","0.0-11.0-0.11","cmyb53Jgog","559c1e28fdf99b2189ee807d","6617fad957f7c6a12ea16e26","6622cf46a32ced38ebfd4440","fixation cross","null","","","","","","","","","","","",""
"","746","html-keyboard-response","124","177191","0.0-11.0-1.11","cmyb53Jgog","559c1e28fdf99b2189ee807d","6617fad957f7c6a12ea16e26","6622cf46a32ced38ebfd4440","image grid","q","","","","","Phylogenetic_Distractor_Threat_target","ongrid","2500","q","3","Phylogenetic","true","experimental"
"","null","html-keyboard-response","125","177343","0.0-11.0-2.11","cmyb53Jgog","559c1e28fdf99b2189ee807d","6617fad957f7c6a12ea16e26","6622cf46a32ced38ebfd4440","
    <div id=""grid-container"">
        <!-- Grid items will be dynamically added here -->
    </div>    ","null","","","","","","","","","","","",""
"","null","html-keyboard-response","126","178046","0.0-11.0-0.12","cmyb53Jgog","559c1e28fdf99b2189ee807d","6617fad957f7c6a12ea16e26","6622cf46a32ced38ebfd4440","fixation cross","null","","","","","","","","","","","",""
"","848","html-keyboard-response","127","178894","0.0-11.0-1.12","cmyb53Jgog","559c1e28fdf99b2189ee807d","6617fad957f7c6a12ea16e26","6622cf46a32ced38ebfd4440","image grid","p","","","","","Phylogenetic_Distractor_Nonthreat_target","ongrid","2500","p","3","Phylogenetic","true","experimental"
"","null","html-keyboard-response","128","179046","0.0-11.0-2.12","cmyb53Jgog","559c1e28fdf99b2189ee807d","6617fad957f7c6a12ea16e26","6622cf46a32ced38ebfd4440","
    <div id=""grid-container"">
        <!-- Grid items will be dynamically added here -->
    </div>    ","null","","","","","","","","","","","",""
"","null","html-keyboard-response","129","179748","0.0-11.0-0.13","cmyb53Jgog","559c1e28fdf99b2189ee807d","6617fad957f7c6a12ea16e26","6622cf46a32ced38ebfd4440","fixation cross","null","","","","","","","","","","","",""
"","1048","html-keyboard-response","130","180798","0.0-11.0-1.13","cmyb53Jgog","559c1e28fdf99b2189ee807d","6617fad957f7c6a12ea16e26","6622cf46a32ced38ebfd4440","image grid","p","","","","","Phylogenetic_Distractor_Nonthreat_target","ongrid","2500","p","9","Phylogenetic","true","experimental"
"","null","html-keyboard-response","131","180951","0.0-11.0-2.13","cmyb53Jgog","559c1e28fdf99b2189ee807d","6617fad957f7c6a12ea16e26","6622cf46a32ced38ebfd4440","
    <div id=""grid-container"">
        <!-- Grid items will be dynamically added here -->
    </div>    ","null","","","","","","","","","","","",""
"","null","html-keyboard-response","132","181653","0.0-11.0-0.14","cmyb53Jgog","559c1e28fdf99b2189ee807d","6617fad957f7c6a12ea16e26","6622cf46a32ced38ebfd4440","fixation cross","null","","","","","","","","","","","",""
"","1327","html-keyboard-response","133","182981","0.0-11.0-1.14","cmyb53Jgog","559c1e28fdf99b2189ee807d","6617fad957f7c6a12ea16e26","6622cf46a32ced38ebfd4440","image grid","p","","","","","Phylogenetic_Distractor_Nonthreat_target","ongrid","2500","p","1","Phylogenetic","true","experimental"
"","null","html-keyboard-response","134","183133","0.0-11.0-2.14","cmyb53Jgog","559c1e28fdf99b2189ee807d","6617fad957f7c6a12ea16e26","6622cf46a32ced38ebfd4440","
    <div id=""grid-container"">
        <!-- Grid items will be dynamically added here -->
    </div>    ","null","","","","","","","","","","","",""
"","null","html-keyboard-response","135","183835","0.0-11.0-0.15","cmyb53Jgog","559c1e28fdf99b2189ee807d","6617fad957f7c6a12ea16e26","6622cf46a32ced38ebfd4440","fixation cross","null","","","","","","","","","","","",""
"","1408","html-keyboard-response","136","185244","0.0-11.0-1.15","cmyb53Jgog","559c1e28fdf99b2189ee807d","6617fad957f7c6a12ea16e26","6622cf46a32ced38ebfd4440","image grid","p","","","","","Phylogenetic_Distractor_Nonthreat_target","ongrid","2500","p","9","Phylogenetic","true","experimental"
"","null","html-keyboard-response","137","185396","0.0-11.0-2.15","cmyb53Jgog","559c1e28fdf99b2189ee807d","6617fad957f7c6a12ea16e26","6622cf46a32ced38ebfd4440","
    <div id=""grid-container"">
        <!-- Grid items will be dynamically added here -->
    </div>    ","null","","","","","","","","","","","",""
"","null","html-keyboard-response","138","186098","0.0-11.0-0.16","cmyb53Jgog","559c1e28fdf99b2189ee807d","6617fad957f7c6a12ea16e26","6622cf46a32ced38ebfd4440","fixation cross","null","","","","","","","","","","","",""
"","731","html-keyboard-response","139","186831","0.0-11.0-1.16","cmyb53Jgog","559c1e28fdf99b2189ee807d","6617fad957f7c6a12ea16e26","6622cf46a32ced38ebfd4440","image grid","p","","","","","Phylogenetic_Distractor_Nonthreat_target","ongrid","2500","p","8","Phylogenetic","true","experimental"
"","null","html-keyboard-response","140","186984","0.0-11.0-2.16","cmyb53Jgog","559c1e28fdf99b2189ee807d","6617fad957f7c6a12ea16e26","6622cf46a32ced38ebfd4440","
    <div id=""grid-container"">
        <!-- Grid items will be dynamically added here -->
    </div>    ","null","","","","","","","","","","","",""
"","null","html-keyboard-response","141","187686","0.0-11.0-0.17","cmyb53Jgog","559c1e28fdf99b2189ee807d","6617fad957f7c6a12ea16e26","6622cf46a32ced38ebfd4440","fixation cross","null","","","","","","","","","","","",""
"","686","html-keyboard-response","142","188374","0.0-11.0-1.17","cmyb53Jgog","559c1e28fdf99b2189ee807d","6617fad957f7c6a12ea16e26","6622cf46a32ced38ebfd4440","image grid","q","","","","","Phylogenetic_Distractor_Threat_target","ongrid","2500","q","5","Phylogenetic","true","experimental"
"","null","html-keyboard-response","143","188527","0.0-11.0-2.17","cmyb53Jgog","559c1e28fdf99b2189ee807d","6617fad957f7c6a12ea16e26","6622cf46a32ced38ebfd4440","
    <div id=""grid-container"">
        <!-- Grid items will be dynamically added here -->
    </div>    ","null","","","","","","","","","","","",""
"","null","html-keyboard-response","144","189229","0.0-11.0-0.18","cmyb53Jgog","559c1e28fdf99b2189ee807d","6617fad957f7c6a12ea16e26","6622cf46a32ced38ebfd4440","fixation cross","null","","","","","","","","","","","",""
"","1343","html-keyboard-response","145","190573","0.0-11.0-1.18","cmyb53Jgog","559c1e28fdf99b2189ee807d","6617fad957f7c6a12ea16e26","6622cf46a32ced38ebfd4440","image grid","p","","","","","Phylogenetic_Distractor_notarget","ongrid","2500"," ","4","Phylogenetic","false","experimental"
"","null","html-keyboard-response","146","190726","0.0-11.0-2.18","cmyb53Jgog","559c1e28fdf99b2189ee807d","6617fad957f7c6a12ea16e26","6622cf46a32ced38ebfd4440","
    <div id=""grid-container"">
        <!-- Grid items will be dynamically added here -->
    </div>    ","null","","","","","","","","","","","",""
"","null","html-keyboard-response","147","191428","0.0-11.0-0.19","cmyb53Jgog","559c1e28fdf99b2189ee807d","6617fad957f7c6a12ea16e26","6622cf46a32ced38ebfd4440","fixation cross","null","","","","","","","","","","","",""
"","966","html-keyboard-response","148","192396","0.0-11.0-1.19","cmyb53Jgog","559c1e28fdf99b2189ee807d","6617fad957f7c6a12ea16e26","6622cf46a32ced38ebfd4440","image grid","q","","","","","Phylogenetic_Distractor_Threat_target","ongrid","2500","q","7","Phylogenetic","true","experimental"
"","null","html-keyboard-response","149","192548","0.0-11.0-2.19","cmyb53Jgog","559c1e28fdf99b2189ee807d","6617fad957f7c6a12ea16e26","6622cf46a32ced38ebfd4440","
    <div id=""grid-container"">
        <!-- Grid items will be dynamically added here -->
    </div>    ","null","","","","","","","","","","","",""
"","null","html-keyboard-response","150","193251","0.0-11.0-0.20","cmyb53Jgog","559c1e28fdf99b2189ee807d","6617fad957f7c6a12ea16e26","6622cf46a32ced38ebfd4440","fixation cross","null","","","","","","","","","","","",""
"","700","html-keyboard-response","151","193952","0.0-11.0-1.20","cmyb53Jgog","559c1e28fdf99b2189ee807d","6617fad957f7c6a12ea16e26","6622cf46a32ced38ebfd4440","image grid","q","","","","","Phylogenetic_Distractor_Threat_target","ongrid","2500","q","5","Phylogenetic","true","experimental"
"","null","html-keyboard-response","152","194104","0.0-11.0-2.20","cmyb53Jgog","559c1e28fdf99b2189ee807d","6617fad957f7c6a12ea16e26","6622cf46a32ced38ebfd4440","
    <div id=""grid-container"">
        <!-- Grid items will be dynamically added here -->
    </div>    ","null","","","","","","","","","","","",""
"","null","html-keyboard-response","153","194807","0.0-11.0-0.21","cmyb53Jgog","559c1e28fdf99b2189ee807d","6617fad957f7c6a12ea16e26","6622cf46a32ced38ebfd4440","fixation cross","null","","","","","","","","","","","",""
"","872","html-keyboard-response","154","195680","0.0-11.0-1.21","cmyb53Jgog","559c1e28fdf99b2189ee807d","6617fad957f7c6a12ea16e26","6622cf46a32ced38ebfd4440","image grid","q","","","","","Phylogenetic_Distractor_Threat_target","ongrid","2500","q","1","Phylogenetic","true","experimental"
"","null","html-keyboard-response","155","195833","0.0-11.0-2.21","cmyb53Jgog","559c1e28fdf99b2189ee807d","6617fad957f7c6a12ea16e26","6622cf46a32ced38ebfd4440","
    <div id=""grid-container"">
        <!-- Grid items will be dynamically added here -->
    </div>    ","null","","","","","","","","","","","",""
"","null","html-keyboard-response","156","196535","0.0-11.0-0.22","cmyb53Jgog","559c1e28fdf99b2189ee807d","6617fad957f7c6a12ea16e26","6622cf46a32ced38ebfd4440","fixation cross","null","","","","","","","","","","","",""
"","782","html-keyboard-response","157","197318","0.0-11.0-1.22","cmyb53Jgog","559c1e28fdf99b2189ee807d","6617fad957f7c6a12ea16e26","6622cf46a32ced38ebfd4440","image grid","q","","","","","Phylogenetic_Distractor_Threat_target","ongrid","2500","q","1","Phylogenetic","true","experimental"
"","null","html-keyboard-response","158","197471","0.0-11.0-2.22","cmyb53Jgog","559c1e28fdf99b2189ee807d","6617fad957f7c6a12ea16e26","6622cf46a32ced38ebfd4440","
    <div id=""grid-container"">
        <!-- Grid items will be dynamically added here -->
    </div>    ","null","","","","","","","","","","","",""
"","null","html-keyboard-response","159","198174","0.0-11.0-0.23","cmyb53Jgog","559c1e28fdf99b2189ee807d","6617fad957f7c6a12ea16e26","6622cf46a32ced38ebfd4440","fixation cross","null","","","","","","","","","","","",""
"","1160","html-keyboard-response","160","199336","0.0-11.0-1.23","cmyb53Jgog","559c1e28fdf99b2189ee807d","6617fad957f7c6a12ea16e26","6622cf46a32ced38ebfd4440","image grid","p","","","","","Phylogenetic_Distractor_Nonthreat_target","ongrid","2500","p","5","Phylogenetic","true","experimental"
"","null","html-keyboard-response","161","199489","0.0-11.0-2.23","cmyb53Jgog","559c1e28fdf99b2189ee807d","6617fad957f7c6a12ea16e26","6622cf46a32ced38ebfd4440","
    <div id=""grid-container"">
        <!-- Grid items will be dynamically added here -->
    </div>    ","null","","","","","","","","","","","",""
"","null","html-keyboard-response","162","200191","0.0-11.0-0.24","cmyb53Jgog","559c1e28fdf99b2189ee807d","6617fad957f7c6a12ea16e26","6622cf46a32ced38ebfd4440","fixation cross","null","","","","","","","","","","","",""
"","1216","html-keyboard-response","163","201408","0.0-11.0-1.24","cmyb53Jgog","559c1e28fdf99b2189ee807d","6617fad957f7c6a12ea16e26","6622cf46a32ced38ebfd4440","image grid"," ","","","","","Phylogenetic_Distractor_notarget","ongrid","2500"," ","7","Phylogenetic","true","experimental"
"","null","html-keyboard-response","164","201562","0.0-11.0-2.24","cmyb53Jgog","559c1e28fdf99b2189ee807d","6617fad957f7c6a12ea16e26","6622cf46a32ced38ebfd4440","
    <div id=""grid-container"">
        <!-- Grid items will be dynamically added here -->
    </div>    ","null","","","","","","","","","","","",""
"","null","html-keyboard-response","165","202263","0.0-11.0-0.25","cmyb53Jgog","559c1e28fdf99b2189ee807d","6617fad957f7c6a12ea16e26","6622cf46a32ced38ebfd4440","fixation cross","null","","","","","","","","","","","",""
"","767","html-keyboard-response","166","203030","0.0-11.0-1.25","cmyb53Jgog","559c1e28fdf99b2189ee807d","6617fad957f7c6a12ea16e26","6622cf46a32ced38ebfd4440","image grid","q","","","","","Phylogenetic_Distractor_Threat_target","ongrid","2500","q","5","Phylogenetic","true","experimental"
"","null","html-keyboard-response","167","203183","0.0-11.0-2.25","cmyb53Jgog","559c1e28fdf99b2189ee807d","6617fad957f7c6a12ea16e26","6622cf46a32ced38ebfd4440","
    <div id=""grid-container"">
        <!-- Grid items will be dynamically added here -->
    </div>    ","null","","","","","","","","","","","",""
"","null","html-keyboard-response","168","203885","0.0-11.0-0.26","cmyb53Jgog","559c1e28fdf99b2189ee807d","6617fad957f7c6a12ea16e26","6622cf46a32ced38ebfd4440","fixation cross","null","","","","","","","","","","","",""
"","734","html-keyboard-response","169","204620","0.0-11.0-1.26","cmyb53Jgog","559c1e28fdf99b2189ee807d","6617fad957f7c6a12ea16e26","6622cf46a32ced38ebfd4440","image grid","q","","","","","Phylogenetic_Distractor_Threat_target","ongrid","2500","q","4","Phylogenetic","true","experimental"
"","null","html-keyboard-response","170","204774","0.0-11.0-2.26","cmyb53Jgog","559c1e28fdf99b2189ee807d","6617fad957f7c6a12ea16e26","6622cf46a32ced38ebfd4440","
    <div id=""grid-container"">
        <!-- Grid items will be dynamically added here -->
    </div>    ","null","","","","","","","","","","","",""
"","null","html-keyboard-response","171","205476","0.0-11.0-0.27","cmyb53Jgog","559c1e28fdf99b2189ee807d","6617fad957f7c6a12ea16e26","6622cf46a32ced38ebfd4440","fixation cross","null","","","","","","","","","","","",""
"","895","html-keyboard-response","172","206373","0.0-11.0-1.27","cmyb53Jgog","559c1e28fdf99b2189ee807d","6617fad957f7c6a12ea16e26","6622cf46a32ced38ebfd4440","image grid","q","","","","","Phylogenetic_Distractor_Threat_target","ongrid","2500","q","8","Phylogenetic","true","experimental"
"","null","html-keyboard-response","173","206525","0.0-11.0-2.27","cmyb53Jgog","559c1e28fdf99b2189ee807d","6617fad957f7c6a12ea16e26","6622cf46a32ced38ebfd4440","
    <div id=""grid-container"">
        <!-- Grid items will be dynamically added here -->
    </div>    ","null","","","","","","","","","","","",""
"","null","html-keyboard-response","174","207227","0.0-11.0-0.28","cmyb53Jgog","559c1e28fdf99b2189ee807d","6617fad957f7c6a12ea16e26","6622cf46a32ced38ebfd4440","fixation cross","null","","","","","","","","","","","",""
"","771","html-keyboard-response","175","208000","0.0-11.0-1.28","cmyb53Jgog","559c1e28fdf99b2189ee807d","6617fad957f7c6a12ea16e26","6622cf46a32ced38ebfd4440","image grid","p","","","","","Phylogenetic_Distractor_Nonthreat_target","ongrid","2500","p","8","Phylogenetic","true","experimental"
"","null","html-keyboard-response","176","208153","0.0-11.0-2.28","cmyb53Jgog","559c1e28fdf99b2189ee807d","6617fad957f7c6a12ea16e26","6622cf46a32ced38ebfd4440","
    <div id=""grid-container"">
        <!-- Grid items will be dynamically added here -->
    </div>    ","null","","","","","","","","","","","",""
"","null","html-keyboard-response","177","208855","0.0-11.0-0.29","cmyb53Jgog","559c1e28fdf99b2189ee807d","6617fad957f7c6a12ea16e26","6622cf46a32ced38ebfd4440","fixation cross","null","","","","","","","","","","","",""
"","1570","html-keyboard-response","178","210426","0.0-11.0-1.29","cmyb53Jgog","559c1e28fdf99b2189ee807d","6617fad957f7c6a12ea16e26","6622cf46a32ced38ebfd4440","image grid","p","","","","","Phylogenetic_Distractor_Nonthreat_target","ongrid","2500","p","1","Phylogenetic","true","experimental"
"","null","html-keyboard-response","179","210580","0.0-11.0-2.29","cmyb53Jgog","559c1e28fdf99b2189ee807d","6617fad957f7c6a12ea16e26","6622cf46a32ced38ebfd4440","
    <div id=""grid-container"">
        <!-- Grid items will be dynamically added here -->
    </div>    ","null","","","","","","","","","","","",""
"","null","html-keyboard-response","180","211282","0.0-11.0-0.30","cmyb53Jgog","559c1e28fdf99b2189ee807d","6617fad957f7c6a12ea16e26","6622cf46a32ced38ebfd4440","fixation cross","null","","","","","","","","","","","",""
"","1526","html-keyboard-response","181","212809","0.0-11.0-1.30","cmyb53Jgog","559c1e28fdf99b2189ee807d","6617fad957f7c6a12ea16e26","6622cf46a32ced38ebfd4440","image grid"," ","","","","","Phylogenetic_Distractor_Nonthreat_target","ongrid","2500","p","4","Phylogenetic","false","experimental"
"","null","html-keyboard-response","182","212963","0.0-11.0-2.30","cmyb53Jgog","559c1e28fdf99b2189ee807d","6617fad957f7c6a12ea16e26","6622cf46a32ced38ebfd4440","
    <div id=""grid-container"">
        <!-- Grid items will be dynamically added here -->
    </div>    ","null","","","","","","","","","","","",""
"","null","html-keyboard-response","183","213665","0.0-11.0-0.31","cmyb53Jgog","559c1e28fdf99b2189ee807d","6617fad957f7c6a12ea16e26","6622cf46a32ced38ebfd4440","fixation cross","null","","","","","","","","","","","",""
"","860","html-keyboard-response","184","214527","0.0-11.0-1.31","cmyb53Jgog","559c1e28fdf99b2189ee807d","6617fad957f7c6a12ea16e26","6622cf46a32ced38ebfd4440","image grid","p","","","","","Phylogenetic_Distractor_Nonthreat_target","ongrid","2500","p","1","Phylogenetic","true","experimental"
"","null","html-keyboard-response","185","214681","0.0-11.0-2.31","cmyb53Jgog","559c1e28fdf99b2189ee807d","6617fad957f7c6a12ea16e26","6622cf46a32ced38ebfd4440","
    <div id=""grid-container"">
        <!-- Grid items will be dynamically added here -->
    </div>    ","null","","","","","","","","","","","",""
"","null","html-keyboard-response","186","215384","0.0-11.0-0.32","cmyb53Jgog","559c1e28fdf99b2189ee807d","6617fad957f7c6a12ea16e26","6622cf46a32ced38ebfd4440","fixation cross","null","","","","","","","","","","","",""
"","1122","html-keyboard-response","187","216508","0.0-11.0-1.32","cmyb53Jgog","559c1e28fdf99b2189ee807d","6617fad957f7c6a12ea16e26","6622cf46a32ced38ebfd4440","image grid","p","","","","","Phylogenetic_Distractor_Nonthreat_target","ongrid","2500","p","2","Phylogenetic","true","experimental"
"","null","html-keyboard-response","188","216661","0.0-11.0-2.32","cmyb53Jgog","559c1e28fdf99b2189ee807d","6617fad957f7c6a12ea16e26","6622cf46a32ced38ebfd4440","
    <div id=""grid-container"">
        <!-- Grid items will be dynamically added here -->
    </div>    ","null","","","","","","","","","","","",""
"","null","html-keyboard-response","189","217363","0.0-11.0-0.33","cmyb53Jgog","559c1e28fdf99b2189ee807d","6617fad957f7c6a12ea16e26","6622cf46a32ced38ebfd4440","fixation cross","null","","","","","","","","","","","",""
"","1348","html-keyboard-response","190","218712","0.0-11.0-1.33","cmyb53Jgog","559c1e28fdf99b2189ee807d","6617fad957f7c6a12ea16e26","6622cf46a32ced38ebfd4440","image grid","q","","","","","Phylogenetic_Distractor_Threat_target","ongrid","2500","q","3","Phylogenetic","true","experimental"
"","null","html-keyboard-response","191","218865","0.0-11.0-2.33","cmyb53Jgog","559c1e28fdf99b2189ee807d","6617fad957f7c6a12ea16e26","6622cf46a32ced38ebfd4440","
    <div id=""grid-container"">
        <!-- Grid items will be dynamically added here -->
    </div>    ","null","","","","","","","","","","","",""
"","null","html-keyboard-response","192","219568","0.0-11.0-0.34","cmyb53Jgog","559c1e28fdf99b2189ee807d","6617fad957f7c6a12ea16e26","6622cf46a32ced38ebfd4440","fixation cross","null","","","","","","","","","","","",""
"","746","html-keyboard-response","193","220315","0.0-11.0-1.34","cmyb53Jgog","559c1e28fdf99b2189ee807d","6617fad957f7c6a12ea16e26","6622cf46a32ced38ebfd4440","image grid","q","","","","","Phylogenetic_Distractor_Threat_target","ongrid","2500","q","3","Phylogenetic","true","experimental"
"","null","html-keyboard-response","194","220469","0.0-11.0-2.34","cmyb53Jgog","559c1e28fdf99b2189ee807d","6617fad957f7c6a12ea16e26","6622cf46a32ced38ebfd4440","
    <div id=""grid-container"">
        <!-- Grid items will be dynamically added here -->
    </div>    ","null","","","","","","","","","","","",""
"","null","html-keyboard-response","195","221171","0.0-11.0-0.35","cmyb53Jgog","559c1e28fdf99b2189ee807d","6617fad957f7c6a12ea16e26","6622cf46a32ced38ebfd4440","fixation cross","null","","","","","","","","","","","",""
"","1004","html-keyboard-response","196","222177","0.0-11.0-1.35","cmyb53Jgog","559c1e28fdf99b2189ee807d","6617fad957f7c6a12ea16e26","6622cf46a32ced38ebfd4440","image grid","p","","","","","Phylogenetic_Distractor_Nonthreat_target","ongrid","2500","p","4","Phylogenetic","true","experimental"
"","null","html-keyboard-response","197","222330","0.0-11.0-2.35","cmyb53Jgog","559c1e28fdf99b2189ee807d","6617fad957f7c6a12ea16e26","6622cf46a32ced38ebfd4440","
    <div id=""grid-container"">
        <!-- Grid items will be dynamically added here -->
    </div>    ","null","","","","","","","","","","","",""
"","null","html-keyboard-response","198","223032","0.0-11.0-0.36","cmyb53Jgog","559c1e28fdf99b2189ee807d","6617fad957f7c6a12ea16e26","6622cf46a32ced38ebfd4440","fixation cross","null","","","","","","","","","","","",""
"","843","html-keyboard-response","199","223877","0.0-11.0-1.36","cmyb53Jgog","559c1e28fdf99b2189ee807d","6617fad957f7c6a12ea16e26","6622cf46a32ced38ebfd4440","image grid","p","","","","","Phylogenetic_Distractor_Nonthreat_target","ongrid","2500","p","2","Phylogenetic","true","experimental"
"","null","html-keyboard-response","200","224031","0.0-11.0-2.36","cmyb53Jgog","559c1e28fdf99b2189ee807d","6617fad957f7c6a12ea16e26","6622cf46a32ced38ebfd4440","
    <div id=""grid-container"">
        <!-- Grid items will be dynamically added here -->
    </div>    ","null","","","","","","","","","","","",""
"","null","html-keyboard-response","201","224733","0.0-11.0-0.37","cmyb53Jgog","559c1e28fdf99b2189ee807d","6617fad957f7c6a12ea16e26","6622cf46a32ced38ebfd4440","fixation cross","null","","","","","","","","","","","",""
"","1069","html-keyboard-response","202","225802","0.0-11.0-1.37","cmyb53Jgog","559c1e28fdf99b2189ee807d","6617fad957f7c6a12ea16e26","6622cf46a32ced38ebfd4440","image grid"," ","","","","","Phylogenetic_Distractor_notarget","ongrid","2500"," ","2","Phylogenetic","true","experimental"
"","null","html-keyboard-response","203","225953","0.0-11.0-2.37","cmyb53Jgog","559c1e28fdf99b2189ee807d","6617fad957f7c6a12ea16e26","6622cf46a32ced38ebfd4440","
    <div id=""grid-container"">
        <!-- Grid items will be dynamically added here -->
    </div>    ","null","","","","","","","","","","","",""
"","null","html-keyboard-response","204","226655","0.0-11.0-0.38","cmyb53Jgog","559c1e28fdf99b2189ee807d","6617fad957f7c6a12ea16e26","6622cf46a32ced38ebfd4440","fixation cross","null","","","","","","","","","","","",""
"","1013","html-keyboard-response","205","227670","0.0-11.0-1.38","cmyb53Jgog","559c1e28fdf99b2189ee807d","6617fad957f7c6a12ea16e26","6622cf46a32ced38ebfd4440","image grid","p","","","","","Phylogenetic_Distractor_Nonthreat_target","ongrid","2500","p","1","Phylogenetic","true","experimental"
"","null","html-keyboard-response","206","227824","0.0-11.0-2.38","cmyb53Jgog","559c1e28fdf99b2189ee807d","6617fad957f7c6a12ea16e26","6622cf46a32ced38ebfd4440","
    <div id=""grid-container"">
        <!-- Grid items will be dynamically added here -->
    </div>    ","null","","","","","","","","","","","",""
"","null","html-keyboard-response","207","228526","0.0-11.0-0.39","cmyb53Jgog","559c1e28fdf99b2189ee807d","6617fad957f7c6a12ea16e26","6622cf46a32ced38ebfd4440","fixation cross","null","","","","","","","","","","","",""
"","831","html-keyboard-response","208","229358","0.0-11.0-1.39","cmyb53Jgog","559c1e28fdf99b2189ee807d","6617fad957f7c6a12ea16e26","6622cf46a32ced38ebfd4440","image grid","q","","","","","Phylogenetic_Distractor_Threat_target","ongrid","2500","q","2","Phylogenetic","true","experimental"
"","null","html-keyboard-response","209","229511","0.0-11.0-2.39","cmyb53Jgog","559c1e28fdf99b2189ee807d","6617fad957f7c6a12ea16e26","6622cf46a32ced38ebfd4440","
    <div id=""grid-container"">
        <!-- Grid items will be dynamically added here -->
    </div>    ","null","","","","","","","","","","","",""
"","5812","html-keyboard-response","210","235567","0.0-12.0","cmyb53Jgog","559c1e28fdf99b2189ee807d","6617fad957f7c6a12ea16e26","6622cf46a32ced38ebfd4440","break screen"," ","","","","","","","","","","","",""
"","null","html-keyboard-response","211","238107","0.0-13.0-0.0","cmyb53Jgog","559c1e28fdf99b2189ee807d","6617fad957f7c6a12ea16e26","6622cf46a32ced38ebfd4440","fixation cross","null","","","","","","","","","","","",""
"","770","html-keyboard-response","212","238878","0.0-13.0-1.0","cmyb53Jgog","559c1e28fdf99b2189ee807d","6617fad957f7c6a12ea16e26","6622cf46a32ced38ebfd4440","image grid","p","","","","","Phylogenetic_Distractor_Nonthreat_target","ongrid","800","p","4","Phylogenetic","true","experimental"
"","null","html-keyboard-response","213","239032","0.0-13.0-2.0","cmyb53Jgog","559c1e28fdf99b2189ee807d","6617fad957f7c6a12ea16e26","6622cf46a32ced38ebfd4440","
    <div id=""grid-container"">
        <!-- Grid items will be dynamically added here -->
    </div>    ","null","","","","","","","","","","","",""
"","null","html-keyboard-response","214","239735","0.0-13.0-0.1","cmyb53Jgog","559c1e28fdf99b2189ee807d","6617fad957f7c6a12ea16e26","6622cf46a32ced38ebfd4440","fixation cross","null","","","","","","","","","","","",""
"","null","html-keyboard-response","215","240537","0.0-13.0-1.1","cmyb53Jgog","559c1e28fdf99b2189ee807d","6617fad957f7c6a12ea16e26","6622cf46a32ced38ebfd4440","
        <div id=""grid-container"">
        <!-- Grid items will be dynamically added here -->
    </div>    ","null","","","","","","","","","","","",""
"","854","html-keyboard-response","216","240592","0.0-13.0-2.1","cmyb53Jgog","559c1e28fdf99b2189ee807d","6617fad957f7c6a12ea16e26","6622cf46a32ced38ebfd4440","mask grid","p","","","","","Phylogenetic_Distractor_Nonthreat_target","onmask","800","p","8","Phylogenetic","true","experimental"
"","null","html-keyboard-response","217","241295","0.0-13.0-0.2","cmyb53Jgog","559c1e28fdf99b2189ee807d","6617fad957f7c6a12ea16e26","6622cf46a32ced38ebfd4440","fixation cross","null","","","","","","","","","","","",""
"","null","html-keyboard-response","218","242097","0.0-13.0-1.2","cmyb53Jgog","559c1e28fdf99b2189ee807d","6617fad957f7c6a12ea16e26","6622cf46a32ced38ebfd4440","
        <div id=""grid-container"">
        <!-- Grid items will be dynamically added here -->
    </div>    ","null","","","","","","","","","","","",""
"","873","html-keyboard-response","219","242171","0.0-13.0-2.2","cmyb53Jgog","559c1e28fdf99b2189ee807d","6617fad957f7c6a12ea16e26","6622cf46a32ced38ebfd4440","mask grid","q","","","","","Phylogenetic_Distractor_Threat_target","onmask","800","q","8","Phylogenetic","true","experimental"
"","null","html-keyboard-response","220","242875","0.0-13.0-0.3","cmyb53Jgog","559c1e28fdf99b2189ee807d","6617fad957f7c6a12ea16e26","6622cf46a32ced38ebfd4440","fixation cross","null","","","","","","","","","","","",""
"","778","html-keyboard-response","221","243654","0.0-13.0-1.3","cmyb53Jgog","559c1e28fdf99b2189ee807d","6617fad957f7c6a12ea16e26","6622cf46a32ced38ebfd4440","image grid","p","","","","","Phylogenetic_Distractor_Nonthreat_target","ongrid","800","p","2","Phylogenetic","true","experimental"
"","null","html-keyboard-response","222","243806","0.0-13.0-2.3","cmyb53Jgog","559c1e28fdf99b2189ee807d","6617fad957f7c6a12ea16e26","6622cf46a32ced38ebfd4440","
    <div id=""grid-container"">
        <!-- Grid items will be dynamically added here -->
    </div>    ","null","","","","","","","","","","","",""
"","null","html-keyboard-response","223","244509","0.0-13.0-0.4","cmyb53Jgog","559c1e28fdf99b2189ee807d","6617fad957f7c6a12ea16e26","6622cf46a32ced38ebfd4440","fixation cross","null","","","","","","","","","","","",""
"","null","html-keyboard-response","224","245312","0.0-13.0-1.4","cmyb53Jgog","559c1e28fdf99b2189ee807d","6617fad957f7c6a12ea16e26","6622cf46a32ced38ebfd4440","
        <div id=""grid-container"">
        <!-- Grid items will be dynamically added here -->
    </div>    ","null","","","","","","","","","","","",""
"","1488","html-keyboard-response","225","246002","0.0-13.0-2.4","cmyb53Jgog","559c1e28fdf99b2189ee807d","6617fad957f7c6a12ea16e26","6622cf46a32ced38ebfd4440","mask grid"," ","","","","","Phylogenetic_Distractor_notarget","onmask","800"," ","6","Phylogenetic","true","experimental"
"","null","html-keyboard-response","226","246705","0.0-13.0-0.5","cmyb53Jgog","559c1e28fdf99b2189ee807d","6617fad957f7c6a12ea16e26","6622cf46a32ced38ebfd4440","fixation cross","null","","","","","","","","","","","",""
"","597","html-keyboard-response","227","247304","0.0-13.0-1.5","cmyb53Jgog","559c1e28fdf99b2189ee807d","6617fad957f7c6a12ea16e26","6622cf46a32ced38ebfd4440","image grid","p","","","","","Phylogenetic_Distractor_Nonthreat_target","ongrid","800","p","5","Phylogenetic","true","experimental"
"","null","html-keyboard-response","228","247458","0.0-13.0-2.5","cmyb53Jgog","559c1e28fdf99b2189ee807d","6617fad957f7c6a12ea16e26","6622cf46a32ced38ebfd4440","
    <div id=""grid-container"">
        <!-- Grid items will be dynamically added here -->
    </div>    ","null","","","","","","","","","","","",""
"","null","html-keyboard-response","229","248160","0.0-13.0-0.6","cmyb53Jgog","559c1e28fdf99b2189ee807d","6617fad957f7c6a12ea16e26","6622cf46a32ced38ebfd4440","fixation cross","null","","","","","","","","","","","",""
"","678","html-keyboard-response","230","248839","0.0-13.0-1.6","cmyb53Jgog","559c1e28fdf99b2189ee807d","6617fad957f7c6a12ea16e26","6622cf46a32ced38ebfd4440","image grid","q","","","","","Phylogenetic_Distractor_Threat_target","ongrid","800","q","1","Phylogenetic","true","experimental"
"","null","html-keyboard-response","231","248992","0.0-13.0-2.6","cmyb53Jgog","559c1e28fdf99b2189ee807d","6617fad957f7c6a12ea16e26","6622cf46a32ced38ebfd4440","
    <div id=""grid-container"">
        <!-- Grid items will be dynamically added here -->
    </div>    ","null","","","","","","","","","","","",""
"","null","html-keyboard-response","232","249694","0.0-13.0-0.7","cmyb53Jgog","559c1e28fdf99b2189ee807d","6617fad957f7c6a12ea16e26","6622cf46a32ced38ebfd4440","fixation cross","null","","","","","","","","","","","",""
"","645","html-keyboard-response","233","250341","0.0-13.0-1.7","cmyb53Jgog","559c1e28fdf99b2189ee807d","6617fad957f7c6a12ea16e26","6622cf46a32ced38ebfd4440","image grid","p","","","","","Phylogenetic_Distractor_Nonthreat_target","ongrid","800","p","8","Phylogenetic","true","experimental"
"","null","html-keyboard-response","234","250494","0.0-13.0-2.7","cmyb53Jgog","559c1e28fdf99b2189ee807d","6617fad957f7c6a12ea16e26","6622cf46a32ced38ebfd4440","
    <div id=""grid-container"">
        <!-- Grid items will be dynamically added here -->
    </div>    ","null","","","","","","","","","","","",""
"","null","html-keyboard-response","235","251197","0.0-13.0-0.8","cmyb53Jgog","559c1e28fdf99b2189ee807d","6617fad957f7c6a12ea16e26","6622cf46a32ced38ebfd4440","fixation cross","null","","","","","","","","","","","",""
"","null","html-keyboard-response","236","251999","0.0-13.0-1.8","cmyb53Jgog","559c1e28fdf99b2189ee807d","6617fad957f7c6a12ea16e26","6622cf46a32ced38ebfd4440","
        <div id=""grid-container"">
        <!-- Grid items will be dynamically added here -->
    </div>    ","null","","","","","","","","","","","",""
"","858","html-keyboard-response","237","252059","0.0-13.0-2.8","cmyb53Jgog","559c1e28fdf99b2189ee807d","6617fad957f7c6a12ea16e26","6622cf46a32ced38ebfd4440","mask grid","q","","","","","Phylogenetic_Distractor_Threat_target","onmask","800","q","8","Phylogenetic","true","experimental"
"","null","html-keyboard-response","238","252763","0.0-13.0-0.9","cmyb53Jgog","559c1e28fdf99b2189ee807d","6617fad957f7c6a12ea16e26","6622cf46a32ced38ebfd4440","fixation cross","null","","","","","","","","","","","",""
"","null","html-keyboard-response","239","253565","0.0-13.0-1.9","cmyb53Jgog","559c1e28fdf99b2189ee807d","6617fad957f7c6a12ea16e26","6622cf46a32ced38ebfd4440","
        <div id=""grid-container"">
        <!-- Grid items will be dynamically added here -->
    </div>    ","null","","","","","","","","","","","",""
"","1077","html-keyboard-response","240","253844","0.0-13.0-2.9","cmyb53Jgog","559c1e28fdf99b2189ee807d","6617fad957f7c6a12ea16e26","6622cf46a32ced38ebfd4440","mask grid","p","","","","","Phylogenetic_Distractor_Nonthreat_target","onmask","800","p","7","Phylogenetic","true","experimental"
"","null","html-keyboard-response","241","254548","0.0-13.0-0.10","cmyb53Jgog","559c1e28fdf99b2189ee807d","6617fad957f7c6a12ea16e26","6622cf46a32ced38ebfd4440","fixation cross","null","","","","","","","","","","","",""
"","null","html-keyboard-response","242","255350","0.0-13.0-1.10","cmyb53Jgog","559c1e28fdf99b2189ee807d","6617fad957f7c6a12ea16e26","6622cf46a32ced38ebfd4440","
        <div id=""grid-container"">
        <!-- Grid items will be dynamically added here -->
    </div>    ","null","","","","","","","","","","","",""
"","920","html-keyboard-response","243","255471","0.0-13.0-2.10","cmyb53Jgog","559c1e28fdf99b2189ee807d","6617fad957f7c6a12ea16e26","6622cf46a32ced38ebfd4440","mask grid","p","","","","","Phylogenetic_Distractor_Nonthreat_target","onmask","800","p","5","Phylogenetic","true","experimental"
"","null","html-keyboard-response","244","256175","0.0-13.0-0.11","cmyb53Jgog","559c1e28fdf99b2189ee807d","6617fad957f7c6a12ea16e26","6622cf46a32ced38ebfd4440","fixation cross","null","","","","","","","","","","","",""
"","745","html-keyboard-response","245","256921","0.0-13.0-1.11","cmyb53Jgog","559c1e28fdf99b2189ee807d","6617fad957f7c6a12ea16e26","6622cf46a32ced38ebfd4440","image grid","q","","","","","Phylogenetic_Distractor_Threat_target","ongrid","800","q","2","Phylogenetic","true","experimental"
"","null","html-keyboard-response","246","257078","0.0-13.0-2.11","cmyb53Jgog","559c1e28fdf99b2189ee807d","6617fad957f7c6a12ea16e26","6622cf46a32ced38ebfd4440","
    <div id=""grid-container"">
        <!-- Grid items will be dynamically added here -->
    </div>    ","null","","","","","","","","","","","",""
"","null","html-keyboard-response","247","257780","0.0-13.0-0.12","cmyb53Jgog","559c1e28fdf99b2189ee807d","6617fad957f7c6a12ea16e26","6622cf46a32ced38ebfd4440","fixation cross","null","","","","","","","","","","","",""
"","699","html-keyboard-response","248","258481","0.0-13.0-1.12","cmyb53Jgog","559c1e28fdf99b2189ee807d","6617fad957f7c6a12ea16e26","6622cf46a32ced38ebfd4440","image grid","p","","","","","Phylogenetic_Distractor_Nonthreat_target","ongrid","800","p","8","Phylogenetic","true","experimental"
"","null","html-keyboard-response","249","258635","0.0-13.0-2.12","cmyb53Jgog","559c1e28fdf99b2189ee807d","6617fad957f7c6a12ea16e26","6622cf46a32ced38ebfd4440","
    <div id=""grid-container"">
        <!-- Grid items will be dynamically added here -->
    </div>    ","null","","","","","","","","","","","",""
"","null","html-keyboard-response","250","259337","0.0-13.0-0.13","cmyb53Jgog","559c1e28fdf99b2189ee807d","6617fad957f7c6a12ea16e26","6622cf46a32ced38ebfd4440","fixation cross","null","","","","","","","","","","","",""
"","null","html-keyboard-response","251","260139","0.0-13.0-1.13","cmyb53Jgog","559c1e28fdf99b2189ee807d","6617fad957f7c6a12ea16e26","6622cf46a32ced38ebfd4440","
        <div id=""grid-container"">
        <!-- Grid items will be dynamically added here -->
    </div>    ","null","","","","","","","","","","","",""
"","1154","html-keyboard-response","252","260495","0.0-13.0-2.13","cmyb53Jgog","559c1e28fdf99b2189ee807d","6617fad957f7c6a12ea16e26","6622cf46a32ced38ebfd4440","mask grid","p","","","","","Phylogenetic_Distractor_Nonthreat_target","onmask","800","p","8","Phylogenetic","true","experimental"
"","null","html-keyboard-response","253","261198","0.0-13.0-0.14","cmyb53Jgog","559c1e28fdf99b2189ee807d","6617fad957f7c6a12ea16e26","6622cf46a32ced38ebfd4440","fixation cross","null","","","","","","","","","","","",""
"","634","html-keyboard-response","254","261832","0.0-13.0-1.14","cmyb53Jgog","559c1e28fdf99b2189ee807d","6617fad957f7c6a12ea16e26","6622cf46a32ced38ebfd4440","image grid","p","","","","","Phylogenetic_Distractor_Threat_target","ongrid","800","q","4","Phylogenetic","false","experimental"
"","null","html-keyboard-response","255","261985","0.0-13.0-2.14","cmyb53Jgog","559c1e28fdf99b2189ee807d","6617fad957f7c6a12ea16e26","6622cf46a32ced38ebfd4440","
    <div id=""grid-container"">
        <!-- Grid items will be dynamically added here -->
    </div>    ","null","","","","","","","","","","","",""
"","null","html-keyboard-response","256","262687","0.0-13.0-0.15","cmyb53Jgog","559c1e28fdf99b2189ee807d","6617fad957f7c6a12ea16e26","6622cf46a32ced38ebfd4440","fixation cross","null","","","","","","","","","","","",""
"","null","html-keyboard-response","257","263488","0.0-13.0-1.15","cmyb53Jgog","559c1e28fdf99b2189ee807d","6617fad957f7c6a12ea16e26","6622cf46a32ced38ebfd4440","
        <div id=""grid-container"">
        <!-- Grid items will be dynamically added here -->
    </div>    ","null","","","","","","","","","","","",""
"","1248","html-keyboard-response","258","263938","0.0-13.0-2.15","cmyb53Jgog","559c1e28fdf99b2189ee807d","6617fad957f7c6a12ea16e26","6622cf46a32ced38ebfd4440","mask grid","p","","","","","Phylogenetic_Distractor_Nonthreat_target","onmask","800","p","5","Phylogenetic","true","experimental"
"","null","html-keyboard-response","259","264642","0.0-13.0-0.16","cmyb53Jgog","559c1e28fdf99b2189ee807d","6617fad957f7c6a12ea16e26","6622cf46a32ced38ebfd4440","fixation cross","null","","","","","","","","","","","",""
"","null","html-keyboard-response","260","265444","0.0-13.0-1.16","cmyb53Jgog","559c1e28fdf99b2189ee807d","6617fad957f7c6a12ea16e26","6622cf46a32ced38ebfd4440","
        <div id=""grid-container"">
        <!-- Grid items will be dynamically added here -->
    </div>    ","null","","","","","","","","","","","",""
"","1286","html-keyboard-response","261","265931","0.0-13.0-2.16","cmyb53Jgog","559c1e28fdf99b2189ee807d","6617fad957f7c6a12ea16e26","6622cf46a32ced38ebfd4440","mask grid","p","","","","","Phylogenetic_Distractor_Nonthreat_target","onmask","800","p","9","Phylogenetic","true","experimental"
"","null","html-keyboard-response","262","266635","0.0-13.0-0.17","cmyb53Jgog","559c1e28fdf99b2189ee807d","6617fad957f7c6a12ea16e26","6622cf46a32ced38ebfd4440","fixation cross","null","","","","","","","","","","","",""
"","null","html-keyboard-response","263","267437","0.0-13.0-1.17","cmyb53Jgog","559c1e28fdf99b2189ee807d","6617fad957f7c6a12ea16e26","6622cf46a32ced38ebfd4440","
        <div id=""grid-container"">
        <!-- Grid items will be dynamically added here -->
    </div>    ","null","","","","","","","","","","","",""
"","901","html-keyboard-response","264","267540","0.0-13.0-2.17","cmyb53Jgog","559c1e28fdf99b2189ee807d","6617fad957f7c6a12ea16e26","6622cf46a32ced38ebfd4440","mask grid","q","","","","","Phylogenetic_Distractor_Threat_target","onmask","800","q","5","Phylogenetic","true","experimental"
"","null","html-keyboard-response","265","268243","0.0-13.0-0.18","cmyb53Jgog","559c1e28fdf99b2189ee807d","6617fad957f7c6a12ea16e26","6622cf46a32ced38ebfd4440","fixation cross","null","","","","","","","","","","","",""
"","633","html-keyboard-response","266","268878","0.0-13.0-1.18","cmyb53Jgog","559c1e28fdf99b2189ee807d","6617fad957f7c6a12ea16e26","6622cf46a32ced38ebfd4440","image grid","q","","","","","Phylogenetic_Distractor_Threat_target","ongrid","800","q","1","Phylogenetic","true","experimental"
"","null","html-keyboard-response","267","269031","0.0-13.0-2.18","cmyb53Jgog","559c1e28fdf99b2189ee807d","6617fad957f7c6a12ea16e26","6622cf46a32ced38ebfd4440","
    <div id=""grid-container"">
        <!-- Grid items will be dynamically added here -->
    </div>    ","null","","","","","","","","","","","",""
"","null","html-keyboard-response","268","269733","0.0-13.0-0.19","cmyb53Jgog","559c1e28fdf99b2189ee807d","6617fad957f7c6a12ea16e26","6622cf46a32ced38ebfd4440","fixation cross","null","","","","","","","","","","","",""
"","null","html-keyboard-response","269","270535","0.0-13.0-1.19","cmyb53Jgog","559c1e28fdf99b2189ee807d","6617fad957f7c6a12ea16e26","6622cf46a32ced38ebfd4440","
        <div id=""grid-container"">
        <!-- Grid items will be dynamically added here -->
    </div>    ","null","","","","","","","","","","","",""
"","1215","html-keyboard-response","270","270952","0.0-13.0-2.19","cmyb53Jgog","559c1e28fdf99b2189ee807d","6617fad957f7c6a12ea16e26","6622cf46a32ced38ebfd4440","mask grid"," ","","","","","Phylogenetic_Distractor_Threat_target","onmask","800","q","6","Phylogenetic","false","experimental"
"","null","html-keyboard-response","271","271655","0.0-13.0-0.20","cmyb53Jgog","559c1e28fdf99b2189ee807d","6617fad957f7c6a12ea16e26","6622cf46a32ced38ebfd4440","fixation cross","null","","","","","","","","","","","",""
"","null","html-keyboard-response","272","272458","0.0-13.0-1.20","cmyb53Jgog","559c1e28fdf99b2189ee807d","6617fad957f7c6a12ea16e26","6622cf46a32ced38ebfd4440","
        <div id=""grid-container"">
        <!-- Grid items will be dynamically added here -->
    </div>    ","null","","","","","","","","","","","",""
"","886","html-keyboard-response","273","272545","0.0-13.0-2.20","cmyb53Jgog","559c1e28fdf99b2189ee807d","6617fad957f7c6a12ea16e26","6622cf46a32ced38ebfd4440","mask grid","q","","","","","Phylogenetic_Distractor_Threat_target","onmask","800","q","8","Phylogenetic","true","experimental"
"","null","html-keyboard-response","274","273249","0.0-13.0-0.21","cmyb53Jgog","559c1e28fdf99b2189ee807d","6617fad957f7c6a12ea16e26","6622cf46a32ced38ebfd4440","fixation cross","null","","","","","","","","","","","",""
"","680","html-keyboard-response","275","273931","0.0-13.0-1.21","cmyb53Jgog","559c1e28fdf99b2189ee807d","6617fad957f7c6a12ea16e26","6622cf46a32ced38ebfd4440","image grid","p","","","","","Phylogenetic_Distractor_Nonthreat_target","ongrid","800","p","4","Phylogenetic","true","experimental"
"","null","html-keyboard-response","276","274084","0.0-13.0-2.21","cmyb53Jgog","559c1e28fdf99b2189ee807d","6617fad957f7c6a12ea16e26","6622cf46a32ced38ebfd4440","
    <div id=""grid-container"">
        <!-- Grid items will be dynamically added here -->
    </div>    ","null","","","","","","","","","","","",""
"","null","html-keyboard-response","277","274787","0.0-13.0-0.22","cmyb53Jgog","559c1e28fdf99b2189ee807d","6617fad957f7c6a12ea16e26","6622cf46a32ced38ebfd4440","fixation cross","null","","","","","","","","","","","",""
"","null","html-keyboard-response","278","275588","0.0-13.0-1.22","cmyb53Jgog","559c1e28fdf99b2189ee807d","6617fad957f7c6a12ea16e26","6622cf46a32ced38ebfd4440","
        <div id=""grid-container"">
        <!-- Grid items will be dynamically added here -->
    </div>    ","null","","","","","","","","","","","",""
"","1245","html-keyboard-response","279","276035","0.0-13.0-2.22","cmyb53Jgog","559c1e28fdf99b2189ee807d","6617fad957f7c6a12ea16e26","6622cf46a32ced38ebfd4440","mask grid"," ","","","","","Phylogenetic_Distractor_Nonthreat_target","onmask","800","p","8","Phylogenetic","false","experimental"
"","null","html-keyboard-response","280","276739","0.0-13.0-0.23","cmyb53Jgog","559c1e28fdf99b2189ee807d","6617fad957f7c6a12ea16e26","6622cf46a32ced38ebfd4440","fixation cross","null","","","","","","","","","","","",""
"","null","html-keyboard-response","281","277540","0.0-13.0-1.23","cmyb53Jgog","559c1e28fdf99b2189ee807d","6617fad957f7c6a12ea16e26","6622cf46a32ced38ebfd4440","
        <div id=""grid-container"">
        <!-- Grid items will be dynamically added here -->
    </div>    ","null","","","","","","","","","","","",""
"","826","html-keyboard-response","282","277567","0.0-13.0-2.23","cmyb53Jgog","559c1e28fdf99b2189ee807d","6617fad957f7c6a12ea16e26","6622cf46a32ced38ebfd4440","mask grid","p","","","","","Phylogenetic_Distractor_Nonthreat_target","onmask","800","p","9","Phylogenetic","true","experimental"
"","null","html-keyboard-response","283","278270","0.0-13.0-0.24","cmyb53Jgog","559c1e28fdf99b2189ee807d","6617fad957f7c6a12ea16e26","6622cf46a32ced38ebfd4440","fixation cross","null","","","","","","","","","","","",""
"","null","html-keyboard-response","284","279072","0.0-13.0-1.24","cmyb53Jgog","559c1e28fdf99b2189ee807d","6617fad957f7c6a12ea16e26","6622cf46a32ced38ebfd4440","
        <div id=""grid-container"">
        <!-- Grid items will be dynamically added here -->
    </div>    ","null","","","","","","","","","","","",""
"","1293","html-keyboard-response","285","279566","0.0-13.0-2.24","cmyb53Jgog","559c1e28fdf99b2189ee807d","6617fad957f7c6a12ea16e26","6622cf46a32ced38ebfd4440","mask grid","p","","","","","Phylogenetic_Distractor_Nonthreat_target","onmask","800","p","6","Phylogenetic","true","experimental"
"","null","html-keyboard-response","286","280270","0.0-13.0-0.25","cmyb53Jgog","559c1e28fdf99b2189ee807d","6617fad957f7c6a12ea16e26","6622cf46a32ced38ebfd4440","fixation cross","null","","","","","","","","","","","",""
"","661","html-keyboard-response","287","280932","0.0-13.0-1.25","cmyb53Jgog","559c1e28fdf99b2189ee807d","6617fad957f7c6a12ea16e26","6622cf46a32ced38ebfd4440","image grid","q","","","","","Phylogenetic_Distractor_Threat_target","ongrid","800","q","6","Phylogenetic","true","experimental"
"","null","html-keyboard-response","288","281086","0.0-13.0-2.25","cmyb53Jgog","559c1e28fdf99b2189ee807d","6617fad957f7c6a12ea16e26","6622cf46a32ced38ebfd4440","
    <div id=""grid-container"">
        <!-- Grid items will be dynamically added here -->
    </div>    ","null","","","","","","","","","","","",""
"","null","html-keyboard-response","289","281789","0.0-13.0-0.26","cmyb53Jgog","559c1e28fdf99b2189ee807d","6617fad957f7c6a12ea16e26","6622cf46a32ced38ebfd4440","fixation cross","null","","","","","","","","","","","",""
"","null","html-keyboard-response","290","282591","0.0-13.0-1.26","cmyb53Jgog","559c1e28fdf99b2189ee807d","6617fad957f7c6a12ea16e26","6622cf46a32ced38ebfd4440","
        <div id=""grid-container"">
        <!-- Grid items will be dynamically added here -->
    </div>    ","null","","","","","","","","","","","",""
"","1131","html-keyboard-response","291","282923","0.0-13.0-2.26","cmyb53Jgog","559c1e28fdf99b2189ee807d","6617fad957f7c6a12ea16e26","6622cf46a32ced38ebfd4440","mask grid","q","","","","","Phylogenetic_Distractor_Threat_target","onmask","800","q","8","Phylogenetic","true","experimental"
"","null","html-keyboard-response","292","283626","0.0-13.0-0.27","cmyb53Jgog","559c1e28fdf99b2189ee807d","6617fad957f7c6a12ea16e26","6622cf46a32ced38ebfd4440","fixation cross","null","","","","","","","","","","","",""
"","null","html-keyboard-response","293","284428","0.0-13.0-1.27","cmyb53Jgog","559c1e28fdf99b2189ee807d","6617fad957f7c6a12ea16e26","6622cf46a32ced38ebfd4440","
        <div id=""grid-container"">
        <!-- Grid items will be dynamically added here -->
    </div>    ","null","","","","","","","","","","","",""
"","942","html-keyboard-response","294","284571","0.0-13.0-2.27","cmyb53Jgog","559c1e28fdf99b2189ee807d","6617fad957f7c6a12ea16e26","6622cf46a32ced38ebfd4440","mask grid","q","","","","","Phylogenetic_Distractor_Threat_target","onmask","800","q","2","Phylogenetic","true","experimental"
"","null","html-keyboard-response","295","285275","0.0-13.0-0.28","cmyb53Jgog","559c1e28fdf99b2189ee807d","6617fad957f7c6a12ea16e26","6622cf46a32ced38ebfd4440","fixation cross","null","","","","","","","","","","","",""
"","682","html-keyboard-response","296","285958","0.0-13.0-1.28","cmyb53Jgog","559c1e28fdf99b2189ee807d","6617fad957f7c6a12ea16e26","6622cf46a32ced38ebfd4440","image grid","q","","","","","Phylogenetic_Distractor_Threat_target","ongrid","800","q","4","Phylogenetic","true","experimental"
"","null","html-keyboard-response","297","286111","0.0-13.0-2.28","cmyb53Jgog","559c1e28fdf99b2189ee807d","6617fad957f7c6a12ea16e26","6622cf46a32ced38ebfd4440","
    <div id=""grid-container"">
        <!-- Grid items will be dynamically added here -->
    </div>    ","null","","","","","","","","","","","",""
"","null","html-keyboard-response","298","286813","0.0-13.0-0.29","cmyb53Jgog","559c1e28fdf99b2189ee807d","6617fad957f7c6a12ea16e26","6622cf46a32ced38ebfd4440","fixation cross","null","","","","","","","","","","","",""
"","634","html-keyboard-response","299","287447","0.0-13.0-1.29","cmyb53Jgog","559c1e28fdf99b2189ee807d","6617fad957f7c6a12ea16e26","6622cf46a32ced38ebfd4440","image grid","q","","","","","Phylogenetic_Distractor_Threat_target","ongrid","800","q","6","Phylogenetic","true","experimental"
"","null","html-keyboard-response","300","287601","0.0-13.0-2.29","cmyb53Jgog","559c1e28fdf99b2189ee807d","6617fad957f7c6a12ea16e26","6622cf46a32ced38ebfd4440","
    <div id=""grid-container"">
        <!-- Grid items will be dynamically added here -->
    </div>    ","null","","","","","","","","","","","",""
"","null","html-keyboard-response","301","288303","0.0-13.0-0.30","cmyb53Jgog","559c1e28fdf99b2189ee807d","6617fad957f7c6a12ea16e26","6622cf46a32ced38ebfd4440","fixation cross","null","","","","","","","","","","","",""
"","null","html-keyboard-response","302","289105","0.0-13.0-1.30","cmyb53Jgog","559c1e28fdf99b2189ee807d","6617fad957f7c6a12ea16e26","6622cf46a32ced38ebfd4440","
        <div id=""grid-container"">
        <!-- Grid items will be dynamically added here -->
    </div>    ","null","","","","","","","","","","","",""
"","932","html-keyboard-response","303","289238","0.0-13.0-2.30","cmyb53Jgog","559c1e28fdf99b2189ee807d","6617fad957f7c6a12ea16e26","6622cf46a32ced38ebfd4440","mask grid","p","","","","","Phylogenetic_Distractor_Threat_target","onmask","800","q","3","Phylogenetic","false","experimental"
"","null","html-keyboard-response","304","289942","0.0-13.0-0.31","cmyb53Jgog","559c1e28fdf99b2189ee807d","6617fad957f7c6a12ea16e26","6622cf46a32ced38ebfd4440","fixation cross","null","","","","","","","","","","","",""
"","null","html-keyboard-response","305","290745","0.0-13.0-1.31","cmyb53Jgog","559c1e28fdf99b2189ee807d","6617fad957f7c6a12ea16e26","6622cf46a32ced38ebfd4440","
        <div id=""grid-container"">
        <!-- Grid items will be dynamically added here -->
    </div>    ","null","","","","","","","","","","","",""
"","1421","html-keyboard-response","306","291366","0.0-13.0-2.31","cmyb53Jgog","559c1e28fdf99b2189ee807d","6617fad957f7c6a12ea16e26","6622cf46a32ced38ebfd4440","mask grid"," ","","","","","Phylogenetic_Distractor_notarget","onmask","800"," ","3","Phylogenetic","true","experimental"
"","null","html-keyboard-response","307","292069","0.0-13.0-0.32","cmyb53Jgog","559c1e28fdf99b2189ee807d","6617fad957f7c6a12ea16e26","6622cf46a32ced38ebfd4440","fixation cross","null","","","","","","","","","","","",""
"","null","html-keyboard-response","308","292871","0.0-13.0-1.32","cmyb53Jgog","559c1e28fdf99b2189ee807d","6617fad957f7c6a12ea16e26","6622cf46a32ced38ebfd4440","
        <div id=""grid-container"">
        <!-- Grid items will be dynamically added here -->
    </div>    ","null","","","","","","","","","","","",""
"","1244","html-keyboard-response","309","293315","0.0-13.0-2.32","cmyb53Jgog","559c1e28fdf99b2189ee807d","6617fad957f7c6a12ea16e26","6622cf46a32ced38ebfd4440","mask grid"," ","","","","","Phylogenetic_Distractor_notarget","onmask","800"," ","9","Phylogenetic","true","experimental"
"","null","html-keyboard-response","310","294019","0.0-13.0-0.33","cmyb53Jgog","559c1e28fdf99b2189ee807d","6617fad957f7c6a12ea16e26","6622cf46a32ced38ebfd4440","fixation cross","null","","","","","","","","","","","",""
"","646","html-keyboard-response","311","294667","0.0-13.0-1.33","cmyb53Jgog","559c1e28fdf99b2189ee807d","6617fad957f7c6a12ea16e26","6622cf46a32ced38ebfd4440","image grid","p","","","","","Phylogenetic_Distractor_Nonthreat_target","ongrid","800","p","3","Phylogenetic","true","experimental"
"","null","html-keyboard-response","312","294819","0.0-13.0-2.33","cmyb53Jgog","559c1e28fdf99b2189ee807d","6617fad957f7c6a12ea16e26","6622cf46a32ced38ebfd4440","
    <div id=""grid-container"">
        <!-- Grid items will be dynamically added here -->
    </div>    ","null","","","","","","","","","","","",""
"","null","html-keyboard-response","313","295521","0.0-13.0-0.34","cmyb53Jgog","559c1e28fdf99b2189ee807d","6617fad957f7c6a12ea16e26","6622cf46a32ced38ebfd4440","fixation cross","null","","","","","","","","","","","",""
"","null","html-keyboard-response","314","296324","0.0-13.0-1.34","cmyb53Jgog","559c1e28fdf99b2189ee807d","6617fad957f7c6a12ea16e26","6622cf46a32ced38ebfd4440","
        <div id=""grid-container"">
        <!-- Grid items will be dynamically added here -->
    </div>    ","null","","","","","","","","","","","",""
"","1838","html-keyboard-response","315","297364","0.0-13.0-2.34","cmyb53Jgog","559c1e28fdf99b2189ee807d","6617fad957f7c6a12ea16e26","6622cf46a32ced38ebfd4440","mask grid","p","","","","","Phylogenetic_Distractor_Nonthreat_target","onmask","800","p","6","Phylogenetic","true","experimental"
"","null","html-keyboard-response","316","298067","0.0-13.0-0.35","cmyb53Jgog","559c1e28fdf99b2189ee807d","6617fad957f7c6a12ea16e26","6622cf46a32ced38ebfd4440","fixation cross","null","","","","","","","","","","","",""
"","null","html-keyboard-response","317","298870","0.0-13.0-1.35","cmyb53Jgog","559c1e28fdf99b2189ee807d","6617fad957f7c6a12ea16e26","6622cf46a32ced38ebfd4440","
        <div id=""grid-container"">
        <!-- Grid items will be dynamically added here -->
    </div>    ","null","","","","","","","","","","","",""
"","1533","html-keyboard-response","318","299604","0.0-13.0-2.35","cmyb53Jgog","559c1e28fdf99b2189ee807d","6617fad957f7c6a12ea16e26","6622cf46a32ced38ebfd4440","mask grid","q","","","","","Phylogenetic_Distractor_Threat_target","onmask","800","q","4","Phylogenetic","true","experimental"
"","null","html-keyboard-response","319","300308","0.0-13.0-0.36","cmyb53Jgog","559c1e28fdf99b2189ee807d","6617fad957f7c6a12ea16e26","6622cf46a32ced38ebfd4440","fixation cross","null","","","","","","","","","","","",""
"","598","html-keyboard-response","320","300907","0.0-13.0-1.36","cmyb53Jgog","559c1e28fdf99b2189ee807d","6617fad957f7c6a12ea16e26","6622cf46a32ced38ebfd4440","image grid","p","","","","","Phylogenetic_Distractor_Nonthreat_target","ongrid","800","p","5","Phylogenetic","true","experimental"
"","null","html-keyboard-response","321","301061","0.0-13.0-2.36","cmyb53Jgog","559c1e28fdf99b2189ee807d","6617fad957f7c6a12ea16e26","6622cf46a32ced38ebfd4440","
    <div id=""grid-container"">
        <!-- Grid items will be dynamically added here -->
    </div>    ","null","","","","","","","","","","","",""
"","null","html-keyboard-response","322","301763","0.0-13.0-0.37","cmyb53Jgog","559c1e28fdf99b2189ee807d","6617fad957f7c6a12ea16e26","6622cf46a32ced38ebfd4440","fixation cross","null","","","","","","","","","","","",""
"","null","html-keyboard-response","323","302565","0.0-13.0-1.37","cmyb53Jgog","559c1e28fdf99b2189ee807d","6617fad957f7c6a12ea16e26","6622cf46a32ced38ebfd4440","
        <div id=""grid-container"">
        <!-- Grid items will be dynamically added here -->
    </div>    ","null","","","","","","","","","","","",""
"","1172","html-keyboard-response","324","302938","0.0-13.0-2.37","cmyb53Jgog","559c1e28fdf99b2189ee807d","6617fad957f7c6a12ea16e26","6622cf46a32ced38ebfd4440","mask grid"," ","","","","","Phylogenetic_Distractor_notarget","onmask","800"," ","7","Phylogenetic","true","experimental"
"","null","html-keyboard-response","325","303642","0.0-13.0-0.38","cmyb53Jgog","559c1e28fdf99b2189ee807d","6617fad957f7c6a12ea16e26","6622cf46a32ced38ebfd4440","fixation cross","null","","","","","","","","","","","",""
"","780","html-keyboard-response","326","304423","0.0-13.0-1.38","cmyb53Jgog","559c1e28fdf99b2189ee807d","6617fad957f7c6a12ea16e26","6622cf46a32ced38ebfd4440","image grid","q","","","","","Phylogenetic_Distractor_Threat_target","ongrid","800","q","8","Phylogenetic","true","experimental"
"","null","html-keyboard-response","327","304577","0.0-13.0-2.38","cmyb53Jgog","559c1e28fdf99b2189ee807d","6617fad957f7c6a12ea16e26","6622cf46a32ced38ebfd4440","
    <div id=""grid-container"">
        <!-- Grid items will be dynamically added here -->
    </div>    ","null","","","","","","","","","","","",""
"","null","html-keyboard-response","328","305279","0.0-13.0-0.39","cmyb53Jgog","559c1e28fdf99b2189ee807d","6617fad957f7c6a12ea16e26","6622cf46a32ced38ebfd4440","fixation cross","null","","","","","","","","","","","",""
"","507","html-keyboard-response","329","305787","0.0-13.0-1.39","cmyb53Jgog","559c1e28fdf99b2189ee807d","6617fad957f7c6a12ea16e26","6622cf46a32ced38ebfd4440","image grid","q","","","","","Phylogenetic_Distractor_Threat_target","ongrid","800","q","8","Phylogenetic","true","experimental"
"","null","html-keyboard-response","330","305940","0.0-13.0-2.39","cmyb53Jgog","559c1e28fdf99b2189ee807d","6617fad957f7c6a12ea16e26","6622cf46a32ced38ebfd4440","
    <div id=""grid-container"">
        <!-- Grid items will be dynamically added here -->
    </div>    ","null","","","","","","","","","","","",""
"","6587","html-keyboard-response","331","312730","0.0-14.0","cmyb53Jgog","559c1e28fdf99b2189ee807d","6617fad957f7c6a12ea16e26","6622cf46a32ced38ebfd4440","break screen"," ","","","","","","","","","","","",""
"","null","html-keyboard-response","332","315232","0.0-15.0-0.0","cmyb53Jgog","559c1e28fdf99b2189ee807d","6617fad957f7c6a12ea16e26","6622cf46a32ced38ebfd4440","fixation cross","null","","","","","","","","","","","",""
"","2224","html-keyboard-response","333","317456","0.0-15.0-1.0","cmyb53Jgog","559c1e28fdf99b2189ee807d","6617fad957f7c6a12ea16e26","6622cf46a32ced38ebfd4440","image grid","q","","","","","Ontogenetic_Distractor_Threat_target","ongrid","2500","q","5","Ontogenetic","true","experimental"
"","null","html-keyboard-response","334","317610","0.0-15.0-2.0","cmyb53Jgog","559c1e28fdf99b2189ee807d","6617fad957f7c6a12ea16e26","6622cf46a32ced38ebfd4440","
    <div id=""grid-container"">
        <!-- Grid items will be dynamically added here -->
    </div>    ","null","","","","","","","","","","","",""
"","null","html-keyboard-response","335","318313","0.0-15.0-0.1","cmyb53Jgog","559c1e28fdf99b2189ee807d","6617fad957f7c6a12ea16e26","6622cf46a32ced38ebfd4440","fixation cross","null","","","","","","","","","","","",""
"","1236","html-keyboard-response","336","319551","0.0-15.0-1.1","cmyb53Jgog","559c1e28fdf99b2189ee807d","6617fad957f7c6a12ea16e26","6622cf46a32ced38ebfd4440","image grid","q","","","","","Ontogenetic_Distractor_Threat_target","ongrid","2500","q","8","Ontogenetic","true","experimental"
"","null","html-keyboard-response","337","319705","0.0-15.0-2.1","cmyb53Jgog","559c1e28fdf99b2189ee807d","6617fad957f7c6a12ea16e26","6622cf46a32ced38ebfd4440","
    <div id=""grid-container"">
        <!-- Grid items will be dynamically added here -->
    </div>    ","null","","","","","","","","","","","",""
"","null","html-keyboard-response","338","320408","0.0-15.0-0.2","cmyb53Jgog","559c1e28fdf99b2189ee807d","6617fad957f7c6a12ea16e26","6622cf46a32ced38ebfd4440","fixation cross","null","","","","","","","","","","","",""
"","1190","html-keyboard-response","339","321599","0.0-15.0-1.2","cmyb53Jgog","559c1e28fdf99b2189ee807d","6617fad957f7c6a12ea16e26","6622cf46a32ced38ebfd4440","image grid","p","","","","","Ontogenetic_Distractor_Nonthreat_target","ongrid","2500","p","5","Ontogenetic","true","experimental"
"","null","html-keyboard-response","340","321753","0.0-15.0-2.2","cmyb53Jgog","559c1e28fdf99b2189ee807d","6617fad957f7c6a12ea16e26","6622cf46a32ced38ebfd4440","
    <div id=""grid-container"">
        <!-- Grid items will be dynamically added here -->
    </div>    ","null","","","","","","","","","","","",""
"","null","html-keyboard-response","341","322455","0.0-15.0-0.3","cmyb53Jgog","559c1e28fdf99b2189ee807d","6617fad957f7c6a12ea16e26","6622cf46a32ced38ebfd4440","fixation cross","null","","","","","","","","","","","",""
"","1456","html-keyboard-response","342","323912","0.0-15.0-1.3","cmyb53Jgog","559c1e28fdf99b2189ee807d","6617fad957f7c6a12ea16e26","6622cf46a32ced38ebfd4440","image grid","p","","","","","Ontogenetic_Distractor_Nonthreat_target","ongrid","2500","p","1","Ontogenetic","true","experimental"
"","null","html-keyboard-response","343","324066","0.0-15.0-2.3","cmyb53Jgog","559c1e28fdf99b2189ee807d","6617fad957f7c6a12ea16e26","6622cf46a32ced38ebfd4440","
    <div id=""grid-container"">
        <!-- Grid items will be dynamically added here -->
    </div>    ","null","","","","","","","","","","","",""
"","null","html-keyboard-response","344","324772","0.0-15.0-0.4","cmyb53Jgog","559c1e28fdf99b2189ee807d","6617fad957f7c6a12ea16e26","6622cf46a32ced38ebfd4440","fixation cross","null","","","","","","","","","","","",""
"","935","html-keyboard-response","345","325709","0.0-15.0-1.4","cmyb53Jgog","559c1e28fdf99b2189ee807d","6617fad957f7c6a12ea16e26","6622cf46a32ced38ebfd4440","image grid","p","","","","","Ontogenetic_Distractor_Nonthreat_target","ongrid","2500","p","4","Ontogenetic","true","experimental"
"","null","html-keyboard-response","346","325863","0.0-15.0-2.4","cmyb53Jgog","559c1e28fdf99b2189ee807d","6617fad957f7c6a12ea16e26","6622cf46a32ced38ebfd4440","
    <div id=""grid-container"">
        <!-- Grid items will be dynamically added here -->
    </div>    ","null","","","","","","","","","","","",""
"","null","html-keyboard-response","347","326565","0.0-15.0-0.5","cmyb53Jgog","559c1e28fdf99b2189ee807d","6617fad957f7c6a12ea16e26","6622cf46a32ced38ebfd4440","fixation cross","null","","","","","","","","","","","",""
"","1072","html-keyboard-response","348","327639","0.0-15.0-1.5","cmyb53Jgog","559c1e28fdf99b2189ee807d","6617fad957f7c6a12ea16e26","6622cf46a32ced38ebfd4440","image grid","q","","","","","Ontogenetic_Distractor_Threat_target","ongrid","2500","q","6","Ontogenetic","true","experimental"
"","null","html-keyboard-response","349","327792","0.0-15.0-2.5","cmyb53Jgog","559c1e28fdf99b2189ee807d","6617fad957f7c6a12ea16e26","6622cf46a32ced38ebfd4440","
    <div id=""grid-container"">
        <!-- Grid items will be dynamically added here -->
    </div>    ","null","","","","","","","","","","","",""
"","null","html-keyboard-response","350","328494","0.0-15.0-0.6","cmyb53Jgog","559c1e28fdf99b2189ee807d","6617fad957f7c6a12ea16e26","6622cf46a32ced38ebfd4440","fixation cross","null","","","","","","","","","","","",""
"","1732","html-keyboard-response","351","330228","0.0-15.0-1.6","cmyb53Jgog","559c1e28fdf99b2189ee807d","6617fad957f7c6a12ea16e26","6622cf46a32ced38ebfd4440","image grid","p","","","","","Ontogenetic_Distractor_Nonthreat_target","ongrid","2500","p","8","Ontogenetic","true","experimental"
"","null","html-keyboard-response","352","330383","0.0-15.0-2.6","cmyb53Jgog","559c1e28fdf99b2189ee807d","6617fad957f7c6a12ea16e26","6622cf46a32ced38ebfd4440","
    <div id=""grid-container"">
        <!-- Grid items will be dynamically added here -->
    </div>    ","null","","","","","","","","","","","",""
"","null","html-keyboard-response","353","331085","0.0-15.0-0.7","cmyb53Jgog","559c1e28fdf99b2189ee807d","6617fad957f7c6a12ea16e26","6622cf46a32ced38ebfd4440","fixation cross","null","","","","","","","","","","","",""
"","620","html-keyboard-response","354","331706","0.0-15.0-1.7","cmyb53Jgog","559c1e28fdf99b2189ee807d","6617fad957f7c6a12ea16e26","6622cf46a32ced38ebfd4440","image grid","q","","","","","Ontogenetic_Distractor_Threat_target","ongrid","2500","q","4","Ontogenetic","true","experimental"
"","null","html-keyboard-response","355","331861","0.0-15.0-2.7","cmyb53Jgog","559c1e28fdf99b2189ee807d","6617fad957f7c6a12ea16e26","6622cf46a32ced38ebfd4440","
    <div id=""grid-container"">
        <!-- Grid items will be dynamically added here -->
    </div>    ","null","","","","","","","","","","","",""
"","null","html-keyboard-response","356","332563","0.0-15.0-0.8","cmyb53Jgog","559c1e28fdf99b2189ee807d","6617fad957f7c6a12ea16e26","6622cf46a32ced38ebfd4440","fixation cross","null","","","","","","","","","","","",""
"","1457","html-keyboard-response","357","334021","0.0-15.0-1.8","cmyb53Jgog","559c1e28fdf99b2189ee807d","6617fad957f7c6a12ea16e26","6622cf46a32ced38ebfd4440","image grid"," ","","","","","Ontogenetic_Distractor_notarget","ongrid","2500"," ","2","Ontogenetic","true","experimental"
"","null","html-keyboard-response","358","334175","0.0-15.0-2.8","cmyb53Jgog","559c1e28fdf99b2189ee807d","6617fad957f7c6a12ea16e26","6622cf46a32ced38ebfd4440","
    <div id=""grid-container"">
        <!-- Grid items will be dynamically added here -->
    </div>    ","null","","","","","","","","","","","",""
"","null","html-keyboard-response","359","334877","0.0-15.0-0.9","cmyb53Jgog","559c1e28fdf99b2189ee807d","6617fad957f7c6a12ea16e26","6622cf46a32ced38ebfd4440","fixation cross","null","","","","","","","","","","","",""
"","1408","html-keyboard-response","360","336287","0.0-15.0-1.9","cmyb53Jgog","559c1e28fdf99b2189ee807d","6617fad957f7c6a12ea16e26","6622cf46a32ced38ebfd4440","image grid","p","","","","","Ontogenetic_Distractor_Threat_target","ongrid","2500","q","3","Ontogenetic","false","experimental"
"","null","html-keyboard-response","361","336440","0.0-15.0-2.9","cmyb53Jgog","559c1e28fdf99b2189ee807d","6617fad957f7c6a12ea16e26","6622cf46a32ced38ebfd4440","
    <div id=""grid-container"">
        <!-- Grid items will be dynamically added here -->
    </div>    ","null","","","","","","","","","","","",""
"","null","html-keyboard-response","362","337142","0.0-15.0-0.10","cmyb53Jgog","559c1e28fdf99b2189ee807d","6617fad957f7c6a12ea16e26","6622cf46a32ced38ebfd4440","fixation cross","null","","","","","","","","","","","",""
"","1035","html-keyboard-response","363","338179","0.0-15.0-1.10","cmyb53Jgog","559c1e28fdf99b2189ee807d","6617fad957f7c6a12ea16e26","6622cf46a32ced38ebfd4440","image grid","q","","","","","Ontogenetic_Distractor_Threat_target","ongrid","2500","q","8","Ontogenetic","true","experimental"
"","null","html-keyboard-response","364","338332","0.0-15.0-2.10","cmyb53Jgog","559c1e28fdf99b2189ee807d","6617fad957f7c6a12ea16e26","6622cf46a32ced38ebfd4440","
    <div id=""grid-container"">
        <!-- Grid items will be dynamically added here -->
    </div>    ","null","","","","","","","","","","","",""
"","null","html-keyboard-response","365","339035","0.0-15.0-0.11","cmyb53Jgog","559c1e28fdf99b2189ee807d","6617fad957f7c6a12ea16e26","6622cf46a32ced38ebfd4440","fixation cross","null","","","","","","","","","","","",""
"","1041","html-keyboard-response","366","340077","0.0-15.0-1.11","cmyb53Jgog","559c1e28fdf99b2189ee807d","6617fad957f7c6a12ea16e26","6622cf46a32ced38ebfd4440","image grid","q","","","","","Ontogenetic_Distractor_Threat_target","ongrid","2500","q","7","Ontogenetic","true","experimental"
"","null","html-keyboard-response","367","340232","0.0-15.0-2.11","cmyb53Jgog","559c1e28fdf99b2189ee807d","6617fad957f7c6a12ea16e26","6622cf46a32ced38ebfd4440","
    <div id=""grid-container"">
        <!-- Grid items will be dynamically added here -->
    </div>    ","null","","","","","","","","","","","",""
"","null","html-keyboard-response","368","340934","0.0-15.0-0.12","cmyb53Jgog","559c1e28fdf99b2189ee807d","6617fad957f7c6a12ea16e26","6622cf46a32ced38ebfd4440","fixation cross","null","","","","","","","","","","","",""
"","863","html-keyboard-response","369","341798","0.0-15.0-1.12","cmyb53Jgog","559c1e28fdf99b2189ee807d","6617fad957f7c6a12ea16e26","6622cf46a32ced38ebfd4440","image grid","p","","","","","Ontogenetic_Distractor_Nonthreat_target","ongrid","2500","p","2","Ontogenetic","true","experimental"
