"success","rt","trial_type","trial_index","time_elapsed","internal_node_id","unique_identifier","subject_id","study_id","session_id","stimulus","response","timeout","failed_images","failed_audio","failed_video","task","respondedwhen","time_manipulation","correctresponse","targetimagelocation","blocktype","correct","roundtype"
"true","1214","fullscreen","0","2219","0.0-0.0","sIZWIAwLIO","5ca4d7e75d545300110b7545","6617fad957f7c6a12ea16e26","6622cb446eae5127a7bf6e76","","","","","","","","","","","","","",""
"","3984","html-keyboard-response","1","6208","0.0-1.0","sIZWIAwLIO","5ca4d7e75d545300110b7545","6617fad957f7c6a12ea16e26","6622cb446eae5127a7bf6e76","instruction screen 0"," ","","","","","","","","","","","",""
"true","","preload","2","12224","0.0-2.0","sIZWIAwLIO","5ca4d7e75d545300110b7545","6617fad957f7c6a12ea16e26","6622cb446eae5127a7bf6e76","","","false","[]","[]","[]","","","","","","","",""
"","4426","html-keyboard-response","3","16651","0.0-3.0","sIZWIAwLIO","5ca4d7e75d545300110b7545","6617fad957f7c6a12ea16e26","6622cb446eae5127a7bf6e76","instruction screen 1"," ","","","","","","","","","","","",""
"","2193","html-keyboard-response","4","18850","0.0-4.0","sIZWIAwLIO","5ca4d7e75d545300110b7545","6617fad957f7c6a12ea16e26","6622cb446eae5127a7bf6e76","instruction screen 2","q","","","","","","","","","","","",""
"","1374","html-keyboard-response","5","20230","0.0-5.0","sIZWIAwLIO","5ca4d7e75d545300110b7545","6617fad957f7c6a12ea16e26","6622cb446eae5127a7bf6e76","instruction screen 3","p","","","","","","","","","","","",""
"","1241","html-keyboard-response","6","21476","0.0-6.0","sIZWIAwLIO","5ca4d7e75d545300110b7545","6617fad957f7c6a12ea16e26","6622cb446eae5127a7bf6e76","instruction screen 4"," ","","","","","","","","","","","",""
"","1311","html-keyboard-response","7","22792","0.0-7.0","sIZWIAwLIO","5ca4d7e75d545300110b7545","6617fad957f7c6a12ea16e26","6622cb446eae5127a7bf6e76","instruction screen 5"," ","","","","","","","","","","","",""
"","null","html-keyboard-response","8","23298","0.0-8.0","sIZWIAwLIO","5ca4d7e75d545300110b7545","6617fad957f7c6a12ea16e26","6622cb446eae5127a7bf6e76","fixation cross","null","","","","","","","","","","","",""
"","438","html-keyboard-response","9","23801","0.0-9.0-0.0","sIZWIAwLIO","5ca4d7e75d545300110b7545","6617fad957f7c6a12ea16e26","6622cb446eae5127a7bf6e76","fixation cross"," ","","","","","","","","","","","",""
"","null","html-keyboard-response","10","26806","0.0-9.0-1.0","sIZWIAwLIO","5ca4d7e75d545300110b7545","6617fad957f7c6a12ea16e26","6622cb446eae5127a7bf6e76","
        <div id=""grid-container"">
        <!-- Grid items will be dynamically added here -->
    </div>    ","null","","","","","","","","","","","",""
"","3000","html-keyboard-response","11","31808","0.0-9.0-2.0","sIZWIAwLIO","5ca4d7e75d545300110b7545","6617fad957f7c6a12ea16e26","6622cb446eae5127a7bf6e76","mask grid","null","","","","","Ontogenetic_Distractor_Threat_target","onmask","3000","q","4","Phylogenetic","false","practice"
"","771","html-keyboard-response","12","32783","0.0-9.0-3.0","sIZWIAwLIO","5ca4d7e75d545300110b7545","6617fad957f7c6a12ea16e26","6622cb446eae5127a7bf6e76","feedback screen"," ","","","","","","","","","","","",""
"","null","html-keyboard-response","13","33288","0.0-9.0-0.1","sIZWIAwLIO","5ca4d7e75d545300110b7545","6617fad957f7c6a12ea16e26","6622cb446eae5127a7bf6e76","fixation cross","null","","","","","","","","","","","",""
"","2401","html-keyboard-response","14","35690","0.0-9.0-1.1","sIZWIAwLIO","5ca4d7e75d545300110b7545","6617fad957f7c6a12ea16e26","6622cb446eae5127a7bf6e76","image grid"," ","","","","","Ontogenetic_Distractor_notarget","ongrid","2900"," ","3","Phylogenetic","true","practice"
"","null","html-keyboard-response","15","35843","0.0-9.0-2.1","sIZWIAwLIO","5ca4d7e75d545300110b7545","6617fad957f7c6a12ea16e26","6622cb446eae5127a7bf6e76","
    <div id=""grid-container"">
        <!-- Grid items will be dynamically added here -->
    </div>    ","null","","","","","","","","","","","",""
"","492","html-keyboard-response","16","36538","0.0-9.0-3.1","sIZWIAwLIO","5ca4d7e75d545300110b7545","6617fad957f7c6a12ea16e26","6622cb446eae5127a7bf6e76","feedback screen"," ","","","","","","","","","","","",""
"","null","html-keyboard-response","17","37044","0.0-9.0-0.2","sIZWIAwLIO","5ca4d7e75d545300110b7545","6617fad957f7c6a12ea16e26","6622cb446eae5127a7bf6e76","fixation cross","null","","","","","","","","","","","",""
"","2297","html-keyboard-response","18","39341","0.0-9.0-1.2","sIZWIAwLIO","5ca4d7e75d545300110b7545","6617fad957f7c6a12ea16e26","6622cb446eae5127a7bf6e76","image grid"," ","","","","","Ontogenetic_Distractor_Nonthreat_target","ongrid","2800","p","1","Phylogenetic","false","practice"
"","null","html-keyboard-response","19","39494","0.0-9.0-2.2","sIZWIAwLIO","5ca4d7e75d545300110b7545","6617fad957f7c6a12ea16e26","6622cb446eae5127a7bf6e76","
    <div id=""grid-container"">
        <!-- Grid items will be dynamically added here -->
    </div>    ","null","","","","","","","","","","","",""
"","618","html-keyboard-response","20","40315","0.0-9.0-3.2","sIZWIAwLIO","5ca4d7e75d545300110b7545","6617fad957f7c6a12ea16e26","6622cb446eae5127a7bf6e76","feedback screen","r","","","","","","","","","","","",""
"","null","html-keyboard-response","21","40820","0.0-9.0-0.3","sIZWIAwLIO","5ca4d7e75d545300110b7545","6617fad957f7c6a12ea16e26","6622cb446eae5127a7bf6e76","fixation cross","null","","","","","","","","","","","",""
"","1332","html-keyboard-response","22","42153","0.0-9.0-1.3","sIZWIAwLIO","5ca4d7e75d545300110b7545","6617fad957f7c6a12ea16e26","6622cb446eae5127a7bf6e76","image grid","p","","","","","Phylogenetic_Distractor_Threat_target","ongrid","2700","q","4","Phylogenetic","false","practice"
"","null","html-keyboard-response","23","42304","0.0-9.0-2.3","sIZWIAwLIO","5ca4d7e75d545300110b7545","6617fad957f7c6a12ea16e26","6622cb446eae5127a7bf6e76","
    <div id=""grid-container"">
        <!-- Grid items will be dynamically added here -->
    </div>    ","null","","","","","","","","","","","",""
"","585","html-keyboard-response","24","43092","0.0-9.0-3.3","sIZWIAwLIO","5ca4d7e75d545300110b7545","6617fad957f7c6a12ea16e26","6622cb446eae5127a7bf6e76","feedback screen"," ","","","","","","","","","","","",""
"","null","html-keyboard-response","25","43597","0.0-9.0-0.4","sIZWIAwLIO","5ca4d7e75d545300110b7545","6617fad957f7c6a12ea16e26","6622cb446eae5127a7bf6e76","fixation cross","null","","","","","","","","","","","",""
"","34","html-keyboard-response","26","43632","0.0-9.0-1.4","sIZWIAwLIO","5ca4d7e75d545300110b7545","6617fad957f7c6a12ea16e26","6622cb446eae5127a7bf6e76","image grid"," ","","","","","Phylogenetic_Distractor_Threat_target","ongrid","2600","q","8","Phylogenetic","false","practice"
"","null","html-keyboard-response","27","43785","0.0-9.0-2.4","sIZWIAwLIO","5ca4d7e75d545300110b7545","6617fad957f7c6a12ea16e26","6622cb446eae5127a7bf6e76","
    <div id=""grid-container"">
        <!-- Grid items will be dynamically added here -->
    </div>    ","null","","","","","","","","","","","",""
"","510","html-keyboard-response","28","44498","0.0-9.0-3.4","sIZWIAwLIO","5ca4d7e75d545300110b7545","6617fad957f7c6a12ea16e26","6622cb446eae5127a7bf6e76","feedback screen"," ","","","","","","","","","","","",""
"","null","html-keyboard-response","29","45003","0.0-9.0-0.5","sIZWIAwLIO","5ca4d7e75d545300110b7545","6617fad957f7c6a12ea16e26","6622cb446eae5127a7bf6e76","fixation cross","null","","","","","","","","","","","",""
"","null","html-keyboard-response","30","47506","0.0-9.0-1.5","sIZWIAwLIO","5ca4d7e75d545300110b7545","6617fad957f7c6a12ea16e26","6622cb446eae5127a7bf6e76","
        <div id=""grid-container"">
        <!-- Grid items will be dynamically added here -->
    </div>    ","null","","","","","","","","","","","",""
"","4924","html-keyboard-response","31","49931","0.0-9.0-2.5","sIZWIAwLIO","5ca4d7e75d545300110b7545","6617fad957f7c6a12ea16e26","6622cb446eae5127a7bf6e76","mask grid"," ","","","","","Phylogenetic_Distractor_notarget","onmask","2500"," ","8","Phylogenetic","true","practice"
"","163","html-keyboard-response","32","50299","0.0-9.0-3.5","sIZWIAwLIO","5ca4d7e75d545300110b7545","6617fad957f7c6a12ea16e26","6622cb446eae5127a7bf6e76","feedback screen"," ","","","","","","","","","","","",""
"","null","html-keyboard-response","33","50805","0.0-9.0-0.6","sIZWIAwLIO","5ca4d7e75d545300110b7545","6617fad957f7c6a12ea16e26","6622cb446eae5127a7bf6e76","fixation cross","null","","","","","","","","","","","",""
"","1888","html-keyboard-response","34","52693","0.0-9.0-1.6","sIZWIAwLIO","5ca4d7e75d545300110b7545","6617fad957f7c6a12ea16e26","6622cb446eae5127a7bf6e76","image grid"," ","","","","","Ontogenetic_Distractor_Threat_target","ongrid","2400","q","4","Phylogenetic","false","practice"
"","null","html-keyboard-response","35","52845","0.0-9.0-2.6","sIZWIAwLIO","5ca4d7e75d545300110b7545","6617fad957f7c6a12ea16e26","6622cb446eae5127a7bf6e76","
    <div id=""grid-container"">
        <!-- Grid items will be dynamically added here -->
    </div>    ","null","","","","","","","","","","","",""
"","null","html-keyboard-response","36","54051","0.0-9.0-3.6","sIZWIAwLIO","5ca4d7e75d545300110b7545","6617fad957f7c6a12ea16e26","6622cb446eae5127a7bf6e76","feedback screen","null","","","","","","","","","","","",""
"","217","html-keyboard-response","37","54556","0.0-9.0-0.7","sIZWIAwLIO","5ca4d7e75d545300110b7545","6617fad957f7c6a12ea16e26","6622cb446eae5127a7bf6e76","fixation cross"," ","","","","","","","","","","","",""
"","797","html-keyboard-response","38","55354","0.0-9.0-1.7","sIZWIAwLIO","5ca4d7e75d545300110b7545","6617fad957f7c6a12ea16e26","6622cb446eae5127a7bf6e76","image grid"," ","","","","","Ontogenetic_Distractor_Threat_target","ongrid","2300","q","6","Phylogenetic","false","practice"
"","null","html-keyboard-response","39","55509","0.0-9.0-2.7","sIZWIAwLIO","5ca4d7e75d545300110b7545","6617fad957f7c6a12ea16e26","6622cb446eae5127a7bf6e76","
    <div id=""grid-container"">
        <!-- Grid items will be dynamically added here -->
    </div>    ","null","","","","","","","","","","","",""
"","152","html-keyboard-response","40","55862","0.0-9.0-3.7","sIZWIAwLIO","5ca4d7e75d545300110b7545","6617fad957f7c6a12ea16e26","6622cb446eae5127a7bf6e76","feedback screen"," ","","","","","","","","","","","",""
"","null","html-keyboard-response","41","56367","0.0-9.0-0.8","sIZWIAwLIO","5ca4d7e75d545300110b7545","6617fad957f7c6a12ea16e26","6622cb446eae5127a7bf6e76","fixation cross","null","","","","","","","","","","","",""
"","null","html-keyboard-response","42","58569","0.0-9.0-1.8","sIZWIAwLIO","5ca4d7e75d545300110b7545","6617fad957f7c6a12ea16e26","6622cb446eae5127a7bf6e76","
        <div id=""grid-container"">
        <!-- Grid items will be dynamically added here -->
    </div>    ","null","","","","","","","","","","","",""
"","2200","html-keyboard-response","43","63571","0.0-9.0-2.8","sIZWIAwLIO","5ca4d7e75d545300110b7545","6617fad957f7c6a12ea16e26","6622cb446eae5127a7bf6e76","mask grid","null","","","","","Ontogenetic_Distractor_Threat_target","onmask","2200","q","5","Phylogenetic","false","practice"
"","null","html-keyboard-response","44","64774","0.0-9.0-3.8","sIZWIAwLIO","5ca4d7e75d545300110b7545","6617fad957f7c6a12ea16e26","6622cb446eae5127a7bf6e76","feedback screen","null","","","","","","","","","","","",""
"","null","html-keyboard-response","45","65282","0.0-9.0-0.9","sIZWIAwLIO","5ca4d7e75d545300110b7545","6617fad957f7c6a12ea16e26","6622cb446eae5127a7bf6e76","fixation cross","null","","","","","","","","","","","",""
"","null","html-keyboard-response","46","67386","0.0-9.0-1.9","sIZWIAwLIO","5ca4d7e75d545300110b7545","6617fad957f7c6a12ea16e26","6622cb446eae5127a7bf6e76","
        <div id=""grid-container"">
        <!-- Grid items will be dynamically added here -->
    </div>    ","null","","","","","","","","","","","",""
"","2100","html-keyboard-response","47","72388","0.0-9.0-2.9","sIZWIAwLIO","5ca4d7e75d545300110b7545","6617fad957f7c6a12ea16e26","6622cb446eae5127a7bf6e76","mask grid","null","","","","","Phylogenetic_Distractor_Threat_target","onmask","2100","q","4","Phylogenetic","false","practice"
"","null","html-keyboard-response","48","73595","0.0-9.0-3.9","sIZWIAwLIO","5ca4d7e75d545300110b7545","6617fad957f7c6a12ea16e26","6622cb446eae5127a7bf6e76","feedback screen","null","","","","","","","","","","","",""
"","null","html-keyboard-response","49","74102","0.0-9.0-0.10","sIZWIAwLIO","5ca4d7e75d545300110b7545","6617fad957f7c6a12ea16e26","6622cb446eae5127a7bf6e76","fixation cross","null","","","","","","","","","","","",""
"","null","html-keyboard-response","50","76105","0.0-9.0-1.10","sIZWIAwLIO","5ca4d7e75d545300110b7545","6617fad957f7c6a12ea16e26","6622cb446eae5127a7bf6e76","
        <div id=""grid-container"">
        <!-- Grid items will be dynamically added here -->
    </div>    ","null","","","","","","","","","","","",""
"","2000","html-keyboard-response","51","81107","0.0-9.0-2.10","sIZWIAwLIO","5ca4d7e75d545300110b7545","6617fad957f7c6a12ea16e26","6622cb446eae5127a7bf6e76","mask grid","null","","","","","Ontogenetic_Distractor_Nonthreat_target","onmask","2000","p","7","Phylogenetic","false","practice"
"","null","html-keyboard-response","52","82312","0.0-9.0-3.10","sIZWIAwLIO","5ca4d7e75d545300110b7545","6617fad957f7c6a12ea16e26","6622cb446eae5127a7bf6e76","feedback screen","null","","","","","","","","","","","",""
"","null","html-keyboard-response","53","82821","0.0-9.0-0.11","sIZWIAwLIO","5ca4d7e75d545300110b7545","6617fad957f7c6a12ea16e26","6622cb446eae5127a7bf6e76","fixation cross","null","","","","","","","","","","","",""
"","null","html-keyboard-response","54","84724","0.0-9.0-1.11","sIZWIAwLIO","5ca4d7e75d545300110b7545","6617fad957f7c6a12ea16e26","6622cb446eae5127a7bf6e76","
        <div id=""grid-container"">
        <!-- Grid items will be dynamically added here -->
    </div>    ","null","","","","","","","","","","","",""
"","1900","html-keyboard-response","55","89726","0.0-9.0-2.11","sIZWIAwLIO","5ca4d7e75d545300110b7545","6617fad957f7c6a12ea16e26","6622cb446eae5127a7bf6e76","mask grid","null","","","","","Phylogenetic_Distractor_Nonthreat_target","onmask","1900","p","6","Phylogenetic","false","practice"
"","786","html-keyboard-response","56","90716","0.0-9.0-3.11","sIZWIAwLIO","5ca4d7e75d545300110b7545","6617fad957f7c6a12ea16e26","6622cb446eae5127a7bf6e76","feedback screen"," ","","","","","","","","","","","",""
"","null","html-keyboard-response","57","91222","0.0-9.0-0.12","sIZWIAwLIO","5ca4d7e75d545300110b7545","6617fad957f7c6a12ea16e26","6622cb446eae5127a7bf6e76","fixation cross","null","","","","","","","","","","","",""
"","1758","html-keyboard-response","58","92980","0.0-9.0-1.12","sIZWIAwLIO","5ca4d7e75d545300110b7545","6617fad957f7c6a12ea16e26","6622cb446eae5127a7bf6e76","image grid"," ","","","","","Ontogenetic_Distractor_Nonthreat_target","ongrid","1800","p","1","Phylogenetic","false","practice"
"","null","html-keyboard-response","59","93133","0.0-9.0-2.12","sIZWIAwLIO","5ca4d7e75d545300110b7545","6617fad957f7c6a12ea16e26","6622cb446eae5127a7bf6e76","
    <div id=""grid-container"">
        <!-- Grid items will be dynamically added here -->
    </div>    ","null","","","","","","","","","","","",""
"","null","html-keyboard-response","60","94337","0.0-9.0-3.12","sIZWIAwLIO","5ca4d7e75d545300110b7545","6617fad957f7c6a12ea16e26","6622cb446eae5127a7bf6e76","feedback screen","null","","","","","","","","","","","",""
"","null","html-keyboard-response","61","94844","0.0-9.0-0.13","sIZWIAwLIO","5ca4d7e75d545300110b7545","6617fad957f7c6a12ea16e26","6622cb446eae5127a7bf6e76","fixation cross","null","","","","","","","","","","","",""
"","1511","html-keyboard-response","62","96356","0.0-9.0-1.13","sIZWIAwLIO","5ca4d7e75d545300110b7545","6617fad957f7c6a12ea16e26","6622cb446eae5127a7bf6e76","image grid"," ","","","","","Phylogenetic_Distractor_Nonthreat_target","ongrid","1700","p","8","Phylogenetic","false","practice"
"","null","html-keyboard-response","63","96510","0.0-9.0-2.13","sIZWIAwLIO","5ca4d7e75d545300110b7545","6617fad957f7c6a12ea16e26","6622cb446eae5127a7bf6e76","
    <div id=""grid-container"">
        <!-- Grid items will be dynamically added here -->
    </div>    ","null","","","","","","","","","","","",""
"","657","html-keyboard-response","64","97369","0.0-9.0-3.13","sIZWIAwLIO","5ca4d7e75d545300110b7545","6617fad957f7c6a12ea16e26","6622cb446eae5127a7bf6e76","feedback screen"," ","","","","","","","","","","","",""
"","null","html-keyboard-response","65","97877","0.0-9.0-0.14","sIZWIAwLIO","5ca4d7e75d545300110b7545","6617fad957f7c6a12ea16e26","6622cb446eae5127a7bf6e76","fixation cross","null","","","","","","","","","","","",""
"","null","html-keyboard-response","66","99479","0.0-9.0-1.14","sIZWIAwLIO","5ca4d7e75d545300110b7545","6617fad957f7c6a12ea16e26","6622cb446eae5127a7bf6e76","
        <div id=""grid-container"">
        <!-- Grid items will be dynamically added here -->
    </div>    ","null","","","","","","","","","","","",""
"","2128","html-keyboard-response","67","100008","0.0-9.0-2.14","sIZWIAwLIO","5ca4d7e75d545300110b7545","6617fad957f7c6a12ea16e26","6622cb446eae5127a7bf6e76","mask grid"," ","","","","","Phylogenetic_Distractor_notarget","onmask","1600"," ","2","Phylogenetic","true","practice"
"","null","html-keyboard-response","68","101213","0.0-9.0-3.14","sIZWIAwLIO","5ca4d7e75d545300110b7545","6617fad957f7c6a12ea16e26","6622cb446eae5127a7bf6e76","feedback screen","null","","","","","","","","","","","",""
"","null","html-keyboard-response","69","101722","0.0-9.0-0.15","sIZWIAwLIO","5ca4d7e75d545300110b7545","6617fad957f7c6a12ea16e26","6622cb446eae5127a7bf6e76","fixation cross","null","","","","","","","","","","","",""
"","null","html-keyboard-response","70","103224","0.0-9.0-1.15","sIZWIAwLIO","5ca4d7e75d545300110b7545","6617fad957f7c6a12ea16e26","6622cb446eae5127a7bf6e76","
        <div id=""grid-container"">
        <!-- Grid items will be dynamically added here -->
    </div>    ","null","","","","","","","","","","","",""
"","3312","html-keyboard-response","71","105037","0.0-9.0-2.15","sIZWIAwLIO","5ca4d7e75d545300110b7545","6617fad957f7c6a12ea16e26","6622cb446eae5127a7bf6e76","mask grid"," ","","","","","Phylogenetic_Distractor_Nonthreat_target","onmask","1500","p","5","Phylogenetic","false","practice"
"","null","html-keyboard-response","72","106246","0.0-9.0-3.15","sIZWIAwLIO","5ca4d7e75d545300110b7545","6617fad957f7c6a12ea16e26","6622cb446eae5127a7bf6e76","feedback screen","null","","","","","","","","","","","",""
"","null","html-keyboard-response","73","106757","0.0-9.0-0.16","sIZWIAwLIO","5ca4d7e75d545300110b7545","6617fad957f7c6a12ea16e26","6622cb446eae5127a7bf6e76","fixation cross","null","","","","","","","","","","","",""
"","null","html-keyboard-response","74","108160","0.0-9.0-1.16","sIZWIAwLIO","5ca4d7e75d545300110b7545","6617fad957f7c6a12ea16e26","6622cb446eae5127a7bf6e76","
        <div id=""grid-container"">
        <!-- Grid items will be dynamically added here -->
    </div>    ","null","","","","","","","","","","","",""
"","1958","html-keyboard-response","75","108720","0.0-9.0-2.16","sIZWIAwLIO","5ca4d7e75d545300110b7545","6617fad957f7c6a12ea16e26","6622cb446eae5127a7bf6e76","mask grid"," ","","","","","Ontogenetic_Distractor_Nonthreat_target","onmask","1400","p","2","Phylogenetic","false","practice"
"","null","html-keyboard-response","76","109927","0.0-9.0-3.16","sIZWIAwLIO","5ca4d7e75d545300110b7545","6617fad957f7c6a12ea16e26","6622cb446eae5127a7bf6e76","feedback screen","null","","","","","","","","","","","",""
"","null","html-keyboard-response","77","110435","0.0-9.0-0.17","sIZWIAwLIO","5ca4d7e75d545300110b7545","6617fad957f7c6a12ea16e26","6622cb446eae5127a7bf6e76","fixation cross","null","","","","","","","","","","","",""
"","1178","html-keyboard-response","78","111613","0.0-9.0-1.17","sIZWIAwLIO","5ca4d7e75d545300110b7545","6617fad957f7c6a12ea16e26","6622cb446eae5127a7bf6e76","image grid"," ","","","","","Phylogenetic_Distractor_Nonthreat_target","ongrid","1300","p","4","Phylogenetic","false","practice"
"","null","html-keyboard-response","79","111766","0.0-9.0-2.17","sIZWIAwLIO","5ca4d7e75d545300110b7545","6617fad957f7c6a12ea16e26","6622cb446eae5127a7bf6e76","
    <div id=""grid-container"">
        <!-- Grid items will be dynamically added here -->
    </div>    ","null","","","","","","","","","","","",""
"","null","html-keyboard-response","80","112970","0.0-9.0-3.17","sIZWIAwLIO","5ca4d7e75d545300110b7545","6617fad957f7c6a12ea16e26","6622cb446eae5127a7bf6e76","feedback screen","null","","","","","","","","","","","",""
"","null","html-keyboard-response","81","113477","0.0-9.0-0.18","sIZWIAwLIO","5ca4d7e75d545300110b7545","6617fad957f7c6a12ea16e26","6622cb446eae5127a7bf6e76","fixation cross","null","","","","","","","","","","","",""
"","null","html-keyboard-response","82","114680","0.0-9.0-1.18","sIZWIAwLIO","5ca4d7e75d545300110b7545","6617fad957f7c6a12ea16e26","6622cb446eae5127a7bf6e76","
        <div id=""grid-container"">
        <!-- Grid items will be dynamically added here -->
    </div>    ","null","","","","","","","","","","","",""
"","1732","html-keyboard-response","83","115213","0.0-9.0-2.18","sIZWIAwLIO","5ca4d7e75d545300110b7545","6617fad957f7c6a12ea16e26","6622cb446eae5127a7bf6e76","mask grid"," ","","","","","Ontogenetic_Distractor_notarget","onmask","1200"," ","2","Phylogenetic","true","practice"
"","75","html-keyboard-response","84","115491","0.0-9.0-3.18","sIZWIAwLIO","5ca4d7e75d545300110b7545","6617fad957f7c6a12ea16e26","6622cb446eae5127a7bf6e76","feedback screen"," ","","","","","","","","","","","",""
"","352","html-keyboard-response","85","115998","0.0-9.0-0.19","sIZWIAwLIO","5ca4d7e75d545300110b7545","6617fad957f7c6a12ea16e26","6622cb446eae5127a7bf6e76","fixation cross"," ","","","","","","","","","","","",""
"","494","html-keyboard-response","86","116493","0.0-9.0-1.19","sIZWIAwLIO","5ca4d7e75d545300110b7545","6617fad957f7c6a12ea16e26","6622cb446eae5127a7bf6e76","image grid"," ","","","","","Phylogenetic_Distractor_Threat_target","ongrid","1100","q","6","Phylogenetic","false","practice"
"","null","html-keyboard-response","87","116645","0.0-9.0-2.19","sIZWIAwLIO","5ca4d7e75d545300110b7545","6617fad957f7c6a12ea16e26","6622cb446eae5127a7bf6e76","
    <div id=""grid-container"">
        <!-- Grid items will be dynamically added here -->
    </div>    ","null","","","","","","","","","","","",""
"","69","html-keyboard-response","88","116917","0.0-9.0-3.19","sIZWIAwLIO","5ca4d7e75d545300110b7545","6617fad957f7c6a12ea16e26","6622cb446eae5127a7bf6e76","feedback screen"," ","","","","","","","","","","","",""
"","58675","html-keyboard-response","89","175648","0.0-10.0","sIZWIAwLIO","5ca4d7e75d545300110b7545","6617fad957f7c6a12ea16e26","6622cb446eae5127a7bf6e76","pre-experimental_briefing"," ","","","","","","","","","","","",""
"","null","html-keyboard-response","90","178200","0.0-11.0-0.0","sIZWIAwLIO","5ca4d7e75d545300110b7545","6617fad957f7c6a12ea16e26","6622cb446eae5127a7bf6e76","fixation cross","null","","","","","","","","","","","",""
"","104","html-keyboard-response","91","178306","0.0-11.0-1.0","sIZWIAwLIO","5ca4d7e75d545300110b7545","6617fad957f7c6a12ea16e26","6622cb446eae5127a7bf6e76","image grid"," ","","","","","Phylogenetic_Distractor_Nonthreat_target","ongrid","2500","p","8","Phylogenetic","false","experimental"
"","null","html-keyboard-response","92","178457","0.0-11.0-2.0","sIZWIAwLIO","5ca4d7e75d545300110b7545","6617fad957f7c6a12ea16e26","6622cb446eae5127a7bf6e76","
    <div id=""grid-container"">
        <!-- Grid items will be dynamically added here -->
    </div>    ","null","","","","","","","","","","","",""
"","null","html-keyboard-response","93","179159","0.0-11.0-0.1","sIZWIAwLIO","5ca4d7e75d545300110b7545","6617fad957f7c6a12ea16e26","6622cb446eae5127a7bf6e76","fixation cross","null","","","","","","","","","","","",""
"","63","html-keyboard-response","94","179223","0.0-11.0-1.1","sIZWIAwLIO","5ca4d7e75d545300110b7545","6617fad957f7c6a12ea16e26","6622cb446eae5127a7bf6e76","image grid"," ","","","","","Phylogenetic_Distractor_Nonthreat_target","ongrid","2500","p","4","Phylogenetic","false","experimental"
"","null","html-keyboard-response","95","179375","0.0-11.0-2.1","sIZWIAwLIO","5ca4d7e75d545300110b7545","6617fad957f7c6a12ea16e26","6622cb446eae5127a7bf6e76","
    <div id=""grid-container"">
        <!-- Grid items will be dynamically added here -->
    </div>    ","null","","","","","","","","","","","",""
"","null","html-keyboard-response","96","180078","0.0-11.0-0.2","sIZWIAwLIO","5ca4d7e75d545300110b7545","6617fad957f7c6a12ea16e26","6622cb446eae5127a7bf6e76","fixation cross","null","","","","","","","","","","","",""
"","2430","html-keyboard-response","97","182509","0.0-11.0-1.2","sIZWIAwLIO","5ca4d7e75d545300110b7545","6617fad957f7c6a12ea16e26","6622cb446eae5127a7bf6e76","image grid"," ","","","","","Phylogenetic_Distractor_Threat_target","ongrid","2500","q","7","Phylogenetic","false","experimental"
"","null","html-keyboard-response","98","182662","0.0-11.0-2.2","sIZWIAwLIO","5ca4d7e75d545300110b7545","6617fad957f7c6a12ea16e26","6622cb446eae5127a7bf6e76","
    <div id=""grid-container"">
        <!-- Grid items will be dynamically added here -->
    </div>    ","null","","","","","","","","","","","",""
"","null","html-keyboard-response","99","183365","0.0-11.0-0.3","sIZWIAwLIO","5ca4d7e75d545300110b7545","6617fad957f7c6a12ea16e26","6622cb446eae5127a7bf6e76","fixation cross","null","","","","","","","","","","","",""
"","null","html-keyboard-response","100","185867","0.0-11.0-1.3","sIZWIAwLIO","5ca4d7e75d545300110b7545","6617fad957f7c6a12ea16e26","6622cb446eae5127a7bf6e76","
        <div id=""grid-container"">
        <!-- Grid items will be dynamically added here -->
    </div>    ","null","","","","","","","","","","","",""
"","4644","html-keyboard-response","101","188011","0.0-11.0-2.3","sIZWIAwLIO","5ca4d7e75d545300110b7545","6617fad957f7c6a12ea16e26","6622cb446eae5127a7bf6e76","mask grid"," ","","","","","Phylogenetic_Distractor_Nonthreat_target","onmask","2500","p","5","Phylogenetic","false","experimental"
"","null","html-keyboard-response","102","188715","0.0-11.0-0.4","sIZWIAwLIO","5ca4d7e75d545300110b7545","6617fad957f7c6a12ea16e26","6622cb446eae5127a7bf6e76","fixation cross","null","","","","","","","","","","","",""
"","null","html-keyboard-response","103","191216","0.0-11.0-1.4","sIZWIAwLIO","5ca4d7e75d545300110b7545","6617fad957f7c6a12ea16e26","6622cb446eae5127a7bf6e76","
        <div id=""grid-container"">
        <!-- Grid items will be dynamically added here -->
    </div>    ","null","","","","","","","","","","","",""
"","2500","html-keyboard-response","104","196217","0.0-11.0-2.4","sIZWIAwLIO","5ca4d7e75d545300110b7545","6617fad957f7c6a12ea16e26","6622cb446eae5127a7bf6e76","mask grid","null","","","","","Phylogenetic_Distractor_Threat_target","onmask","2500","q","5","Phylogenetic","false","experimental"
"","null","html-keyboard-response","105","196920","0.0-11.0-0.5","sIZWIAwLIO","5ca4d7e75d545300110b7545","6617fad957f7c6a12ea16e26","6622cb446eae5127a7bf6e76","fixation cross","null","","","","","","","","","","","",""
"","1118","html-keyboard-response","106","198039","0.0-11.0-1.5","sIZWIAwLIO","5ca4d7e75d545300110b7545","6617fad957f7c6a12ea16e26","6622cb446eae5127a7bf6e76","image grid"," ","","","","","Phylogenetic_Distractor_Threat_target","ongrid","2500","q","8","Phylogenetic","false","experimental"
"","null","html-keyboard-response","107","198194","0.0-11.0-2.5","sIZWIAwLIO","5ca4d7e75d545300110b7545","6617fad957f7c6a12ea16e26","6622cb446eae5127a7bf6e76","
    <div id=""grid-container"">
        <!-- Grid items will be dynamically added here -->
    </div>    ","null","","","","","","","","","","","",""
"","null","html-keyboard-response","108","198897","0.0-11.0-0.6","sIZWIAwLIO","5ca4d7e75d545300110b7545","6617fad957f7c6a12ea16e26","6622cb446eae5127a7bf6e76","fixation cross","null","","","","","","","","","","","",""
"","949","html-keyboard-response","109","199847","0.0-11.0-1.6","sIZWIAwLIO","5ca4d7e75d545300110b7545","6617fad957f7c6a12ea16e26","6622cb446eae5127a7bf6e76","image grid"," ","","","","","Phylogenetic_Distractor_Nonthreat_target","ongrid","2500","p","3","Phylogenetic","false","experimental"
"","null","html-keyboard-response","110","199999","0.0-11.0-2.6","sIZWIAwLIO","5ca4d7e75d545300110b7545","6617fad957f7c6a12ea16e26","6622cb446eae5127a7bf6e76","
    <div id=""grid-container"">
        <!-- Grid items will be dynamically added here -->
    </div>    ","null","","","","","","","","","","","",""
"","null","html-keyboard-response","111","200703","0.0-11.0-0.7","sIZWIAwLIO","5ca4d7e75d545300110b7545","6617fad957f7c6a12ea16e26","6622cb446eae5127a7bf6e76","fixation cross","null","","","","","","","","","","","",""
"","null","html-keyboard-response","112","203205","0.0-11.0-1.7","sIZWIAwLIO","5ca4d7e75d545300110b7545","6617fad957f7c6a12ea16e26","6622cb446eae5127a7bf6e76","
        <div id=""grid-container"">
        <!-- Grid items will be dynamically added here -->
    </div>    ","null","","","","","","","","","","","",""
"","2500","html-keyboard-response","113","208207","0.0-11.0-2.7","sIZWIAwLIO","5ca4d7e75d545300110b7545","6617fad957f7c6a12ea16e26","6622cb446eae5127a7bf6e76","mask grid","null","","","","","Phylogenetic_Distractor_Nonthreat_target","onmask","2500","p","7","Phylogenetic","false","experimental"
"","16","html-keyboard-response","114","208909","0.0-11.0-0.8","sIZWIAwLIO","5ca4d7e75d545300110b7545","6617fad957f7c6a12ea16e26","6622cb446eae5127a7bf6e76","fixation cross"," ","","","","","","","","","","","",""
"","1118","html-keyboard-response","115","210028","0.0-11.0-1.8","sIZWIAwLIO","5ca4d7e75d545300110b7545","6617fad957f7c6a12ea16e26","6622cb446eae5127a7bf6e76","image grid"," ","","","","","Phylogenetic_Distractor_Nonthreat_target","ongrid","2500","p","8","Phylogenetic","false","experimental"
"","null","html-keyboard-response","116","210179","0.0-11.0-2.8","sIZWIAwLIO","5ca4d7e75d545300110b7545","6617fad957f7c6a12ea16e26","6622cb446eae5127a7bf6e76","
    <div id=""grid-container"">
        <!-- Grid items will be dynamically added here -->
    </div>    ","null","","","","","","","","","","","",""
"","null","html-keyboard-response","117","210882","0.0-11.0-0.9","sIZWIAwLIO","5ca4d7e75d545300110b7545","6617fad957f7c6a12ea16e26","6622cb446eae5127a7bf6e76","fixation cross","null","","","","","","","","","","","",""
"","null","html-keyboard-response","118","213384","0.0-11.0-1.9","sIZWIAwLIO","5ca4d7e75d545300110b7545","6617fad957f7c6a12ea16e26","6622cb446eae5127a7bf6e76","
        <div id=""grid-container"">
        <!-- Grid items will be dynamically added here -->
    </div>    ","null","","","","","","","","","","","",""
"","3754","html-keyboard-response","119","214638","0.0-11.0-2.9","sIZWIAwLIO","5ca4d7e75d545300110b7545","6617fad957f7c6a12ea16e26","6622cb446eae5127a7bf6e76","mask grid"," ","","","","","Phylogenetic_Distractor_Threat_target","onmask","2500","q","1","Phylogenetic","false","experimental"
"","110","html-keyboard-response","120","215343","0.0-11.0-0.10","sIZWIAwLIO","5ca4d7e75d545300110b7545","6617fad957f7c6a12ea16e26","6622cb446eae5127a7bf6e76","fixation cross"," ","","","","","","","","","","","",""
"","null","html-keyboard-response","121","217846","0.0-11.0-1.10","sIZWIAwLIO","5ca4d7e75d545300110b7545","6617fad957f7c6a12ea16e26","6622cb446eae5127a7bf6e76","
        <div id=""grid-container"">
        <!-- Grid items will be dynamically added here -->
    </div>    ","null","","","","","","","","","","","",""
"","2500","html-keyboard-response","122","222851","0.0-11.0-2.10","sIZWIAwLIO","5ca4d7e75d545300110b7545","6617fad957f7c6a12ea16e26","6622cb446eae5127a7bf6e76","mask grid","null","","","","","Phylogenetic_Distractor_notarget","onmask","2500"," ","1","Phylogenetic","false","experimental"
"","null","html-keyboard-response","123","223559","0.0-11.0-0.11","sIZWIAwLIO","5ca4d7e75d545300110b7545","6617fad957f7c6a12ea16e26","6622cb446eae5127a7bf6e76","fixation cross","null","","","","","","","","","","","",""
"","null","html-keyboard-response","124","226064","0.0-11.0-1.11","sIZWIAwLIO","5ca4d7e75d545300110b7545","6617fad957f7c6a12ea16e26","6622cb446eae5127a7bf6e76","
        <div id=""grid-container"">
        <!-- Grid items will be dynamically added here -->
    </div>    ","null","","","","","","","","","","","",""
"","6686","html-keyboard-response","125","230251","0.0-11.0-2.11","sIZWIAwLIO","5ca4d7e75d545300110b7545","6617fad957f7c6a12ea16e26","6622cb446eae5127a7bf6e76","mask grid"," ","","","","","Phylogenetic_Distractor_Threat_target","onmask","2500","q","6","Phylogenetic","false","experimental"
"","null","html-keyboard-response","126","230958","0.0-11.0-0.12","sIZWIAwLIO","5ca4d7e75d545300110b7545","6617fad957f7c6a12ea16e26","6622cb446eae5127a7bf6e76","fixation cross","null","","","","","","","","","","","",""
"","null","html-keyboard-response","127","233461","0.0-11.0-1.12","sIZWIAwLIO","5ca4d7e75d545300110b7545","6617fad957f7c6a12ea16e26","6622cb446eae5127a7bf6e76","
        <div id=""grid-container"">
        <!-- Grid items will be dynamically added here -->
    </div>    ","null","","","","","","","","","","","",""
"","2500","html-keyboard-response","128","238464","0.0-11.0-2.12","sIZWIAwLIO","5ca4d7e75d545300110b7545","6617fad957f7c6a12ea16e26","6622cb446eae5127a7bf6e76","mask grid","null","","","","","Phylogenetic_Distractor_Nonthreat_target","onmask","2500","p","4","Phylogenetic","false","experimental"
"","null","html-keyboard-response","129","239172","0.0-11.0-0.13","sIZWIAwLIO","5ca4d7e75d545300110b7545","6617fad957f7c6a12ea16e26","6622cb446eae5127a7bf6e76","fixation cross","null","","","","","","","","","","","",""
"","2365","html-keyboard-response","130","241538","0.0-11.0-1.13","sIZWIAwLIO","5ca4d7e75d545300110b7545","6617fad957f7c6a12ea16e26","6622cb446eae5127a7bf6e76","image grid"," ","","","","","Phylogenetic_Distractor_Nonthreat_target","ongrid","2500","p","5","Phylogenetic","false","experimental"
"","null","html-keyboard-response","131","241690","0.0-11.0-2.13","sIZWIAwLIO","5ca4d7e75d545300110b7545","6617fad957f7c6a12ea16e26","6622cb446eae5127a7bf6e76","
    <div id=""grid-container"">
        <!-- Grid items will be dynamically added here -->
    </div>    ","null","","","","","","","","","","","",""
"","null","html-keyboard-response","132","242395","0.0-11.0-0.14","sIZWIAwLIO","5ca4d7e75d545300110b7545","6617fad957f7c6a12ea16e26","6622cb446eae5127a7bf6e76","fixation cross","null","","","","","","","","","","","",""
"","2116","html-keyboard-response","133","244513","0.0-11.0-1.14","sIZWIAwLIO","5ca4d7e75d545300110b7545","6617fad957f7c6a12ea16e26","6622cb446eae5127a7bf6e76","image grid","p","","","","","Phylogenetic_Distractor_Threat_target","ongrid","2500","q","9","Phylogenetic","false","experimental"
"","null","html-keyboard-response","134","244666","0.0-11.0-2.14","sIZWIAwLIO","5ca4d7e75d545300110b7545","6617fad957f7c6a12ea16e26","6622cb446eae5127a7bf6e76","
    <div id=""grid-container"">
        <!-- Grid items will be dynamically added here -->
    </div>    ","null","","","","","","","","","","","",""
"","null","html-keyboard-response","135","245373","0.0-11.0-0.15","sIZWIAwLIO","5ca4d7e75d545300110b7545","6617fad957f7c6a12ea16e26","6622cb446eae5127a7bf6e76","fixation cross","null","","","","","","","","","","","",""
"","null","html-keyboard-response","136","247878","0.0-11.0-1.15","sIZWIAwLIO","5ca4d7e75d545300110b7545","6617fad957f7c6a12ea16e26","6622cb446eae5127a7bf6e76","
        <div id=""grid-container"">
        <!-- Grid items will be dynamically added here -->
    </div>    ","null","","","","","","","","","","","",""
"","2623","html-keyboard-response","137","248001","0.0-11.0-2.15","sIZWIAwLIO","5ca4d7e75d545300110b7545","6617fad957f7c6a12ea16e26","6622cb446eae5127a7bf6e76","mask grid","p","","","","","Phylogenetic_Distractor_Nonthreat_target","onmask","2500","p","8","Phylogenetic","true","experimental"
"","null","html-keyboard-response","138","248705","0.0-11.0-0.16","sIZWIAwLIO","5ca4d7e75d545300110b7545","6617fad957f7c6a12ea16e26","6622cb446eae5127a7bf6e76","fixation cross","null","","","","","","","","","","","",""
"","34","html-keyboard-response","139","248740","0.0-11.0-1.16","sIZWIAwLIO","5ca4d7e75d545300110b7545","6617fad957f7c6a12ea16e26","6622cb446eae5127a7bf6e76","image grid"," ","","","","","Phylogenetic_Distractor_Nonthreat_target","ongrid","2500","p","3","Phylogenetic","false","experimental"
"","null","html-keyboard-response","140","248892","0.0-11.0-2.16","sIZWIAwLIO","5ca4d7e75d545300110b7545","6617fad957f7c6a12ea16e26","6622cb446eae5127a7bf6e76","
    <div id=""grid-container"">
        <!-- Grid items will be dynamically added here -->
    </div>    ","null","","","","","","","","","","","",""
"","null","html-keyboard-response","141","249596","0.0-11.0-0.17","sIZWIAwLIO","5ca4d7e75d545300110b7545","6617fad957f7c6a12ea16e26","6622cb446eae5127a7bf6e76","fixation cross","null","","","","","","","","","","","",""
"","null","html-keyboard-response","142","252098","0.0-11.0-1.17","sIZWIAwLIO","5ca4d7e75d545300110b7545","6617fad957f7c6a12ea16e26","6622cb446eae5127a7bf6e76","
        <div id=""grid-container"">
        <!-- Grid items will be dynamically added here -->
    </div>    ","null","","","","","","","","","","","",""
"","2863","html-keyboard-response","143","252462","0.0-11.0-2.17","sIZWIAwLIO","5ca4d7e75d545300110b7545","6617fad957f7c6a12ea16e26","6622cb446eae5127a7bf6e76","mask grid"," ","","","","","Phylogenetic_Distractor_Threat_target","onmask","2500","q","2","Phylogenetic","false","experimental"
"","null","html-keyboard-response","144","253166","0.0-11.0-0.18","sIZWIAwLIO","5ca4d7e75d545300110b7545","6617fad957f7c6a12ea16e26","6622cb446eae5127a7bf6e76","fixation cross","null","","","","","","","","","","","",""
"","null","html-keyboard-response","145","255670","0.0-11.0-1.18","sIZWIAwLIO","5ca4d7e75d545300110b7545","6617fad957f7c6a12ea16e26","6622cb446eae5127a7bf6e76","
        <div id=""grid-container"">
        <!-- Grid items will be dynamically added here -->
    </div>    ","null","","","","","","","","","","","",""
"","6639","html-keyboard-response","146","259810","0.0-11.0-2.18","sIZWIAwLIO","5ca4d7e75d545300110b7545","6617fad957f7c6a12ea16e26","6622cb446eae5127a7bf6e76","mask grid"," ","","","","","Phylogenetic_Distractor_Threat_target","onmask","2500","q","6","Phylogenetic","false","experimental"
"","212","html-keyboard-response","147","260513","0.0-11.0-0.19","sIZWIAwLIO","5ca4d7e75d545300110b7545","6617fad957f7c6a12ea16e26","6622cb446eae5127a7bf6e76","fixation cross"," ","","","","","","","","","","","",""
"","null","html-keyboard-response","148","263016","0.0-11.0-1.19","sIZWIAwLIO","5ca4d7e75d545300110b7545","6617fad957f7c6a12ea16e26","6622cb446eae5127a7bf6e76","
        <div id=""grid-container"">
        <!-- Grid items will be dynamically added here -->
    </div>    ","null","","","","","","","","","","","",""
"","2500","html-keyboard-response","149","268017","0.0-11.0-2.19","sIZWIAwLIO","5ca4d7e75d545300110b7545","6617fad957f7c6a12ea16e26","6622cb446eae5127a7bf6e76","mask grid","null","","","","","Phylogenetic_Distractor_Threat_target","onmask","2500","q","9","Phylogenetic","false","experimental"
"","null","html-keyboard-response","150","268722","0.0-11.0-0.20","sIZWIAwLIO","5ca4d7e75d545300110b7545","6617fad957f7c6a12ea16e26","6622cb446eae5127a7bf6e76","fixation cross","null","","","","","","","","","","","",""
"","null","html-keyboard-response","151","271227","0.0-11.0-1.20","sIZWIAwLIO","5ca4d7e75d545300110b7545","6617fad957f7c6a12ea16e26","6622cb446eae5127a7bf6e76","
        <div id=""grid-container"">
        <!-- Grid items will be dynamically added here -->
    </div>    ","null","","","","","","","","","","","",""
"","2500","html-keyboard-response","152","276230","0.0-11.0-2.20","sIZWIAwLIO","5ca4d7e75d545300110b7545","6617fad957f7c6a12ea16e26","6622cb446eae5127a7bf6e76","mask grid","null","","","","","Phylogenetic_Distractor_Nonthreat_target","onmask","2500","p","6","Phylogenetic","false","experimental"
"","13","html-keyboard-response","153","276934","0.0-11.0-0.21","sIZWIAwLIO","5ca4d7e75d545300110b7545","6617fad957f7c6a12ea16e26","6622cb446eae5127a7bf6e76","fixation cross"," ","","","","","","","","","","","",""
"","null","html-keyboard-response","154","279437","0.0-11.0-1.21","sIZWIAwLIO","5ca4d7e75d545300110b7545","6617fad957f7c6a12ea16e26","6622cb446eae5127a7bf6e76","
        <div id=""grid-container"">
        <!-- Grid items will be dynamically added here -->
    </div>    ","null","","","","","","","","","","","",""
"","2500","html-keyboard-response","155","284441","0.0-11.0-2.21","sIZWIAwLIO","5ca4d7e75d545300110b7545","6617fad957f7c6a12ea16e26","6622cb446eae5127a7bf6e76","mask grid","null","","","","","Phylogenetic_Distractor_Threat_target","onmask","2500","q","3","Phylogenetic","false","experimental"
"","null","html-keyboard-response","156","285146","0.0-11.0-0.22","sIZWIAwLIO","5ca4d7e75d545300110b7545","6617fad957f7c6a12ea16e26","6622cb446eae5127a7bf6e76","fixation cross","null","","","","","","","","","","","",""
"","null","html-keyboard-response","157","287649","0.0-11.0-1.22","sIZWIAwLIO","5ca4d7e75d545300110b7545","6617fad957f7c6a12ea16e26","6622cb446eae5127a7bf6e76","
        <div id=""grid-container"">
        <!-- Grid items will be dynamically added here -->
    </div>    ","null","","","","","","","","","","","",""
"","6850","html-keyboard-response","158","291999","0.0-11.0-2.22","sIZWIAwLIO","5ca4d7e75d545300110b7545","6617fad957f7c6a12ea16e26","6622cb446eae5127a7bf6e76","mask grid"," ","","","","","Phylogenetic_Distractor_Threat_target","onmask","2500","q","7","Phylogenetic","false","experimental"
"","null","html-keyboard-response","159","292703","0.0-11.0-0.23","sIZWIAwLIO","5ca4d7e75d545300110b7545","6617fad957f7c6a12ea16e26","6622cb446eae5127a7bf6e76","fixation cross","null","","","","","","","","","","","",""
"","null","html-keyboard-response","160","295205","0.0-11.0-1.23","sIZWIAwLIO","5ca4d7e75d545300110b7545","6617fad957f7c6a12ea16e26","6622cb446eae5127a7bf6e76","
        <div id=""grid-container"">
        <!-- Grid items will be dynamically added here -->
    </div>    ","null","","","","","","","","","","","",""
"","3360","html-keyboard-response","161","296066","0.0-11.0-2.23","sIZWIAwLIO","5ca4d7e75d545300110b7545","6617fad957f7c6a12ea16e26","6622cb446eae5127a7bf6e76","mask grid"," ","","","","","Phylogenetic_Distractor_Nonthreat_target","onmask","2500","p","2","Phylogenetic","false","experimental"
"","null","html-keyboard-response","162","296773","0.0-11.0-0.24","sIZWIAwLIO","5ca4d7e75d545300110b7545","6617fad957f7c6a12ea16e26","6622cb446eae5127a7bf6e76","fixation cross","null","","","","","","","","","","","",""
"","null","html-keyboard-response","163","299276","0.0-11.0-1.24","sIZWIAwLIO","5ca4d7e75d545300110b7545","6617fad957f7c6a12ea16e26","6622cb446eae5127a7bf6e76","
        <div id=""grid-container"">
        <!-- Grid items will be dynamically added here -->
    </div>    ","null","","","","","","","","","","","",""
"","2500","html-keyboard-response","164","304277","0.0-11.0-2.24","sIZWIAwLIO","5ca4d7e75d545300110b7545","6617fad957f7c6a12ea16e26","6622cb446eae5127a7bf6e76","mask grid","null","","","","","Phylogenetic_Distractor_notarget","onmask","2500"," ","3","Phylogenetic","false","experimental"
"","null","html-keyboard-response","165","304981","0.0-11.0-0.25","sIZWIAwLIO","5ca4d7e75d545300110b7545","6617fad957f7c6a12ea16e26","6622cb446eae5127a7bf6e76","fixation cross","null","","","","","","","","","","","",""
"","211","html-keyboard-response","166","305192","0.0-11.0-1.25","sIZWIAwLIO","5ca4d7e75d545300110b7545","6617fad957f7c6a12ea16e26","6622cb446eae5127a7bf6e76","image grid"," ","","","","","Phylogenetic_Distractor_Nonthreat_target","ongrid","2500","p","6","Phylogenetic","false","experimental"
"","null","html-keyboard-response","167","305344","0.0-11.0-2.25","sIZWIAwLIO","5ca4d7e75d545300110b7545","6617fad957f7c6a12ea16e26","6622cb446eae5127a7bf6e76","
    <div id=""grid-container"">
        <!-- Grid items will be dynamically added here -->
    </div>    ","null","","","","","","","","","","","",""
"","null","html-keyboard-response","168","306047","0.0-11.0-0.26","sIZWIAwLIO","5ca4d7e75d545300110b7545","6617fad957f7c6a12ea16e26","6622cb446eae5127a7bf6e76","fixation cross","null","","","","","","","","","","","",""
"","1713","html-keyboard-response","169","307761","0.0-11.0-1.26","sIZWIAwLIO","5ca4d7e75d545300110b7545","6617fad957f7c6a12ea16e26","6622cb446eae5127a7bf6e76","image grid"," ","","","","","Phylogenetic_Distractor_Threat_target","ongrid","2500","q","7","Phylogenetic","false","experimental"
"","null","html-keyboard-response","170","307913","0.0-11.0-2.26","sIZWIAwLIO","5ca4d7e75d545300110b7545","6617fad957f7c6a12ea16e26","6622cb446eae5127a7bf6e76","
    <div id=""grid-container"">
        <!-- Grid items will be dynamically added here -->
    </div>    ","null","","","","","","","","","","","",""
"","null","html-keyboard-response","171","308616","0.0-11.0-0.27","sIZWIAwLIO","5ca4d7e75d545300110b7545","6617fad957f7c6a12ea16e26","6622cb446eae5127a7bf6e76","fixation cross","null","","","","","","","","","","","",""
"","433","html-keyboard-response","172","309050","0.0-11.0-1.27","sIZWIAwLIO","5ca4d7e75d545300110b7545","6617fad957f7c6a12ea16e26","6622cb446eae5127a7bf6e76","image grid"," ","","","","","Phylogenetic_Distractor_Nonthreat_target","ongrid","2500","p","7","Phylogenetic","false","experimental"
"","null","html-keyboard-response","173","309203","0.0-11.0-2.27","sIZWIAwLIO","5ca4d7e75d545300110b7545","6617fad957f7c6a12ea16e26","6622cb446eae5127a7bf6e76","
    <div id=""grid-container"">
        <!-- Grid items will be dynamically added here -->
    </div>    ","null","","","","","","","","","","","",""
"","477","html-keyboard-response","174","309907","0.0-11.0-0.28","sIZWIAwLIO","5ca4d7e75d545300110b7545","6617fad957f7c6a12ea16e26","6622cb446eae5127a7bf6e76","fixation cross"," ","","","","","","","","","","","",""
"","null","html-keyboard-response","175","312410","0.0-11.0-1.28","sIZWIAwLIO","5ca4d7e75d545300110b7545","6617fad957f7c6a12ea16e26","6622cb446eae5127a7bf6e76","
        <div id=""grid-container"">
        <!-- Grid items will be dynamically added here -->
    </div>    ","null","","","","","","","","","","","",""
"","6402","html-keyboard-response","176","316313","0.0-11.0-2.28","sIZWIAwLIO","5ca4d7e75d545300110b7545","6617fad957f7c6a12ea16e26","6622cb446eae5127a7bf6e76","mask grid"," ","","","","","Phylogenetic_Distractor_Threat_target","onmask","2500","q","8","Phylogenetic","false","experimental"
"","null","html-keyboard-response","177","317016","0.0-11.0-0.29","sIZWIAwLIO","5ca4d7e75d545300110b7545","6617fad957f7c6a12ea16e26","6622cb446eae5127a7bf6e76","fixation cross","null","","","","","","","","","","","",""
"","2204","html-keyboard-response","178","319220","0.0-11.0-1.29","sIZWIAwLIO","5ca4d7e75d545300110b7545","6617fad957f7c6a12ea16e26","6622cb446eae5127a7bf6e76","image grid","q","","","","","Phylogenetic_Distractor_Nonthreat_target","ongrid","2500","p","1","Phylogenetic","false","experimental"
"","null","html-keyboard-response","179","319376","0.0-11.0-2.29","sIZWIAwLIO","5ca4d7e75d545300110b7545","6617fad957f7c6a12ea16e26","6622cb446eae5127a7bf6e76","
    <div id=""grid-container"">
        <!-- Grid items will be dynamically added here -->
    </div>    ","null","","","","","","","","","","","",""
"","null","html-keyboard-response","180","320082","0.0-11.0-0.30","sIZWIAwLIO","5ca4d7e75d545300110b7545","6617fad957f7c6a12ea16e26","6622cb446eae5127a7bf6e76","fixation cross","null","","","","","","","","","","","",""
"","136","html-keyboard-response","181","320219","0.0-11.0-1.30","sIZWIAwLIO","5ca4d7e75d545300110b7545","6617fad957f7c6a12ea16e26","6622cb446eae5127a7bf6e76","image grid"," ","","","","","Phylogenetic_Distractor_Threat_target","ongrid","2500","q","6","Phylogenetic","false","experimental"
"","null","html-keyboard-response","182","320370","0.0-11.0-2.30","sIZWIAwLIO","5ca4d7e75d545300110b7545","6617fad957f7c6a12ea16e26","6622cb446eae5127a7bf6e76","
    <div id=""grid-container"">
        <!-- Grid items will be dynamically added here -->
    </div>    ","null","","","","","","","","","","","",""
"","null","html-keyboard-response","183","321073","0.0-11.0-0.31","sIZWIAwLIO","5ca4d7e75d545300110b7545","6617fad957f7c6a12ea16e26","6622cb446eae5127a7bf6e76","fixation cross","null","","","","","","","","","","","",""
"","null","html-keyboard-response","184","323577","0.0-11.0-1.31","sIZWIAwLIO","5ca4d7e75d545300110b7545","6617fad957f7c6a12ea16e26","6622cb446eae5127a7bf6e76","
        <div id=""grid-container"">
        <!-- Grid items will be dynamically added here -->
    </div>    ","null","","","","","","","","","","","",""
"","2549","html-keyboard-response","185","323626","0.0-11.0-2.31","sIZWIAwLIO","5ca4d7e75d545300110b7545","6617fad957f7c6a12ea16e26","6622cb446eae5127a7bf6e76","mask grid"," ","","","","","Phylogenetic_Distractor_Nonthreat_target","onmask","2500","p","2","Phylogenetic","false","experimental"
"","null","html-keyboard-response","186","324335","0.0-11.0-0.32","sIZWIAwLIO","5ca4d7e75d545300110b7545","6617fad957f7c6a12ea16e26","6622cb446eae5127a7bf6e76","fixation cross","null","","","","","","","","","","","",""
"","1499","html-keyboard-response","187","325835","0.0-11.0-1.32","sIZWIAwLIO","5ca4d7e75d545300110b7545","6617fad957f7c6a12ea16e26","6622cb446eae5127a7bf6e76","image grid"," ","","","","","Phylogenetic_Distractor_notarget","ongrid","2500"," ","9","Phylogenetic","true","experimental"
"","null","html-keyboard-response","188","325988","0.0-11.0-2.32","sIZWIAwLIO","5ca4d7e75d545300110b7545","6617fad957f7c6a12ea16e26","6622cb446eae5127a7bf6e76","
    <div id=""grid-container"">
        <!-- Grid items will be dynamically added here -->
    </div>    ","null","","","","","","","","","","","",""
"","null","html-keyboard-response","189","326692","0.0-11.0-0.33","sIZWIAwLIO","5ca4d7e75d545300110b7545","6617fad957f7c6a12ea16e26","6622cb446eae5127a7bf6e76","fixation cross","null","","","","","","","","","","","",""
"","2010","html-keyboard-response","190","328703","0.0-11.0-1.33","sIZWIAwLIO","5ca4d7e75d545300110b7545","6617fad957f7c6a12ea16e26","6622cb446eae5127a7bf6e76","image grid","p","","","","","Phylogenetic_Distractor_Threat_target","ongrid","2500","q","3","Phylogenetic","false","experimental"
"","null","html-keyboard-response","191","328858","0.0-11.0-2.33","sIZWIAwLIO","5ca4d7e75d545300110b7545","6617fad957f7c6a12ea16e26","6622cb446eae5127a7bf6e76","
    <div id=""grid-container"">
        <!-- Grid items will be dynamically added here -->
    </div>    ","null","","","","","","","","","","","",""
"","null","html-keyboard-response","192","329561","0.0-11.0-0.34","sIZWIAwLIO","5ca4d7e75d545300110b7545","6617fad957f7c6a12ea16e26","6622cb446eae5127a7bf6e76","fixation cross","null","","","","","","","","","","","",""
"","1702","html-keyboard-response","193","331264","0.0-11.0-1.34","sIZWIAwLIO","5ca4d7e75d545300110b7545","6617fad957f7c6a12ea16e26","6622cb446eae5127a7bf6e76","image grid"," ","","","","","Phylogenetic_Distractor_Nonthreat_target","ongrid","2500","p","6","Phylogenetic","false","experimental"
"","null","html-keyboard-response","194","331417","0.0-11.0-2.34","sIZWIAwLIO","5ca4d7e75d545300110b7545","6617fad957f7c6a12ea16e26","6622cb446eae5127a7bf6e76","
    <div id=""grid-container"">
        <!-- Grid items will be dynamically added here -->
    </div>    ","null","","","","","","","","","","","",""
"","null","html-keyboard-response","195","332123","0.0-11.0-0.35","sIZWIAwLIO","5ca4d7e75d545300110b7545","6617fad957f7c6a12ea16e26","6622cb446eae5127a7bf6e76","fixation cross","null","","","","","","","","","","","",""
"","null","html-keyboard-response","196","334625","0.0-11.0-1.35","sIZWIAwLIO","5ca4d7e75d545300110b7545","6617fad957f7c6a12ea16e26","6622cb446eae5127a7bf6e76","
        <div id=""grid-container"">
        <!-- Grid items will be dynamically added here -->
    </div>    ","null","","","","","","","","","","","",""
"","6598","html-keyboard-response","197","338724","0.0-11.0-2.35","sIZWIAwLIO","5ca4d7e75d545300110b7545","6617fad957f7c6a12ea16e26","6622cb446eae5127a7bf6e76","mask grid"," ","","","","","Phylogenetic_Distractor_Threat_target","onmask","2500","q","7","Phylogenetic","false","experimental"
"","null","html-keyboard-response","198","339429","0.0-11.0-0.36","sIZWIAwLIO","5ca4d7e75d545300110b7545","6617fad957f7c6a12ea16e26","6622cb446eae5127a7bf6e76","fixation cross","null","","","","","","","","","","","",""
"","2227","html-keyboard-response","199","341657","0.0-11.0-1.36","sIZWIAwLIO","5ca4d7e75d545300110b7545","6617fad957f7c6a12ea16e26","6622cb446eae5127a7bf6e76","image grid"," ","","","","","Phylogenetic_Distractor_Nonthreat_target","ongrid","2500","p","1","Phylogenetic","false","experimental"
"","null","html-keyboard-response","200","341811","0.0-11.0-2.36","sIZWIAwLIO","5ca4d7e75d545300110b7545","6617fad957f7c6a12ea16e26","6622cb446eae5127a7bf6e76","
    <div id=""grid-container"">
        <!-- Grid items will be dynamically added here -->
    </div>    ","null","","","","","","","","","","","",""
"","null","html-keyboard-response","201","342516","0.0-11.0-0.37","sIZWIAwLIO","5ca4d7e75d545300110b7545","6617fad957f7c6a12ea16e26","6622cb446eae5127a7bf6e76","fixation cross","null","","","","","","","","","","","",""
"","1807","html-keyboard-response","202","344324","0.0-11.0-1.37","sIZWIAwLIO","5ca4d7e75d545300110b7545","6617fad957f7c6a12ea16e26","6622cb446eae5127a7bf6e76","image grid"," ","","","","","Phylogenetic_Distractor_Threat_target","ongrid","2500","q","8","Phylogenetic","false","experimental"
"","null","html-keyboard-response","203","344476","0.0-11.0-2.37","sIZWIAwLIO","5ca4d7e75d545300110b7545","6617fad957f7c6a12ea16e26","6622cb446eae5127a7bf6e76","
    <div id=""grid-container"">
        <!-- Grid items will be dynamically added here -->
    </div>    ","null","","","","","","","","","","","",""
"","null","html-keyboard-response","204","345181","0.0-11.0-0.38","sIZWIAwLIO","5ca4d7e75d545300110b7545","6617fad957f7c6a12ea16e26","6622cb446eae5127a7bf6e76","fixation cross","null","","","","","","","","","","","",""
"","1800","html-keyboard-response","205","346982","0.0-11.0-1.38","sIZWIAwLIO","5ca4d7e75d545300110b7545","6617fad957f7c6a12ea16e26","6622cb446eae5127a7bf6e76","image grid"," ","","","","","Phylogenetic_Distractor_Threat_target","ongrid","2500","q","4","Phylogenetic","false","experimental"
"","null","html-keyboard-response","206","347135","0.0-11.0-2.38","sIZWIAwLIO","5ca4d7e75d545300110b7545","6617fad957f7c6a12ea16e26","6622cb446eae5127a7bf6e76","
    <div id=""grid-container"">
        <!-- Grid items will be dynamically added here -->
    </div>    ","null","","","","","","","","","","","",""
"","null","html-keyboard-response","207","347843","0.0-11.0-0.39","sIZWIAwLIO","5ca4d7e75d545300110b7545","6617fad957f7c6a12ea16e26","6622cb446eae5127a7bf6e76","fixation cross","null","","","","","","","","","","","",""
"","2281","html-keyboard-response","208","350124","0.0-11.0-1.39","sIZWIAwLIO","5ca4d7e75d545300110b7545","6617fad957f7c6a12ea16e26","6622cb446eae5127a7bf6e76","image grid"," ","","","","","Phylogenetic_Distractor_notarget","ongrid","2500"," ","4","Phylogenetic","true","experimental"
"","null","html-keyboard-response","209","350277","0.0-11.0-2.39","sIZWIAwLIO","5ca4d7e75d545300110b7545","6617fad957f7c6a12ea16e26","6622cb446eae5127a7bf6e76","
    <div id=""grid-container"">
        <!-- Grid items will be dynamically added here -->
    </div>    ","null","","","","","","","","","","","",""
"","2597","html-keyboard-response","210","353131","0.0-12.0","sIZWIAwLIO","5ca4d7e75d545300110b7545","6617fad957f7c6a12ea16e26","6622cb446eae5127a7bf6e76","break screen"," ","","","","","","","","","","","",""
"","null","html-keyboard-response","211","355635","0.0-13.0-0.0","sIZWIAwLIO","5ca4d7e75d545300110b7545","6617fad957f7c6a12ea16e26","6622cb446eae5127a7bf6e76","fixation cross","null","","","","","","","","","","","",""
"","null","html-keyboard-response","212","356440","0.0-13.0-1.0","sIZWIAwLIO","5ca4d7e75d545300110b7545","6617fad957f7c6a12ea16e26","6622cb446eae5127a7bf6e76","
        <div id=""grid-container"">
        <!-- Grid items will be dynamically added here -->
    </div>    ","null","","","","","","","","","","","",""
"","4223","html-keyboard-response","213","359864","0.0-13.0-2.0","sIZWIAwLIO","5ca4d7e75d545300110b7545","6617fad957f7c6a12ea16e26","6622cb446eae5127a7bf6e76","mask grid"," ","","","","","Phylogenetic_Distractor_Threat_target","onmask","800","q","4","Phylogenetic","false","experimental"
"","null","html-keyboard-response","214","360568","0.0-13.0-0.1","sIZWIAwLIO","5ca4d7e75d545300110b7545","6617fad957f7c6a12ea16e26","6622cb446eae5127a7bf6e76","fixation cross","null","","","","","","","","","","","",""
"","null","html-keyboard-response","215","361370","0.0-13.0-1.1","sIZWIAwLIO","5ca4d7e75d545300110b7545","6617fad957f7c6a12ea16e26","6622cb446eae5127a7bf6e76","
        <div id=""grid-container"">
        <!-- Grid items will be dynamically added here -->
    </div>    ","null","","","","","","","","","","","",""
"","800","html-keyboard-response","216","366372","0.0-13.0-2.1","sIZWIAwLIO","5ca4d7e75d545300110b7545","6617fad957f7c6a12ea16e26","6622cb446eae5127a7bf6e76","mask grid","null","","","","","Phylogenetic_Distractor_Nonthreat_target","onmask","800","p","8","Phylogenetic","false","experimental"
"","302","html-keyboard-response","217","367076","0.0-13.0-0.2","sIZWIAwLIO","5ca4d7e75d545300110b7545","6617fad957f7c6a12ea16e26","6622cb446eae5127a7bf6e76","fixation cross"," ","","","","","","","","","","","",""
"","null","html-keyboard-response","218","367877","0.0-13.0-1.2","sIZWIAwLIO","5ca4d7e75d545300110b7545","6617fad957f7c6a12ea16e26","6622cb446eae5127a7bf6e76","
        <div id=""grid-container"">
        <!-- Grid items will be dynamically added here -->
    </div>    ","null","","","","","","","","","","","",""
"","5722","html-keyboard-response","219","372799","0.0-13.0-2.2","sIZWIAwLIO","5ca4d7e75d545300110b7545","6617fad957f7c6a12ea16e26","6622cb446eae5127a7bf6e76","mask grid"," ","","","","","Phylogenetic_Distractor_Nonthreat_target","onmask","800","p","1","Phylogenetic","false","experimental"
"","null","html-keyboard-response","220","373504","0.0-13.0-0.3","sIZWIAwLIO","5ca4d7e75d545300110b7545","6617fad957f7c6a12ea16e26","6622cb446eae5127a7bf6e76","fixation cross","null","","","","","","","","","","","",""
"","null","html-keyboard-response","221","374306","0.0-13.0-1.3","sIZWIAwLIO","5ca4d7e75d545300110b7545","6617fad957f7c6a12ea16e26","6622cb446eae5127a7bf6e76","
        <div id=""grid-container"">
        <!-- Grid items will be dynamically added here -->
    </div>    ","null","","","","","","","","","","","",""
"","4094","html-keyboard-response","222","377601","0.0-13.0-2.3","sIZWIAwLIO","5ca4d7e75d545300110b7545","6617fad957f7c6a12ea16e26","6622cb446eae5127a7bf6e76","mask grid"," ","","","","","Phylogenetic_Distractor_Threat_target","onmask","800","q","4","Phylogenetic","false","experimental"
"","null","html-keyboard-response","223","378305","0.0-13.0-0.4","sIZWIAwLIO","5ca4d7e75d545300110b7545","6617fad957f7c6a12ea16e26","6622cb446eae5127a7bf6e76","fixation cross","null","","","","","","","","","","","",""
"","null","html-keyboard-response","224","379108","0.0-13.0-1.4","sIZWIAwLIO","5ca4d7e75d545300110b7545","6617fad957f7c6a12ea16e26","6622cb446eae5127a7bf6e76","
        <div id=""grid-container"">
        <!-- Grid items will be dynamically added here -->
    </div>    ","null","","","","","","","","","","","",""
"","2466","html-keyboard-response","225","380774","0.0-13.0-2.4","sIZWIAwLIO","5ca4d7e75d545300110b7545","6617fad957f7c6a12ea16e26","6622cb446eae5127a7bf6e76","mask grid"," ","","","","","Phylogenetic_Distractor_Threat_target","onmask","800","q","1","Phylogenetic","false","experimental"
"","null","html-keyboard-response","226","381479","0.0-13.0-0.5","sIZWIAwLIO","5ca4d7e75d545300110b7545","6617fad957f7c6a12ea16e26","6622cb446eae5127a7bf6e76","fixation cross","null","","","","","","","","","","","",""
"","null","html-keyboard-response","227","382281","0.0-13.0-1.5","sIZWIAwLIO","5ca4d7e75d545300110b7545","6617fad957f7c6a12ea16e26","6622cb446eae5127a7bf6e76","
        <div id=""grid-container"">
        <!-- Grid items will be dynamically added here -->
    </div>    ","null","","","","","","","","","","","",""
"","800","html-keyboard-response","228","387284","0.0-13.0-2.5","sIZWIAwLIO","5ca4d7e75d545300110b7545","6617fad957f7c6a12ea16e26","6622cb446eae5127a7bf6e76","mask grid","null","","","","","Phylogenetic_Distractor_Threat_target","onmask","800","q","8","Phylogenetic","false","experimental"
"","null","html-keyboard-response","229","387990","0.0-13.0-0.6","sIZWIAwLIO","5ca4d7e75d545300110b7545","6617fad957f7c6a12ea16e26","6622cb446eae5127a7bf6e76","fixation cross","null","","","","","","","","","","","",""
"","null","html-keyboard-response","230","388795","0.0-13.0-1.6","sIZWIAwLIO","5ca4d7e75d545300110b7545","6617fad957f7c6a12ea16e26","6622cb446eae5127a7bf6e76","
        <div id=""grid-container"">
        <!-- Grid items will be dynamically added here -->
    </div>    ","null","","","","","","","","","","","",""
"","800","html-keyboard-response","231","393797","0.0-13.0-2.6","sIZWIAwLIO","5ca4d7e75d545300110b7545","6617fad957f7c6a12ea16e26","6622cb446eae5127a7bf6e76","mask grid","null","","","","","Phylogenetic_Distractor_Nonthreat_target","onmask","800","p","3","Phylogenetic","false","experimental"
"","null","html-keyboard-response","232","394504","0.0-13.0-0.7","sIZWIAwLIO","5ca4d7e75d545300110b7545","6617fad957f7c6a12ea16e26","6622cb446eae5127a7bf6e76","fixation cross","null","","","","","","","","","","","",""
"","null","html-keyboard-response","233","395307","0.0-13.0-1.7","sIZWIAwLIO","5ca4d7e75d545300110b7545","6617fad957f7c6a12ea16e26","6622cb446eae5127a7bf6e76","
        <div id=""grid-container"">
        <!-- Grid items will be dynamically added here -->
    </div>    ","null","","","","","","","","","","","",""
"","800","html-keyboard-response","234","400308","0.0-13.0-2.7","sIZWIAwLIO","5ca4d7e75d545300110b7545","6617fad957f7c6a12ea16e26","6622cb446eae5127a7bf6e76","mask grid","null","","","","","Phylogenetic_Distractor_Threat_target","onmask","800","q","4","Phylogenetic","false","experimental"
"","null","html-keyboard-response","235","401015","0.0-13.0-0.8","sIZWIAwLIO","5ca4d7e75d545300110b7545","6617fad957f7c6a12ea16e26","6622cb446eae5127a7bf6e76","fixation cross","null","","","","","","","","","","","",""
"","null","html-keyboard-response","236","401817","0.0-13.0-1.8","sIZWIAwLIO","5ca4d7e75d545300110b7545","6617fad957f7c6a12ea16e26","6622cb446eae5127a7bf6e76","
        <div id=""grid-container"">
        <!-- Grid items will be dynamically added here -->
    </div>    ","null","","","","","","","","","","","",""
"","800","html-keyboard-response","237","406820","0.0-13.0-2.8","sIZWIAwLIO","5ca4d7e75d545300110b7545","6617fad957f7c6a12ea16e26","6622cb446eae5127a7bf6e76","mask grid","null","","","","","Phylogenetic_Distractor_Nonthreat_target","onmask","800","p","9","Phylogenetic","false","experimental"
"","null","html-keyboard-response","238","407527","0.0-13.0-0.9","sIZWIAwLIO","5ca4d7e75d545300110b7545","6617fad957f7c6a12ea16e26","6622cb446eae5127a7bf6e76","fixation cross","null","","","","","","","","","","","",""
"","148","html-keyboard-response","239","407676","0.0-13.0-1.9","sIZWIAwLIO","5ca4d7e75d545300110b7545","6617fad957f7c6a12ea16e26","6622cb446eae5127a7bf6e76","image grid"," ","","","","","Phylogenetic_Distractor_Nonthreat_target","ongrid","800","p","7","Phylogenetic","false","experimental"
"","null","html-keyboard-response","240","407831","0.0-13.0-2.9","sIZWIAwLIO","5ca4d7e75d545300110b7545","6617fad957f7c6a12ea16e26","6622cb446eae5127a7bf6e76","
    <div id=""grid-container"">
        <!-- Grid items will be dynamically added here -->
    </div>    ","null","","","","","","","","","","","",""
"","null","html-keyboard-response","241","408534","0.0-13.0-0.10","sIZWIAwLIO","5ca4d7e75d545300110b7545","6617fad957f7c6a12ea16e26","6622cb446eae5127a7bf6e76","fixation cross","null","","","","","","","","","","","",""
"","null","html-keyboard-response","242","409336","0.0-13.0-1.10","sIZWIAwLIO","5ca4d7e75d545300110b7545","6617fad957f7c6a12ea16e26","6622cb446eae5127a7bf6e76","
        <div id=""grid-container"">
        <!-- Grid items will be dynamically added here -->
    </div>    ","null","","","","","","","","","","","",""
"","2947","html-keyboard-response","243","411484","0.0-13.0-2.10","sIZWIAwLIO","5ca4d7e75d545300110b7545","6617fad957f7c6a12ea16e26","6622cb446eae5127a7bf6e76","mask grid"," ","","","","","Phylogenetic_Distractor_Nonthreat_target","onmask","800","p","3","Phylogenetic","false","experimental"
"","null","html-keyboard-response","244","412189","0.0-13.0-0.11","sIZWIAwLIO","5ca4d7e75d545300110b7545","6617fad957f7c6a12ea16e26","6622cb446eae5127a7bf6e76","fixation cross","null","","","","","","","","","","","",""
"","58","html-keyboard-response","245","412249","0.0-13.0-1.11","sIZWIAwLIO","5ca4d7e75d545300110b7545","6617fad957f7c6a12ea16e26","6622cb446eae5127a7bf6e76","image grid"," ","","","","","Phylogenetic_Distractor_Threat_target","ongrid","800","q","1","Phylogenetic","false","experimental"
"","null","html-keyboard-response","246","412404","0.0-13.0-2.11","sIZWIAwLIO","5ca4d7e75d545300110b7545","6617fad957f7c6a12ea16e26","6622cb446eae5127a7bf6e76","
    <div id=""grid-container"">
        <!-- Grid items will be dynamically added here -->
    </div>    ","null","","","","","","","","","","","",""
"","null","html-keyboard-response","247","413108","0.0-13.0-0.12","sIZWIAwLIO","5ca4d7e75d545300110b7545","6617fad957f7c6a12ea16e26","6622cb446eae5127a7bf6e76","fixation cross","null","","","","","","","","","","","",""
"","null","html-keyboard-response","248","413911","0.0-13.0-1.12","sIZWIAwLIO","5ca4d7e75d545300110b7545","6617fad957f7c6a12ea16e26","6622cb446eae5127a7bf6e76","
        <div id=""grid-container"">
        <!-- Grid items will be dynamically added here -->
    </div>    ","null","","","","","","","","","","","",""
"","800","html-keyboard-response","249","418915","0.0-13.0-2.12","sIZWIAwLIO","5ca4d7e75d545300110b7545","6617fad957f7c6a12ea16e26","6622cb446eae5127a7bf6e76","mask grid","null","","","","","Phylogenetic_Distractor_Threat_target","onmask","800","q","5","Phylogenetic","false","experimental"
"","331","html-keyboard-response","250","419620","0.0-13.0-0.13","sIZWIAwLIO","5ca4d7e75d545300110b7545","6617fad957f7c6a12ea16e26","6622cb446eae5127a7bf6e76","fixation cross","s","","","","","","","","","","","",""
"","null","html-keyboard-response","251","420423","0.0-13.0-1.13","sIZWIAwLIO","5ca4d7e75d545300110b7545","6617fad957f7c6a12ea16e26","6622cb446eae5127a7bf6e76","
        <div id=""grid-container"">
        <!-- Grid items will be dynamically added here -->
    </div>    ","null","","","","","","","","","","","",""
"","2447","html-keyboard-response","252","422071","0.0-13.0-2.13","sIZWIAwLIO","5ca4d7e75d545300110b7545","6617fad957f7c6a12ea16e26","6622cb446eae5127a7bf6e76","mask grid","p","","","","","Phylogenetic_Distractor_Nonthreat_target","onmask","800","p","3","Phylogenetic","true","experimental"
"","160","html-keyboard-response","253","422774","0.0-13.0-0.14","sIZWIAwLIO","5ca4d7e75d545300110b7545","6617fad957f7c6a12ea16e26","6622cb446eae5127a7bf6e76","fixation cross","b","","","","","","","","","","","",""
"","null","html-keyboard-response","254","423577","0.0-13.0-1.14","sIZWIAwLIO","5ca4d7e75d545300110b7545","6617fad957f7c6a12ea16e26","6622cb446eae5127a7bf6e76","
        <div id=""grid-container"">
        <!-- Grid items will be dynamically added here -->
    </div>    ","null","","","","","","","","","","","",""
"","800","html-keyboard-response","255","428580","0.0-13.0-2.14","sIZWIAwLIO","5ca4d7e75d545300110b7545","6617fad957f7c6a12ea16e26","6622cb446eae5127a7bf6e76","mask grid","null","","","","","Phylogenetic_Distractor_Nonthreat_target","onmask","800","p","3","Phylogenetic","false","experimental"
"","null","html-keyboard-response","256","429284","0.0-13.0-0.15","sIZWIAwLIO","5ca4d7e75d545300110b7545","6617fad957f7c6a12ea16e26","6622cb446eae5127a7bf6e76","fixation cross","null","","","","","","","","","","","",""
"","null","html-keyboard-response","257","430088","0.0-13.0-1.15","sIZWIAwLIO","5ca4d7e75d545300110b7545","6617fad957f7c6a12ea16e26","6622cb446eae5127a7bf6e76","
        <div id=""grid-container"">
        <!-- Grid items will be dynamically added here -->
    </div>    ","null","","","","","","","","","","","",""
"","800","html-keyboard-response","258","435090","0.0-13.0-2.15","sIZWIAwLIO","5ca4d7e75d545300110b7545","6617fad957f7c6a12ea16e26","6622cb446eae5127a7bf6e76","mask grid","null","","","","","Phylogenetic_Distractor_Nonthreat_target","onmask","800","p","8","Phylogenetic","false","experimental"
"","null","html-keyboard-response","259","435795","0.0-13.0-0.16","sIZWIAwLIO","5ca4d7e75d545300110b7545","6617fad957f7c6a12ea16e26","6622cb446eae5127a7bf6e76","fixation cross","null","","","","","","","","","","","",""
"","null","html-keyboard-response","260","436597","0.0-13.0-1.16","sIZWIAwLIO","5ca4d7e75d545300110b7545","6617fad957f7c6a12ea16e26","6622cb446eae5127a7bf6e76","
        <div id=""grid-container"">
        <!-- Grid items will be dynamically added here -->
    </div>    ","null","","","","","","","","","","","",""
"","800","html-keyboard-response","261","441599","0.0-13.0-2.16","sIZWIAwLIO","5ca4d7e75d545300110b7545","6617fad957f7c6a12ea16e26","6622cb446eae5127a7bf6e76","mask grid","null","","","","","Phylogenetic_Distractor_Threat_target","onmask","800","q","2","Phylogenetic","false","experimental"
"","null","html-keyboard-response","262","442304","0.0-13.0-0.17","sIZWIAwLIO","5ca4d7e75d545300110b7545","6617fad957f7c6a12ea16e26","6622cb446eae5127a7bf6e76","fixation cross","null","","","","","","","","","","","",""
"","null","html-keyboard-response","263","443107","0.0-13.0-1.17","sIZWIAwLIO","5ca4d7e75d545300110b7545","6617fad957f7c6a12ea16e26","6622cb446eae5127a7bf6e76","
        <div id=""grid-container"">
        <!-- Grid items will be dynamically added here -->
    </div>    ","null","","","","","","","","","","","",""
"","800","html-keyboard-response","264","448109","0.0-13.0-2.17","sIZWIAwLIO","5ca4d7e75d545300110b7545","6617fad957f7c6a12ea16e26","6622cb446eae5127a7bf6e76","mask grid","null","","","","","Phylogenetic_Distractor_Threat_target","onmask","800","q","3","Phylogenetic","false","experimental"
"","null","html-keyboard-response","265","448813","0.0-13.0-0.18","sIZWIAwLIO","5ca4d7e75d545300110b7545","6617fad957f7c6a12ea16e26","6622cb446eae5127a7bf6e76","fixation cross","null","","","","","","","","","","","",""
"","null","html-keyboard-response","266","449616","0.0-13.0-1.18","sIZWIAwLIO","5ca4d7e75d545300110b7545","6617fad957f7c6a12ea16e26","6622cb446eae5127a7bf6e76","
        <div id=""grid-container"">
        <!-- Grid items will be dynamically added here -->
    </div>    ","null","","","","","","","","","","","",""
"","4331","html-keyboard-response","267","453147","0.0-13.0-2.18","sIZWIAwLIO","5ca4d7e75d545300110b7545","6617fad957f7c6a12ea16e26","6622cb446eae5127a7bf6e76","mask grid"," ","","","","","Phylogenetic_Distractor_Nonthreat_target","onmask","800","p","4","Phylogenetic","false","experimental"
"","184","html-keyboard-response","268","453854","0.0-13.0-0.19","sIZWIAwLIO","5ca4d7e75d545300110b7545","6617fad957f7c6a12ea16e26","6622cb446eae5127a7bf6e76","fixation cross","s","","","","","","","","","","","",""
"","null","html-keyboard-response","269","454656","0.0-13.0-1.19","sIZWIAwLIO","5ca4d7e75d545300110b7545","6617fad957f7c6a12ea16e26","6622cb446eae5127a7bf6e76","
        <div id=""grid-container"">
        <!-- Grid items will be dynamically added here -->
    </div>    ","null","","","","","","","","","","","",""
"","800","html-keyboard-response","270","459658","0.0-13.0-2.19","sIZWIAwLIO","5ca4d7e75d545300110b7545","6617fad957f7c6a12ea16e26","6622cb446eae5127a7bf6e76","mask grid","null","","","","","Phylogenetic_Distractor_Nonthreat_target","onmask","800","p","7","Phylogenetic","false","experimental"
"","null","html-keyboard-response","271","460365","0.0-13.0-0.20","sIZWIAwLIO","5ca4d7e75d545300110b7545","6617fad957f7c6a12ea16e26","6622cb446eae5127a7bf6e76","fixation cross","null","","","","","","","","","","","",""
"","null","html-keyboard-response","272","461169","0.0-13.0-1.20","sIZWIAwLIO","5ca4d7e75d545300110b7545","6617fad957f7c6a12ea16e26","6622cb446eae5127a7bf6e76","
        <div id=""grid-container"">
        <!-- Grid items will be dynamically added here -->
    </div>    ","null","","","","","","","","","","","",""
"","1473","html-keyboard-response","273","461843","0.0-13.0-2.20","sIZWIAwLIO","5ca4d7e75d545300110b7545","6617fad957f7c6a12ea16e26","6622cb446eae5127a7bf6e76","mask grid"," ","","","","","Phylogenetic_Distractor_notarget","onmask","800"," ","9","Phylogenetic","true","experimental"
"","null","html-keyboard-response","274","462548","0.0-13.0-0.21","sIZWIAwLIO","5ca4d7e75d545300110b7545","6617fad957f7c6a12ea16e26","6622cb446eae5127a7bf6e76","fixation cross","null","","","","","","","","","","","",""
"","null","html-keyboard-response","275","463351","0.0-13.0-1.21","sIZWIAwLIO","5ca4d7e75d545300110b7545","6617fad957f7c6a12ea16e26","6622cb446eae5127a7bf6e76","
        <div id=""grid-container"">
        <!-- Grid items will be dynamically added here -->
    </div>    ","null","","","","","","","","","","","",""
"","3754","html-keyboard-response","276","466306","0.0-13.0-2.21","sIZWIAwLIO","5ca4d7e75d545300110b7545","6617fad957f7c6a12ea16e26","6622cb446eae5127a7bf6e76","mask grid"," ","","","","","Phylogenetic_Distractor_Nonthreat_target","onmask","800","p","4","Phylogenetic","false","experimental"
"","null","html-keyboard-response","277","467012","0.0-13.0-0.22","sIZWIAwLIO","5ca4d7e75d545300110b7545","6617fad957f7c6a12ea16e26","6622cb446eae5127a7bf6e76","fixation cross","null","","","","","","","","","","","",""
"","692","html-keyboard-response","278","467704","0.0-13.0-1.22","sIZWIAwLIO","5ca4d7e75d545300110b7545","6617fad957f7c6a12ea16e26","6622cb446eae5127a7bf6e76","image grid"," ","","","","","Phylogenetic_Distractor_Nonthreat_target","ongrid","800","p","5","Phylogenetic","false","experimental"
"","null","html-keyboard-response","279","467857","0.0-13.0-2.22","sIZWIAwLIO","5ca4d7e75d545300110b7545","6617fad957f7c6a12ea16e26","6622cb446eae5127a7bf6e76","
    <div id=""grid-container"">
        <!-- Grid items will be dynamically added here -->
    </div>    ","null","","","","","","","","","","","",""
"","190","html-keyboard-response","280","468562","0.0-13.0-0.23","sIZWIAwLIO","5ca4d7e75d545300110b7545","6617fad957f7c6a12ea16e26","6622cb446eae5127a7bf6e76","fixation cross"," ","","","","","","","","","","","",""
"","null","html-keyboard-response","281","469367","0.0-13.0-1.23","sIZWIAwLIO","5ca4d7e75d545300110b7545","6617fad957f7c6a12ea16e26","6622cb446eae5127a7bf6e76","
        <div id=""grid-container"">
        <!-- Grid items will be dynamically added here -->
    </div>    ","null","","","","","","","","","","","",""
"","1110","html-keyboard-response","282","469677","0.0-13.0-2.23","sIZWIAwLIO","5ca4d7e75d545300110b7545","6617fad957f7c6a12ea16e26","6622cb446eae5127a7bf6e76","mask grid"," ","","","","","Phylogenetic_Distractor_notarget","onmask","800"," ","1","Phylogenetic","true","experimental"
"","null","html-keyboard-response","283","470382","0.0-13.0-0.24","sIZWIAwLIO","5ca4d7e75d545300110b7545","6617fad957f7c6a12ea16e26","6622cb446eae5127a7bf6e76","fixation cross","null","","","","","","","","","","","",""
"","null","html-keyboard-response","284","471184","0.0-13.0-1.24","sIZWIAwLIO","5ca4d7e75d545300110b7545","6617fad957f7c6a12ea16e26","6622cb446eae5127a7bf6e76","
        <div id=""grid-container"">
        <!-- Grid items will be dynamically added here -->
    </div>    ","null","","","","","","","","","","","",""
"","800","html-keyboard-response","285","476186","0.0-13.0-2.24","sIZWIAwLIO","5ca4d7e75d545300110b7545","6617fad957f7c6a12ea16e26","6622cb446eae5127a7bf6e76","mask grid","null","","","","","Phylogenetic_Distractor_Threat_target","onmask","800","q","2","Phylogenetic","false","experimental"
"","null","html-keyboard-response","286","476891","0.0-13.0-0.25","sIZWIAwLIO","5ca4d7e75d545300110b7545","6617fad957f7c6a12ea16e26","6622cb446eae5127a7bf6e76","fixation cross","null","","","","","","","","","","","",""
"","null","html-keyboard-response","287","477693","0.0-13.0-1.25","sIZWIAwLIO","5ca4d7e75d545300110b7545","6617fad957f7c6a12ea16e26","6622cb446eae5127a7bf6e76","
        <div id=""grid-container"">
        <!-- Grid items will be dynamically added here -->
    </div>    ","null","","","","","","","","","","","",""
"","800","html-keyboard-response","288","482695","0.0-13.0-2.25","sIZWIAwLIO","5ca4d7e75d545300110b7545","6617fad957f7c6a12ea16e26","6622cb446eae5127a7bf6e76","mask grid","null","","","","","Phylogenetic_Distractor_Nonthreat_target","onmask","800","p","1","Phylogenetic","false","experimental"
"","null","html-keyboard-response","289","483401","0.0-13.0-0.26","sIZWIAwLIO","5ca4d7e75d545300110b7545","6617fad957f7c6a12ea16e26","6622cb446eae5127a7bf6e76","fixation cross","null","","","","","","","","","","","",""
"","65","html-keyboard-response","290","483467","0.0-13.0-1.26","sIZWIAwLIO","5ca4d7e75d545300110b7545","6617fad957f7c6a12ea16e26","6622cb446eae5127a7bf6e76","image grid"," ","","","","","Phylogenetic_Distractor_Nonthreat_target","ongrid","800","p","8","Phylogenetic","false","experimental"
"","null","html-keyboard-response","291","483620","0.0-13.0-2.26","sIZWIAwLIO","5ca4d7e75d545300110b7545","6617fad957f7c6a12ea16e26","6622cb446eae5127a7bf6e76","
    <div id=""grid-container"">
        <!-- Grid items will be dynamically added here -->
    </div>    ","null","","","","","","","","","","","",""
"","463","html-keyboard-response","292","484326","0.0-13.0-0.27","sIZWIAwLIO","5ca4d7e75d545300110b7545","6617fad957f7c6a12ea16e26","6622cb446eae5127a7bf6e76","fixation cross"," ","","","","","","","","","","","",""
"","null","html-keyboard-response","293","485129","0.0-13.0-1.27","sIZWIAwLIO","5ca4d7e75d545300110b7545","6617fad957f7c6a12ea16e26","6622cb446eae5127a7bf6e76","
        <div id=""grid-container"">
        <!-- Grid items will be dynamically added here -->
    </div>    ","null","","","","","","","","","","","",""
"","3470","html-keyboard-response","294","487800","0.0-13.0-2.27","sIZWIAwLIO","5ca4d7e75d545300110b7545","6617fad957f7c6a12ea16e26","6622cb446eae5127a7bf6e76","mask grid"," ","","","","","Phylogenetic_Distractor_Nonthreat_target","onmask","800","p","3","Phylogenetic","false","experimental"
"","null","html-keyboard-response","295","488505","0.0-13.0-0.28","sIZWIAwLIO","5ca4d7e75d545300110b7545","6617fad957f7c6a12ea16e26","6622cb446eae5127a7bf6e76","fixation cross","null","","","","","","","","","","","",""
"","null","html-keyboard-response","296","489307","0.0-13.0-1.28","sIZWIAwLIO","5ca4d7e75d545300110b7545","6617fad957f7c6a12ea16e26","6622cb446eae5127a7bf6e76","
        <div id=""grid-container"">
        <!-- Grid items will be dynamically added here -->
    </div>    ","null","","","","","","","","","","","",""
"","800","html-keyboard-response","297","494309","0.0-13.0-2.28","sIZWIAwLIO","5ca4d7e75d545300110b7545","6617fad957f7c6a12ea16e26","6622cb446eae5127a7bf6e76","mask grid","null","","","","","Phylogenetic_Distractor_Threat_target","onmask","800","q","4","Phylogenetic","false","experimental"
"","null","html-keyboard-response","298","495015","0.0-13.0-0.29","sIZWIAwLIO","5ca4d7e75d545300110b7545","6617fad957f7c6a12ea16e26","6622cb446eae5127a7bf6e76","fixation cross","null","","","","","","","","","","","",""
"","null","html-keyboard-response","299","495817","0.0-13.0-1.29","sIZWIAwLIO","5ca4d7e75d545300110b7545","6617fad957f7c6a12ea16e26","6622cb446eae5127a7bf6e76","
        <div id=""grid-container"">
        <!-- Grid items will be dynamically added here -->
    </div>    ","null","","","","","","","","","","","",""
"","2265","html-keyboard-response","300","497282","0.0-13.0-2.29","sIZWIAwLIO","5ca4d7e75d545300110b7545","6617fad957f7c6a12ea16e26","6622cb446eae5127a7bf6e76","mask grid"," ","","","","","Phylogenetic_Distractor_Threat_target","onmask","800","q","6","Phylogenetic","false","experimental"
"","null","html-keyboard-response","301","497988","0.0-13.0-0.30","sIZWIAwLIO","5ca4d7e75d545300110b7545","6617fad957f7c6a12ea16e26","6622cb446eae5127a7bf6e76","fixation cross","null","","","","","","","","","","","",""
"","221","html-keyboard-response","302","498209","0.0-13.0-1.30","sIZWIAwLIO","5ca4d7e75d545300110b7545","6617fad957f7c6a12ea16e26","6622cb446eae5127a7bf6e76","image grid"," ","","","","","Phylogenetic_Distractor_Nonthreat_target","ongrid","800","p","5","Phylogenetic","false","experimental"
"","null","html-keyboard-response","303","498362","0.0-13.0-2.30","sIZWIAwLIO","5ca4d7e75d545300110b7545","6617fad957f7c6a12ea16e26","6622cb446eae5127a7bf6e76","
    <div id=""grid-container"">
        <!-- Grid items will be dynamically added here -->
    </div>    ","null","","","","","","","","","","","",""
"","null","html-keyboard-response","304","499064","0.0-13.0-0.31","sIZWIAwLIO","5ca4d7e75d545300110b7545","6617fad957f7c6a12ea16e26","6622cb446eae5127a7bf6e76","fixation cross","null","","","","","","","","","","","",""
"","null","html-keyboard-response","305","499868","0.0-13.0-1.31","sIZWIAwLIO","5ca4d7e75d545300110b7545","6617fad957f7c6a12ea16e26","6622cb446eae5127a7bf6e76","
        <div id=""grid-container"">
        <!-- Grid items will be dynamically added here -->
    </div>    ","null","","","","","","","","","","","",""
"","2130","html-keyboard-response","306","501198","0.0-13.0-2.31","sIZWIAwLIO","5ca4d7e75d545300110b7545","6617fad957f7c6a12ea16e26","6622cb446eae5127a7bf6e76","mask grid"," ","","","","","Phylogenetic_Distractor_Threat_target","onmask","800","q","1","Phylogenetic","false","experimental"
"","null","html-keyboard-response","307","501903","0.0-13.0-0.32","sIZWIAwLIO","5ca4d7e75d545300110b7545","6617fad957f7c6a12ea16e26","6622cb446eae5127a7bf6e76","fixation cross","null","","","","","","","","","","","",""
"","null","html-keyboard-response","308","502705","0.0-13.0-1.32","sIZWIAwLIO","5ca4d7e75d545300110b7545","6617fad957f7c6a12ea16e26","6622cb446eae5127a7bf6e76","
        <div id=""grid-container"">
        <!-- Grid items will be dynamically added here -->
    </div>    ","null","","","","","","","","","","","",""
"","3910","html-keyboard-response","309","505817","0.0-13.0-2.32","sIZWIAwLIO","5ca4d7e75d545300110b7545","6617fad957f7c6a12ea16e26","6622cb446eae5127a7bf6e76","mask grid"," ","","","","","Phylogenetic_Distractor_notarget","onmask","800"," ","4","Phylogenetic","true","experimental"
"","null","html-keyboard-response","310","506520","0.0-13.0-0.33","sIZWIAwLIO","5ca4d7e75d545300110b7545","6617fad957f7c6a12ea16e26","6622cb446eae5127a7bf6e76","fixation cross","null","","","","","","","","","","","",""
"","null","html-keyboard-response","311","507326","0.0-13.0-1.33","sIZWIAwLIO","5ca4d7e75d545300110b7545","6617fad957f7c6a12ea16e26","6622cb446eae5127a7bf6e76","
        <div id=""grid-container"">
        <!-- Grid items will be dynamically added here -->
    </div>    ","null","","","","","","","","","","","",""
"","3275","html-keyboard-response","312","509802","0.0-13.0-2.33","sIZWIAwLIO","5ca4d7e75d545300110b7545","6617fad957f7c6a12ea16e26","6622cb446eae5127a7bf6e76","mask grid"," ","","","","","Phylogenetic_Distractor_Threat_target","onmask","800","q","2","Phylogenetic","false","experimental"
"","null","html-keyboard-response","313","510507","0.0-13.0-0.34","sIZWIAwLIO","5ca4d7e75d545300110b7545","6617fad957f7c6a12ea16e26","6622cb446eae5127a7bf6e76","fixation cross","null","","","","","","","","","","","",""
"","null","html-keyboard-response","314","511309","0.0-13.0-1.34","sIZWIAwLIO","5ca4d7e75d545300110b7545","6617fad957f7c6a12ea16e26","6622cb446eae5127a7bf6e76","
        <div id=""grid-container"">
        <!-- Grid items will be dynamically added here -->
    </div>    ","null","","","","","","","","","","","",""
"","1004","html-keyboard-response","315","511514","0.0-13.0-2.34","sIZWIAwLIO","5ca4d7e75d545300110b7545","6617fad957f7c6a12ea16e26","6622cb446eae5127a7bf6e76","mask grid"," ","","","","","Phylogenetic_Distractor_notarget","onmask","800"," ","3","Phylogenetic","true","experimental"
"","null","html-keyboard-response","316","512219","0.0-13.0-0.35","sIZWIAwLIO","5ca4d7e75d545300110b7545","6617fad957f7c6a12ea16e26","6622cb446eae5127a7bf6e76","fixation cross","null","","","","","","","","","","","",""
"","null","html-keyboard-response","317","513025","0.0-13.0-1.35","sIZWIAwLIO","5ca4d7e75d545300110b7545","6617fad957f7c6a12ea16e26","6622cb446eae5127a7bf6e76","
        <div id=""grid-container"">
        <!-- Grid items will be dynamically added here -->
    </div>    ","null","","","","","","","","","","","",""
"","4217","html-keyboard-response","318","516443","0.0-13.0-2.35","sIZWIAwLIO","5ca4d7e75d545300110b7545","6617fad957f7c6a12ea16e26","6622cb446eae5127a7bf6e76","mask grid"," ","","","","","Phylogenetic_Distractor_Threat_target","onmask","800","q","2","Phylogenetic","false","experimental"
"","null","html-keyboard-response","319","517147","0.0-13.0-0.36","sIZWIAwLIO","5ca4d7e75d545300110b7545","6617fad957f7c6a12ea16e26","6622cb446eae5127a7bf6e76","fixation cross","null","","","","","","","","","","","",""
"","null","html-keyboard-response","320","517950","0.0-13.0-1.36","sIZWIAwLIO","5ca4d7e75d545300110b7545","6617fad957f7c6a12ea16e26","6622cb446eae5127a7bf6e76","
        <div id=""grid-container"">
        <!-- Grid items will be dynamically added here -->
    </div>    ","null","","","","","","","","","","","",""
"","1197","html-keyboard-response","321","518347","0.0-13.0-2.36","sIZWIAwLIO","5ca4d7e75d545300110b7545","6617fad957f7c6a12ea16e26","6622cb446eae5127a7bf6e76","mask grid"," ","","","","","Phylogenetic_Distractor_Threat_target","onmask","800","q","3","Phylogenetic","false","experimental"
"","null","html-keyboard-response","322","519051","0.0-13.0-0.37","sIZWIAwLIO","5ca4d7e75d545300110b7545","6617fad957f7c6a12ea16e26","6622cb446eae5127a7bf6e76","fixation cross","null","","","","","","","","","","","",""
"","null","html-keyboard-response","323","519854","0.0-13.0-1.37","sIZWIAwLIO","5ca4d7e75d545300110b7545","6617fad957f7c6a12ea16e26","6622cb446eae5127a7bf6e76","
        <div id=""grid-container"">
        <!-- Grid items will be dynamically added here -->
    </div>    ","null","","","","","","","","","","","",""
"","3643","html-keyboard-response","324","522697","0.0-13.0-2.37","sIZWIAwLIO","5ca4d7e75d545300110b7545","6617fad957f7c6a12ea16e26","6622cb446eae5127a7bf6e76","mask grid"," ","","","","","Phylogenetic_Distractor_Nonthreat_target","onmask","800","p","8","Phylogenetic","false","experimental"
"","null","html-keyboard-response","325","523404","0.0-13.0-0.38","sIZWIAwLIO","5ca4d7e75d545300110b7545","6617fad957f7c6a12ea16e26","6622cb446eae5127a7bf6e76","fixation cross","null","","","","","","","","","","","",""
"","117","html-keyboard-response","326","523522","0.0-13.0-1.38","sIZWIAwLIO","5ca4d7e75d545300110b7545","6617fad957f7c6a12ea16e26","6622cb446eae5127a7bf6e76","image grid"," ","","","","","Phylogenetic_Distractor_Threat_target","ongrid","800","q","4","Phylogenetic","false","experimental"
"","null","html-keyboard-response","327","523675","0.0-13.0-2.38","sIZWIAwLIO","5ca4d7e75d545300110b7545","6617fad957f7c6a12ea16e26","6622cb446eae5127a7bf6e76","
    <div id=""grid-container"">
        <!-- Grid items will be dynamically added here -->
    </div>    ","null","","","","","","","","","","","",""
"","205","html-keyboard-response","328","524381","0.0-13.0-0.39","sIZWIAwLIO","5ca4d7e75d545300110b7545","6617fad957f7c6a12ea16e26","6622cb446eae5127a7bf6e76","fixation cross"," ","","","","","","","","","","","",""
"","160","html-keyboard-response","329","524543","0.0-13.0-1.39","sIZWIAwLIO","5ca4d7e75d545300110b7545","6617fad957f7c6a12ea16e26","6622cb446eae5127a7bf6e76","image grid"," ","","","","","Phylogenetic_Distractor_Threat_target","ongrid","800","q","5","Phylogenetic","false","experimental"
"","null","html-keyboard-response","330","524696","0.0-13.0-2.39","sIZWIAwLIO","5ca4d7e75d545300110b7545","6617fad957f7c6a12ea16e26","6622cb446eae5127a7bf6e76","
    <div id=""grid-container"">
        <!-- Grid items will be dynamically added here -->
    </div>    ","null","","","","","","","","","","","",""
"","604","html-keyboard-response","331","525502","0.0-14.0","sIZWIAwLIO","5ca4d7e75d545300110b7545","6617fad957f7c6a12ea16e26","6622cb446eae5127a7bf6e76","break screen","s","","","","","","","","","","","",""
"","null","html-keyboard-response","332","528005","0.0-15.0-0.0","sIZWIAwLIO","5ca4d7e75d545300110b7545","6617fad957f7c6a12ea16e26","6622cb446eae5127a7bf6e76","fixation cross","null","","","","","","","","","","","",""
"","null","html-keyboard-response","333","530508","0.0-15.0-1.0","sIZWIAwLIO","5ca4d7e75d545300110b7545","6617fad957f7c6a12ea16e26","6622cb446eae5127a7bf6e76","
        <div id=""grid-container"">
        <!-- Grid items will be dynamically added here -->
    </div>    ","null","","","","","","","","","","","",""
"","2955","html-keyboard-response","334","530963","0.0-15.0-2.0","sIZWIAwLIO","5ca4d7e75d545300110b7545","6617fad957f7c6a12ea16e26","6622cb446eae5127a7bf6e76","mask grid"," ","","","","","Ontogenetic_Distractor_Threat_target","onmask","2500","q","8","Ontogenetic","false","experimental"
"","null","html-keyboard-response","335","531668","0.0-15.0-0.1","sIZWIAwLIO","5ca4d7e75d545300110b7545","6617fad957f7c6a12ea16e26","6622cb446eae5127a7bf6e76","fixation cross","null","","","","","","","","","","","",""
"","1030","html-keyboard-response","336","532699","0.0-15.0-1.1","sIZWIAwLIO","5ca4d7e75d545300110b7545","6617fad957f7c6a12ea16e26","6622cb446eae5127a7bf6e76","image grid"," ","","","","","Ontogenetic_Distractor_Threat_target","ongrid","2500","q","3","Ontogenetic","false","experimental"
"","null","html-keyboard-response","337","532855","0.0-15.0-2.1","sIZWIAwLIO","5ca4d7e75d545300110b7545","6617fad957f7c6a12ea16e26","6622cb446eae5127a7bf6e76","
    <div id=""grid-container"">
        <!-- Grid items will be dynamically added here -->
    </div>    ","null","","","","","","","","","","","",""
"","null","html-keyboard-response","338","533559","0.0-15.0-0.2","sIZWIAwLIO","5ca4d7e75d545300110b7545","6617fad957f7c6a12ea16e26","6622cb446eae5127a7bf6e76","fixation cross","null","","","","","","","","","","","",""
"","755","html-keyboard-response","339","534314","0.0-15.0-1.2","sIZWIAwLIO","5ca4d7e75d545300110b7545","6617fad957f7c6a12ea16e26","6622cb446eae5127a7bf6e76","image grid"," ","","","","","Ontogenetic_Distractor_Threat_target","ongrid","2500","q","1","Ontogenetic","false","experimental"
"","null","html-keyboard-response","340","534468","0.0-15.0-2.2","sIZWIAwLIO","5ca4d7e75d545300110b7545","6617fad957f7c6a12ea16e26","6622cb446eae5127a7bf6e76","
    <div id=""grid-container"">
        <!-- Grid items will be dynamically added here -->
    </div>    ","null","","","","","","","","","","","",""
"","null","html-keyboard-response","341","535173","0.0-15.0-0.3","sIZWIAwLIO","5ca4d7e75d545300110b7545","6617fad957f7c6a12ea16e26","6622cb446eae5127a7bf6e76","fixation cross","null","","","","","","","","","","","",""
"","null","html-keyboard-response","342","537675","0.0-15.0-1.3","sIZWIAwLIO","5ca4d7e75d545300110b7545","6617fad957f7c6a12ea16e26","6622cb446eae5127a7bf6e76","
        <div id=""grid-container"">
        <!-- Grid items will be dynamically added here -->
    </div>    ","null","","","","","","","","","","","",""
"","2682","html-keyboard-response","343","537858","0.0-15.0-2.3","sIZWIAwLIO","5ca4d7e75d545300110b7545","6617fad957f7c6a12ea16e26","6622cb446eae5127a7bf6e76","mask grid"," ","","","","","Ontogenetic_Distractor_Threat_target","onmask","2500","q","7","Ontogenetic","false","experimental"
"","103","html-keyboard-response","344","538562","0.0-15.0-0.4","sIZWIAwLIO","5ca4d7e75d545300110b7545","6617fad957f7c6a12ea16e26","6622cb446eae5127a7bf6e76","fixation cross","g","","","","","","","","","","","",""
"","null","html-keyboard-response","345","541064","0.0-15.0-1.4","sIZWIAwLIO","5ca4d7e75d545300110b7545","6617fad957f7c6a12ea16e26","6622cb446eae5127a7bf6e76","
        <div id=""grid-container"">
        <!-- Grid items will be dynamically added here -->
    </div>    ","null","","","","","","","","","","","",""
"","2539","html-keyboard-response","346","541103","0.0-15.0-2.4","sIZWIAwLIO","5ca4d7e75d545300110b7545","6617fad957f7c6a12ea16e26","6622cb446eae5127a7bf6e76","mask grid"," ","","","","","Ontogenetic_Distractor_Threat_target","onmask","2500","q","3","Ontogenetic","false","experimental"
"","null","html-keyboard-response","347","541809","0.0-15.0-0.5","sIZWIAwLIO","5ca4d7e75d545300110b7545","6617fad957f7c6a12ea16e26","6622cb446eae5127a7bf6e76","fixation cross","null","","","","","","","","","","","",""
"","1770","html-keyboard-response","348","543580","0.0-15.0-1.5","sIZWIAwLIO","5ca4d7e75d545300110b7545","6617fad957f7c6a12ea16e26","6622cb446eae5127a7bf6e76","image grid"," ","","","","","Ontogenetic_Distractor_notarget","ongrid","2500"," ","7","Ontogenetic","true","experimental"
"","null","html-keyboard-response","349","543733","0.0-15.0-2.5","sIZWIAwLIO","5ca4d7e75d545300110b7545","6617fad957f7c6a12ea16e26","6622cb446eae5127a7bf6e76","
    <div id=""grid-container"">
        <!-- Grid items will be dynamically added here -->
    </div>    ","null","","","","","","","","","","","",""
"","null","html-keyboard-response","350","544437","0.0-15.0-0.6","sIZWIAwLIO","5ca4d7e75d545300110b7545","6617fad957f7c6a12ea16e26","6622cb446eae5127a7bf6e76","fixation cross","null","","","","","","","","","","","",""
"","null","html-keyboard-response","351","546939","0.0-15.0-1.6","sIZWIAwLIO","5ca4d7e75d545300110b7545","6617fad957f7c6a12ea16e26","6622cb446eae5127a7bf6e76","
        <div id=""grid-container"">
        <!-- Grid items will be dynamically added here -->
    </div>    ","null","","","","","","","","","","","",""
"","4772","html-keyboard-response","352","549212","0.0-15.0-2.6","sIZWIAwLIO","5ca4d7e75d545300110b7545","6617fad957f7c6a12ea16e26","6622cb446eae5127a7bf6e76","mask grid"," ","","","","","Ontogenetic_Distractor_Nonthreat_target","onmask","2500","p","5","Ontogenetic","false","experimental"
"","null","html-keyboard-response","353","549919","0.0-15.0-0.7","sIZWIAwLIO","5ca4d7e75d545300110b7545","6617fad957f7c6a12ea16e26","6622cb446eae5127a7bf6e76","fixation cross","null","","","","","","","","","","","",""
"","660","html-keyboard-response","354","550579","0.0-15.0-1.7","sIZWIAwLIO","5ca4d7e75d545300110b7545","6617fad957f7c6a12ea16e26","6622cb446eae5127a7bf6e76","image grid"," ","","","","","Ontogenetic_Distractor_Threat_target","ongrid","2500","q","2","Ontogenetic","false","experimental"
"","null","html-keyboard-response","355","550732","0.0-15.0-2.7","sIZWIAwLIO","5ca4d7e75d545300110b7545","6617fad957f7c6a12ea16e26","6622cb446eae5127a7bf6e76","
    <div id=""grid-container"">
        <!-- Grid items will be dynamically added here -->
    </div>    ","null","","","","","","","","","","","",""
"","null","html-keyboard-response","356","551438","0.0-15.0-0.8","sIZWIAwLIO","5ca4d7e75d545300110b7545","6617fad957f7c6a12ea16e26","6622cb446eae5127a7bf6e76","fixation cross","null","","","","","","","","","","","",""
"","null","html-keyboard-response","357","553943","0.0-15.0-1.8","sIZWIAwLIO","5ca4d7e75d545300110b7545","6617fad957f7c6a12ea16e26","6622cb446eae5127a7bf6e76","
        <div id=""grid-container"">
        <!-- Grid items will be dynamically added here -->
    </div>    ","null","","","","","","","","","","","",""
"","2500","html-keyboard-response","358","558944","0.0-15.0-2.8","sIZWIAwLIO","5ca4d7e75d545300110b7545","6617fad957f7c6a12ea16e26","6622cb446eae5127a7bf6e76","mask grid","null","","","","","Ontogenetic_Distractor_Threat_target","onmask","2500","q","2","Ontogenetic","false","experimental"
"","175","html-keyboard-response","359","559650","0.0-15.0-0.9","sIZWIAwLIO","5ca4d7e75d545300110b7545","6617fad957f7c6a12ea16e26","6622cb446eae5127a7bf6e76","fixation cross"," ","","","","","","","","","","","",""
"","null","html-keyboard-response","360","562154","0.0-15.0-1.9","sIZWIAwLIO","5ca4d7e75d545300110b7545","6617fad957f7c6a12ea16e26","6622cb446eae5127a7bf6e76","
        <div id=""grid-container"">
        <!-- Grid items will be dynamically added here -->
    </div>    ","null","","","","","","","","","","","",""
"","2984","html-keyboard-response","361","562639","0.0-15.0-2.9","sIZWIAwLIO","5ca4d7e75d545300110b7545","6617fad957f7c6a12ea16e26","6622cb446eae5127a7bf6e76","mask grid","p","","","","","Ontogenetic_Distractor_Nonthreat_target","onmask","2500","p","1","Ontogenetic","true","experimental"
"","null","html-keyboard-response","362","563343","0.0-15.0-0.10","sIZWIAwLIO","5ca4d7e75d545300110b7545","6617fad957f7c6a12ea16e26","6622cb446eae5127a7bf6e76","fixation cross","null","","","","","","","","","","","",""
"","94","html-keyboard-response","363","563439","0.0-15.0-1.10","sIZWIAwLIO","5ca4d7e75d545300110b7545","6617fad957f7c6a12ea16e26","6622cb446eae5127a7bf6e76","image grid"," ","","","","","Ontogenetic_Distractor_Threat_target","ongrid","2500","q","3","Ontogenetic","false","experimental"
"","null","html-keyboard-response","364","563592","0.0-15.0-2.10","sIZWIAwLIO","5ca4d7e75d545300110b7545","6617fad957f7c6a12ea16e26","6622cb446eae5127a7bf6e76","
    <div id=""grid-container"">
        <!-- Grid items will be dynamically added here -->
    </div>    ","null","","","","","","","","","","","",""
"","null","html-keyboard-response","365","564296","0.0-15.0-0.11","sIZWIAwLIO","5ca4d7e75d545300110b7545","6617fad957f7c6a12ea16e26","6622cb446eae5127a7bf6e76","fixation cross","null","","","","","","","","","","","",""
"","2122","html-keyboard-response","366","566419","0.0-15.0-1.11","sIZWIAwLIO","5ca4d7e75d545300110b7545","6617fad957f7c6a12ea16e26","6622cb446eae5127a7bf6e76","image grid","p","","","","","Ontogenetic_Distractor_Nonthreat_target","ongrid","2500","p","6","Ontogenetic","true","experimental"
"","null","html-keyboard-response","367","566572","0.0-15.0-2.11","sIZWIAwLIO","5ca4d7e75d545300110b7545","6617fad957f7c6a12ea16e26","6622cb446eae5127a7bf6e76","
    <div id=""grid-container"">
        <!-- Grid items will be dynamically added here -->
    </div>    ","null","","","","","","","","","","","",""
"","null","html-keyboard-response","368","567276","0.0-15.0-0.12","sIZWIAwLIO","5ca4d7e75d545300110b7545","6617fad957f7c6a12ea16e26","6622cb446eae5127a7bf6e76","fixation cross","null","","","","","","","","","","","",""
"","null","html-keyboard-response","369","569779","0.0-15.0-1.12","sIZWIAwLIO","5ca4d7e75d545300110b7545","6617fad957f7c6a12ea16e26","6622cb446eae5127a7bf6e76","
        <div id=""grid-container"">
        <!-- Grid items will be dynamically added here -->
