"success","rt","trial_type","trial_index","time_elapsed","internal_node_id","unique_identifier","subject_id","study_id","session_id","stimulus","response","timeout","failed_images","failed_audio","failed_video","task","time_manipulation","respondedwhen","correctresponse","targetimagelocation","blocktype","correct","roundtype"
"true","1824","fullscreen","0","2841","0.0-0.0","cfqIV3Nz4B","5e54dced73aedb4d4b807060","6617fad957f7c6a12ea16e26","6622c9b6a0323a9b731e8303","","","","","","","","","","","","","",""
"","7425","html-keyboard-response","1","10271","0.0-1.0","cfqIV3Nz4B","5e54dced73aedb4d4b807060","6617fad957f7c6a12ea16e26","6622c9b6a0323a9b731e8303","instruction screen 0"," ","","","","","","","","","","","",""
"true","","preload","2","23089","0.0-2.0","cfqIV3Nz4B","5e54dced73aedb4d4b807060","6617fad957f7c6a12ea16e26","6622c9b6a0323a9b731e8303","","","false","[]","[]","[]","","","","","","","",""
"","6538","html-keyboard-response","3","29629","0.0-3.0","cfqIV3Nz4B","5e54dced73aedb4d4b807060","6617fad957f7c6a12ea16e26","6622c9b6a0323a9b731e8303","instruction screen 1"," ","","","","","","","","","","","",""
"","6606","html-keyboard-response","4","36244","0.0-4.0","cfqIV3Nz4B","5e54dced73aedb4d4b807060","6617fad957f7c6a12ea16e26","6622c9b6a0323a9b731e8303","instruction screen 2","q","","","","","","","","","","","",""
"","3653","html-keyboard-response","5","39905","0.0-5.0","cfqIV3Nz4B","5e54dced73aedb4d4b807060","6617fad957f7c6a12ea16e26","6622c9b6a0323a9b731e8303","instruction screen 3","p","","","","","","","","","","","",""
"","4755","html-keyboard-response","6","44669","0.0-6.0","cfqIV3Nz4B","5e54dced73aedb4d4b807060","6617fad957f7c6a12ea16e26","6622c9b6a0323a9b731e8303","instruction screen 4"," ","","","","","","","","","","","",""
"","8400","html-keyboard-response","7","53077","0.0-7.0","cfqIV3Nz4B","5e54dced73aedb4d4b807060","6617fad957f7c6a12ea16e26","6622c9b6a0323a9b731e8303","instruction screen 5"," ","","","","","","","","","","","",""
"","null","html-keyboard-response","8","53673","0.0-8.0","cfqIV3Nz4B","5e54dced73aedb4d4b807060","6617fad957f7c6a12ea16e26","6622c9b6a0323a9b731e8303","fixation cross","null","","","","","","","","","","","",""
"","null","html-keyboard-response","9","54184","0.0-9.0-0.0","cfqIV3Nz4B","5e54dced73aedb4d4b807060","6617fad957f7c6a12ea16e26","6622c9b6a0323a9b731e8303","fixation cross","null","","","","","","","","","","","",""
"","1739","html-keyboard-response","10","55924","0.0-9.0-1.0","cfqIV3Nz4B","5e54dced73aedb4d4b807060","6617fad957f7c6a12ea16e26","6622c9b6a0323a9b731e8303","image grid","q","","","","","Ontogenetic_Distractor_Threat_target","3000","ongrid","q","8","Phylogenetic","true","practice"
"","null","html-keyboard-response","11","56091","0.0-9.0-2.0","cfqIV3Nz4B","5e54dced73aedb4d4b807060","6617fad957f7c6a12ea16e26","6622c9b6a0323a9b731e8303","
    <div id=""grid-container"">
        <!-- Grid items will be dynamically added here -->
    </div>    ","null","","","","","","","","","","","",""
"","null","html-keyboard-response","12","57307","0.0-9.0-3.0","cfqIV3Nz4B","5e54dced73aedb4d4b807060","6617fad957f7c6a12ea16e26","6622c9b6a0323a9b731e8303","feedback screen","null","","","","","","","","","","","",""
"","null","html-keyboard-response","13","57828","0.0-9.0-0.1","cfqIV3Nz4B","5e54dced73aedb4d4b807060","6617fad957f7c6a12ea16e26","6622c9b6a0323a9b731e8303","fixation cross","null","","","","","","","","","","","",""
"","1640","html-keyboard-response","14","59469","0.0-9.0-1.1","cfqIV3Nz4B","5e54dced73aedb4d4b807060","6617fad957f7c6a12ea16e26","6622c9b6a0323a9b731e8303","image grid","p","","","","","Ontogenetic_Distractor_Nonthreat_target","2900","ongrid","p","6","Phylogenetic","true","practice"
"","null","html-keyboard-response","15","59640","0.0-9.0-2.1","cfqIV3Nz4B","5e54dced73aedb4d4b807060","6617fad957f7c6a12ea16e26","6622c9b6a0323a9b731e8303","
    <div id=""grid-container"">
        <!-- Grid items will be dynamically added here -->
    </div>    ","null","","","","","","","","","","","",""
"","null","html-keyboard-response","16","60854","0.0-9.0-3.1","cfqIV3Nz4B","5e54dced73aedb4d4b807060","6617fad957f7c6a12ea16e26","6622c9b6a0323a9b731e8303","feedback screen","null","","","","","","","","","","","",""
"","null","html-keyboard-response","17","61373","0.0-9.0-0.2","cfqIV3Nz4B","5e54dced73aedb4d4b807060","6617fad957f7c6a12ea16e26","6622c9b6a0323a9b731e8303","fixation cross","null","","","","","","","","","","","",""
"","2020","html-keyboard-response","18","63394","0.0-9.0-1.2","cfqIV3Nz4B","5e54dced73aedb4d4b807060","6617fad957f7c6a12ea16e26","6622c9b6a0323a9b731e8303","image grid"," ","","","","","Phylogenetic_Distractor_Nonthreat_target","2800","ongrid","p","9","Phylogenetic","false","practice"
"","null","html-keyboard-response","19","63556","0.0-9.0-2.2","cfqIV3Nz4B","5e54dced73aedb4d4b807060","6617fad957f7c6a12ea16e26","6622c9b6a0323a9b731e8303","
    <div id=""grid-container"">
        <!-- Grid items will be dynamically added here -->
    </div>    ","null","","","","","","","","","","","",""
"","null","html-keyboard-response","20","64777","0.0-9.0-3.2","cfqIV3Nz4B","5e54dced73aedb4d4b807060","6617fad957f7c6a12ea16e26","6622c9b6a0323a9b731e8303","feedback screen","null","","","","","","","","","","","",""
"","null","html-keyboard-response","21","65287","0.0-9.0-0.3","cfqIV3Nz4B","5e54dced73aedb4d4b807060","6617fad957f7c6a12ea16e26","6622c9b6a0323a9b731e8303","fixation cross","null","","","","","","","","","","","",""
"","1073","html-keyboard-response","22","66361","0.0-9.0-1.3","cfqIV3Nz4B","5e54dced73aedb4d4b807060","6617fad957f7c6a12ea16e26","6622c9b6a0323a9b731e8303","image grid","p","","","","","Ontogenetic_Distractor_Threat_target","2700","ongrid","q","3","Phylogenetic","false","practice"
"","null","html-keyboard-response","23","66523","0.0-9.0-2.3","cfqIV3Nz4B","5e54dced73aedb4d4b807060","6617fad957f7c6a12ea16e26","6622c9b6a0323a9b731e8303","
    <div id=""grid-container"">
        <!-- Grid items will be dynamically added here -->
    </div>    ","null","","","","","","","","","","","",""
"","null","html-keyboard-response","24","67732","0.0-9.0-3.3","cfqIV3Nz4B","5e54dced73aedb4d4b807060","6617fad957f7c6a12ea16e26","6622c9b6a0323a9b731e8303","feedback screen","null","","","","","","","","","","","",""
"","null","html-keyboard-response","25","68238","0.0-9.0-0.4","cfqIV3Nz4B","5e54dced73aedb4d4b807060","6617fad957f7c6a12ea16e26","6622c9b6a0323a9b731e8303","fixation cross","null","","","","","","","","","","","",""
"","null","html-keyboard-response","26","70843","0.0-9.0-1.4","cfqIV3Nz4B","5e54dced73aedb4d4b807060","6617fad957f7c6a12ea16e26","6622c9b6a0323a9b731e8303","
        <div id=""grid-container"">
        <!-- Grid items will be dynamically added here -->
    </div>    ","null","","","","","","","","","","","",""
"","3548","html-keyboard-response","27","71792","0.0-9.0-2.4","cfqIV3Nz4B","5e54dced73aedb4d4b807060","6617fad957f7c6a12ea16e26","6622c9b6a0323a9b731e8303","mask grid","p","","","","","Phylogenetic_Distractor_Nonthreat_target","2600","onmask","p","2","Phylogenetic","true","practice"
"","null","html-keyboard-response","28","73005","0.0-9.0-3.4","cfqIV3Nz4B","5e54dced73aedb4d4b807060","6617fad957f7c6a12ea16e26","6622c9b6a0323a9b731e8303","feedback screen","null","","","","","","","","","","","",""
"","null","html-keyboard-response","29","73516","0.0-9.0-0.5","cfqIV3Nz4B","5e54dced73aedb4d4b807060","6617fad957f7c6a12ea16e26","6622c9b6a0323a9b731e8303","fixation cross","null","","","","","","","","","","","",""
"","null","html-keyboard-response","30","76026","0.0-9.0-1.5","cfqIV3Nz4B","5e54dced73aedb4d4b807060","6617fad957f7c6a12ea16e26","6622c9b6a0323a9b731e8303","
        <div id=""grid-container"">
        <!-- Grid items will be dynamically added here -->
    </div>    ","null","","","","","","","","","","","",""
"","3224","html-keyboard-response","31","76750","0.0-9.0-2.5","cfqIV3Nz4B","5e54dced73aedb4d4b807060","6617fad957f7c6a12ea16e26","6622c9b6a0323a9b731e8303","mask grid"," ","","","","","Phylogenetic_Distractor_notarget","2500","onmask"," ","5","Phylogenetic","true","practice"
"","null","html-keyboard-response","32","77972","0.0-9.0-3.5","cfqIV3Nz4B","5e54dced73aedb4d4b807060","6617fad957f7c6a12ea16e26","6622c9b6a0323a9b731e8303","feedback screen","null","","","","","","","","","","","",""
"","null","html-keyboard-response","33","78489","0.0-9.0-0.6","cfqIV3Nz4B","5e54dced73aedb4d4b807060","6617fad957f7c6a12ea16e26","6622c9b6a0323a9b731e8303","fixation cross","null","","","","","","","","","","","",""
"","null","html-keyboard-response","34","80902","0.0-9.0-1.6","cfqIV3Nz4B","5e54dced73aedb4d4b807060","6617fad957f7c6a12ea16e26","6622c9b6a0323a9b731e8303","
        <div id=""grid-container"">
        <!-- Grid items will be dynamically added here -->
    </div>    ","null","","","","","","","","","","","",""
"","2849","html-keyboard-response","35","81351","0.0-9.0-2.6","cfqIV3Nz4B","5e54dced73aedb4d4b807060","6617fad957f7c6a12ea16e26","6622c9b6a0323a9b731e8303","mask grid","p","","","","","Phylogenetic_Distractor_Nonthreat_target","2400","onmask","p","1","Phylogenetic","true","practice"
"","null","html-keyboard-response","36","82584","0.0-9.0-3.6","cfqIV3Nz4B","5e54dced73aedb4d4b807060","6617fad957f7c6a12ea16e26","6622c9b6a0323a9b731e8303","feedback screen","null","","","","","","","","","","","",""
"","null","html-keyboard-response","37","83096","0.0-9.0-0.7","cfqIV3Nz4B","5e54dced73aedb4d4b807060","6617fad957f7c6a12ea16e26","6622c9b6a0323a9b731e8303","fixation cross","null","","","","","","","","","","","",""
"","null","html-keyboard-response","38","85404","0.0-9.0-1.7","cfqIV3Nz4B","5e54dced73aedb4d4b807060","6617fad957f7c6a12ea16e26","6622c9b6a0323a9b731e8303","
        <div id=""grid-container"">
        <!-- Grid items will be dynamically added here -->
    </div>    ","null","","","","","","","","","","","",""
"","2615","html-keyboard-response","39","85719","0.0-9.0-2.7","cfqIV3Nz4B","5e54dced73aedb4d4b807060","6617fad957f7c6a12ea16e26","6622c9b6a0323a9b731e8303","mask grid","q","","","","","Phylogenetic_Distractor_Threat_target","2300","onmask","q","1","Phylogenetic","true","practice"
"","null","html-keyboard-response","40","86945","0.0-9.0-3.7","cfqIV3Nz4B","5e54dced73aedb4d4b807060","6617fad957f7c6a12ea16e26","6622c9b6a0323a9b731e8303","feedback screen","null","","","","","","","","","","","",""
"","null","html-keyboard-response","41","87460","0.0-9.0-0.8","cfqIV3Nz4B","5e54dced73aedb4d4b807060","6617fad957f7c6a12ea16e26","6622c9b6a0323a9b731e8303","fixation cross","null","","","","","","","","","","","",""
"","null","html-keyboard-response","42","89668","0.0-9.0-1.8","cfqIV3Nz4B","5e54dced73aedb4d4b807060","6617fad957f7c6a12ea16e26","6622c9b6a0323a9b731e8303","
        <div id=""grid-container"">
        <!-- Grid items will be dynamically added here -->
    </div>    ","null","","","","","","","","","","","",""
"","2529","html-keyboard-response","43","89998","0.0-9.0-2.8","cfqIV3Nz4B","5e54dced73aedb4d4b807060","6617fad957f7c6a12ea16e26","6622c9b6a0323a9b731e8303","mask grid","q","","","","","Phylogenetic_Distractor_Threat_target","2200","onmask","q","2","Phylogenetic","true","practice"
"","null","html-keyboard-response","44","91209","0.0-9.0-3.8","cfqIV3Nz4B","5e54dced73aedb4d4b807060","6617fad957f7c6a12ea16e26","6622c9b6a0323a9b731e8303","feedback screen","null","","","","","","","","","","","",""
"","null","html-keyboard-response","45","91726","0.0-9.0-0.9","cfqIV3Nz4B","5e54dced73aedb4d4b807060","6617fad957f7c6a12ea16e26","6622c9b6a0323a9b731e8303","fixation cross","null","","","","","","","","","","","",""
"","null","html-keyboard-response","46","93836","0.0-9.0-1.9","cfqIV3Nz4B","5e54dced73aedb4d4b807060","6617fad957f7c6a12ea16e26","6622c9b6a0323a9b731e8303","
        <div id=""grid-container"">
        <!-- Grid items will be dynamically added here -->
    </div>    ","null","","","","","","","","","","","",""
"","2665","html-keyboard-response","47","94403","0.0-9.0-2.9","cfqIV3Nz4B","5e54dced73aedb4d4b807060","6617fad957f7c6a12ea16e26","6622c9b6a0323a9b731e8303","mask grid","p","","","","","Ontogenetic_Distractor_Nonthreat_target","2100","onmask","p","1","Phylogenetic","true","practice"
"","null","html-keyboard-response","48","95620","0.0-9.0-3.9","cfqIV3Nz4B","5e54dced73aedb4d4b807060","6617fad957f7c6a12ea16e26","6622c9b6a0323a9b731e8303","feedback screen","null","","","","","","","","","","","",""
"","null","html-keyboard-response","49","96135","0.0-9.0-0.10","cfqIV3Nz4B","5e54dced73aedb4d4b807060","6617fad957f7c6a12ea16e26","6622c9b6a0323a9b731e8303","fixation cross","null","","","","","","","","","","","",""
"","null","html-keyboard-response","50","98149","0.0-9.0-1.10","cfqIV3Nz4B","5e54dced73aedb4d4b807060","6617fad957f7c6a12ea16e26","6622c9b6a0323a9b731e8303","
        <div id=""grid-container"">
        <!-- Grid items will be dynamically added here -->
    </div>    ","null","","","","","","","","","","","",""
"","2357","html-keyboard-response","51","98507","0.0-9.0-2.10","cfqIV3Nz4B","5e54dced73aedb4d4b807060","6617fad957f7c6a12ea16e26","6622c9b6a0323a9b731e8303","mask grid","q","","","","","Phylogenetic_Distractor_Threat_target","2000","onmask","q","9","Phylogenetic","true","practice"
"","null","html-keyboard-response","52","99728","0.0-9.0-3.10","cfqIV3Nz4B","5e54dced73aedb4d4b807060","6617fad957f7c6a12ea16e26","6622c9b6a0323a9b731e8303","feedback screen","null","","","","","","","","","","","",""
"","null","html-keyboard-response","53","100239","0.0-9.0-0.11","cfqIV3Nz4B","5e54dced73aedb4d4b807060","6617fad957f7c6a12ea16e26","6622c9b6a0323a9b731e8303","fixation cross","null","","","","","","","","","","","",""
"","null","html-keyboard-response","54","102143","0.0-9.0-1.11","cfqIV3Nz4B","5e54dced73aedb4d4b807060","6617fad957f7c6a12ea16e26","6622c9b6a0323a9b731e8303","
        <div id=""grid-container"">
        <!-- Grid items will be dynamically added here -->
    </div>    ","null","","","","","","","","","","","",""
"","2233","html-keyboard-response","55","102477","0.0-9.0-2.11","cfqIV3Nz4B","5e54dced73aedb4d4b807060","6617fad957f7c6a12ea16e26","6622c9b6a0323a9b731e8303","mask grid","p","","","","","Ontogenetic_Distractor_Nonthreat_target","1900","onmask","p","1","Phylogenetic","true","practice"
"","null","html-keyboard-response","56","103707","0.0-9.0-3.11","cfqIV3Nz4B","5e54dced73aedb4d4b807060","6617fad957f7c6a12ea16e26","6622c9b6a0323a9b731e8303","feedback screen","null","","","","","","","","","","","",""
"","null","html-keyboard-response","57","104217","0.0-9.0-0.12","cfqIV3Nz4B","5e54dced73aedb4d4b807060","6617fad957f7c6a12ea16e26","6622c9b6a0323a9b731e8303","fixation cross","null","","","","","","","","","","","",""
"","null","html-keyboard-response","58","106023","0.0-9.0-1.12","cfqIV3Nz4B","5e54dced73aedb4d4b807060","6617fad957f7c6a12ea16e26","6622c9b6a0323a9b731e8303","
        <div id=""grid-container"">
        <!-- Grid items will be dynamically added here -->
    </div>    ","null","","","","","","","","","","","",""
"","2345","html-keyboard-response","59","106568","0.0-9.0-2.12","cfqIV3Nz4B","5e54dced73aedb4d4b807060","6617fad957f7c6a12ea16e26","6622c9b6a0323a9b731e8303","mask grid"," ","","","","","Phylogenetic_Distractor_notarget","1800","onmask"," ","5","Phylogenetic","true","practice"
"","null","html-keyboard-response","60","107800","0.0-9.0-3.12","cfqIV3Nz4B","5e54dced73aedb4d4b807060","6617fad957f7c6a12ea16e26","6622c9b6a0323a9b731e8303","feedback screen","null","","","","","","","","","","","",""
"","null","html-keyboard-response","61","108316","0.0-9.0-0.13","cfqIV3Nz4B","5e54dced73aedb4d4b807060","6617fad957f7c6a12ea16e26","6622c9b6a0323a9b731e8303","fixation cross","null","","","","","","","","","","","",""
"","null","html-keyboard-response","62","110026","0.0-9.0-1.13","cfqIV3Nz4B","5e54dced73aedb4d4b807060","6617fad957f7c6a12ea16e26","6622c9b6a0323a9b731e8303","
        <div id=""grid-container"">
        <!-- Grid items will be dynamically added here -->
    </div>    ","null","","","","","","","","","","","",""
"","2022","html-keyboard-response","63","110349","0.0-9.0-2.13","cfqIV3Nz4B","5e54dced73aedb4d4b807060","6617fad957f7c6a12ea16e26","6622c9b6a0323a9b731e8303","mask grid","q","","","","","Ontogenetic_Distractor_Threat_target","1700","onmask","q","8","Phylogenetic","true","practice"
"","null","html-keyboard-response","64","111567","0.0-9.0-3.13","cfqIV3Nz4B","5e54dced73aedb4d4b807060","6617fad957f7c6a12ea16e26","6622c9b6a0323a9b731e8303","feedback screen","null","","","","","","","","","","","",""
"","null","html-keyboard-response","65","112080","0.0-9.0-0.14","cfqIV3Nz4B","5e54dced73aedb4d4b807060","6617fad957f7c6a12ea16e26","6622c9b6a0323a9b731e8303","fixation cross","null","","","","","","","","","","","",""
"","null","html-keyboard-response","66","113694","0.0-9.0-1.14","cfqIV3Nz4B","5e54dced73aedb4d4b807060","6617fad957f7c6a12ea16e26","6622c9b6a0323a9b731e8303","
        <div id=""grid-container"">
        <!-- Grid items will be dynamically added here -->
    </div>    ","null","","","","","","","","","","","",""
"","1908","html-keyboard-response","67","114003","0.0-9.0-2.14","cfqIV3Nz4B","5e54dced73aedb4d4b807060","6617fad957f7c6a12ea16e26","6622c9b6a0323a9b731e8303","mask grid","q","","","","","Ontogenetic_Distractor_Threat_target","1600","onmask","q","6","Phylogenetic","true","practice"
"","null","html-keyboard-response","68","115231","0.0-9.0-3.14","cfqIV3Nz4B","5e54dced73aedb4d4b807060","6617fad957f7c6a12ea16e26","6622c9b6a0323a9b731e8303","feedback screen","null","","","","","","","","","","","",""
"","null","html-keyboard-response","69","115746","0.0-9.0-0.15","cfqIV3Nz4B","5e54dced73aedb4d4b807060","6617fad957f7c6a12ea16e26","6622c9b6a0323a9b731e8303","fixation cross","null","","","","","","","","","","","",""
"","null","html-keyboard-response","70","117252","0.0-9.0-1.15","cfqIV3Nz4B","5e54dced73aedb4d4b807060","6617fad957f7c6a12ea16e26","6622c9b6a0323a9b731e8303","
        <div id=""grid-container"">
        <!-- Grid items will be dynamically added here -->
    </div>    ","null","","","","","","","","","","","",""
"","1844","html-keyboard-response","71","117597","0.0-9.0-2.15","cfqIV3Nz4B","5e54dced73aedb4d4b807060","6617fad957f7c6a12ea16e26","6622c9b6a0323a9b731e8303","mask grid"," ","","","","","Ontogenetic_Distractor_notarget","1500","onmask"," ","5","Phylogenetic","true","practice"
"","null","html-keyboard-response","72","118835","0.0-9.0-3.15","cfqIV3Nz4B","5e54dced73aedb4d4b807060","6617fad957f7c6a12ea16e26","6622c9b6a0323a9b731e8303","feedback screen","null","","","","","","","","","","","",""
"","null","html-keyboard-response","73","119341","0.0-9.0-0.16","cfqIV3Nz4B","5e54dced73aedb4d4b807060","6617fad957f7c6a12ea16e26","6622c9b6a0323a9b731e8303","fixation cross","null","","","","","","","","","","","",""
"","null","html-keyboard-response","74","120752","0.0-9.0-1.16","cfqIV3Nz4B","5e54dced73aedb4d4b807060","6617fad957f7c6a12ea16e26","6622c9b6a0323a9b731e8303","
        <div id=""grid-container"">
        <!-- Grid items will be dynamically added here -->
    </div>    ","null","","","","","","","","","","","",""
"","1709","html-keyboard-response","75","121062","0.0-9.0-2.16","cfqIV3Nz4B","5e54dced73aedb4d4b807060","6617fad957f7c6a12ea16e26","6622c9b6a0323a9b731e8303","mask grid"," ","","","","","Ontogenetic_Distractor_notarget","1400","onmask"," ","3","Phylogenetic","true","practice"
"","null","html-keyboard-response","76","122274","0.0-9.0-3.16","cfqIV3Nz4B","5e54dced73aedb4d4b807060","6617fad957f7c6a12ea16e26","6622c9b6a0323a9b731e8303","feedback screen","null","","","","","","","","","","","",""
"","null","html-keyboard-response","77","122795","0.0-9.0-0.17","cfqIV3Nz4B","5e54dced73aedb4d4b807060","6617fad957f7c6a12ea16e26","6622c9b6a0323a9b731e8303","fixation cross","null","","","","","","","","","","","",""
"","null","html-keyboard-response","78","124109","0.0-9.0-1.17","cfqIV3Nz4B","5e54dced73aedb4d4b807060","6617fad957f7c6a12ea16e26","6622c9b6a0323a9b731e8303","
        <div id=""grid-container"">
        <!-- Grid items will be dynamically added here -->
    </div>    ","null","","","","","","","","","","","",""
"","2262","html-keyboard-response","79","125072","0.0-9.0-2.17","cfqIV3Nz4B","5e54dced73aedb4d4b807060","6617fad957f7c6a12ea16e26","6622c9b6a0323a9b731e8303","mask grid"," ","","","","","Phylogenetic_Distractor_Nonthreat_target","1300","onmask","p","8","Phylogenetic","false","practice"
"","null","html-keyboard-response","80","126281","0.0-9.0-3.17","cfqIV3Nz4B","5e54dced73aedb4d4b807060","6617fad957f7c6a12ea16e26","6622c9b6a0323a9b731e8303","feedback screen","null","","","","","","","","","","","",""
"","null","html-keyboard-response","81","126790","0.0-9.0-0.18","cfqIV3Nz4B","5e54dced73aedb4d4b807060","6617fad957f7c6a12ea16e26","6622c9b6a0323a9b731e8303","fixation cross","null","","","","","","","","","","","",""
"","null","html-keyboard-response","82","128000","0.0-9.0-1.18","cfqIV3Nz4B","5e54dced73aedb4d4b807060","6617fad957f7c6a12ea16e26","6622c9b6a0323a9b731e8303","
        <div id=""grid-container"">
        <!-- Grid items will be dynamically added here -->
    </div>    ","null","","","","","","","","","","","",""
"","1488","html-keyboard-response","83","128289","0.0-9.0-2.18","cfqIV3Nz4B","5e54dced73aedb4d4b807060","6617fad957f7c6a12ea16e26","6622c9b6a0323a9b731e8303","mask grid","p","","","","","Ontogenetic_Distractor_Nonthreat_target","1200","onmask","p","4","Phylogenetic","true","practice"
"","null","html-keyboard-response","84","129512","0.0-9.0-3.18","cfqIV3Nz4B","5e54dced73aedb4d4b807060","6617fad957f7c6a12ea16e26","6622c9b6a0323a9b731e8303","feedback screen","null","","","","","","","","","","","",""
"","null","html-keyboard-response","85","130018","0.0-9.0-0.19","cfqIV3Nz4B","5e54dced73aedb4d4b807060","6617fad957f7c6a12ea16e26","6622c9b6a0323a9b731e8303","fixation cross","null","","","","","","","","","","","",""
"","null","html-keyboard-response","86","131134","0.0-9.0-1.19","cfqIV3Nz4B","5e54dced73aedb4d4b807060","6617fad957f7c6a12ea16e26","6622c9b6a0323a9b731e8303","
        <div id=""grid-container"">
        <!-- Grid items will be dynamically added here -->
    </div>    ","null","","","","","","","","","","","",""
"","1388","html-keyboard-response","87","131423","0.0-9.0-2.19","cfqIV3Nz4B","5e54dced73aedb4d4b807060","6617fad957f7c6a12ea16e26","6622c9b6a0323a9b731e8303","mask grid","q","","","","","Phylogenetic_Distractor_Threat_target","1100","onmask","q","2","Phylogenetic","true","practice"
"","null","html-keyboard-response","88","132639","0.0-9.0-3.19","cfqIV3Nz4B","5e54dced73aedb4d4b807060","6617fad957f7c6a12ea16e26","6622c9b6a0323a9b731e8303","feedback screen","null","","","","","","","","","","","",""
"","7738","html-keyboard-response","89","140421","0.0-10.0","cfqIV3Nz4B","5e54dced73aedb4d4b807060","6617fad957f7c6a12ea16e26","6622c9b6a0323a9b731e8303","pre-experimental_briefing"," ","","","","","","","","","","","",""
"","null","html-keyboard-response","90","143018","0.0-11.0-0.0","cfqIV3Nz4B","5e54dced73aedb4d4b807060","6617fad957f7c6a12ea16e26","6622c9b6a0323a9b731e8303","fixation cross","null","","","","","","","","","","","",""
"","null","html-keyboard-response","91","145533","0.0-11.0-1.0","cfqIV3Nz4B","5e54dced73aedb4d4b807060","6617fad957f7c6a12ea16e26","6622c9b6a0323a9b731e8303","
        <div id=""grid-container"">
        <!-- Grid items will be dynamically added here -->
    </div>    ","null","","","","","","","","","","","",""
"","2929","html-keyboard-response","92","145963","0.0-11.0-2.0","cfqIV3Nz4B","5e54dced73aedb4d4b807060","6617fad957f7c6a12ea16e26","6622c9b6a0323a9b731e8303","mask grid","p","","","","","Phylogenetic_Distractor_Nonthreat_target","2500","onmask","p","8","Phylogenetic","true","experimental"
"","null","html-keyboard-response","93","146685","0.0-11.0-0.1","cfqIV3Nz4B","5e54dced73aedb4d4b807060","6617fad957f7c6a12ea16e26","6622c9b6a0323a9b731e8303","fixation cross","null","","","","","","","","","","","",""
"","null","html-keyboard-response","94","149187","0.0-11.0-1.1","cfqIV3Nz4B","5e54dced73aedb4d4b807060","6617fad957f7c6a12ea16e26","6622c9b6a0323a9b731e8303","
        <div id=""grid-container"">
        <!-- Grid items will be dynamically added here -->
    </div>    ","null","","","","","","","","","","","",""
"","2803","html-keyboard-response","95","149491","0.0-11.0-2.1","cfqIV3Nz4B","5e54dced73aedb4d4b807060","6617fad957f7c6a12ea16e26","6622c9b6a0323a9b731e8303","mask grid","q","","","","","Phylogenetic_Distractor_Nonthreat_target","2500","onmask","p","7","Phylogenetic","false","experimental"
"","null","html-keyboard-response","96","150214","0.0-11.0-0.2","cfqIV3Nz4B","5e54dced73aedb4d4b807060","6617fad957f7c6a12ea16e26","6622c9b6a0323a9b731e8303","fixation cross","null","","","","","","","","","","","",""
"","22","html-keyboard-response","97","150238","0.0-11.0-1.2","cfqIV3Nz4B","5e54dced73aedb4d4b807060","6617fad957f7c6a12ea16e26","6622c9b6a0323a9b731e8303","image grid"," ","","","","","Phylogenetic_Distractor_Threat_target","2500","ongrid","q","2","Phylogenetic","false","experimental"
"","null","html-keyboard-response","98","150399","0.0-11.0-2.2","cfqIV3Nz4B","5e54dced73aedb4d4b807060","6617fad957f7c6a12ea16e26","6622c9b6a0323a9b731e8303","
    <div id=""grid-container"">
        <!-- Grid items will be dynamically added here -->
    </div>    ","null","","","","","","","","","","","",""
"","null","html-keyboard-response","99","151128","0.0-11.0-0.3","cfqIV3Nz4B","5e54dced73aedb4d4b807060","6617fad957f7c6a12ea16e26","6622c9b6a0323a9b731e8303","fixation cross","null","","","","","","","","","","","",""
"","null","html-keyboard-response","100","153637","0.0-11.0-1.3","cfqIV3Nz4B","5e54dced73aedb4d4b807060","6617fad957f7c6a12ea16e26","6622c9b6a0323a9b731e8303","
        <div id=""grid-container"">
        <!-- Grid items will be dynamically added here -->
    </div>    ","null","","","","","","","","","","","",""
"","2862","html-keyboard-response","101","154000","0.0-11.0-2.3","cfqIV3Nz4B","5e54dced73aedb4d4b807060","6617fad957f7c6a12ea16e26","6622c9b6a0323a9b731e8303","mask grid"," ","","","","","Phylogenetic_Distractor_notarget","2500","onmask"," ","7","Phylogenetic","true","experimental"
"","null","html-keyboard-response","102","154724","0.0-11.0-0.4","cfqIV3Nz4B","5e54dced73aedb4d4b807060","6617fad957f7c6a12ea16e26","6622c9b6a0323a9b731e8303","fixation cross","null","","","","","","","","","","","",""
"","null","html-keyboard-response","103","157245","0.0-11.0-1.4","cfqIV3Nz4B","5e54dced73aedb4d4b807060","6617fad957f7c6a12ea16e26","6622c9b6a0323a9b731e8303","
        <div id=""grid-container"">
        <!-- Grid items will be dynamically added here -->
    </div>    ","null","","","","","","","","","","","",""
"","2778","html-keyboard-response","104","157524","0.0-11.0-2.4","cfqIV3Nz4B","5e54dced73aedb4d4b807060","6617fad957f7c6a12ea16e26","6622c9b6a0323a9b731e8303","mask grid","p","","","","","Phylogenetic_Distractor_Nonthreat_target","2500","onmask","p","7","Phylogenetic","true","experimental"
"","null","html-keyboard-response","105","158234","0.0-11.0-0.5","cfqIV3Nz4B","5e54dced73aedb4d4b807060","6617fad957f7c6a12ea16e26","6622c9b6a0323a9b731e8303","fixation cross","null","","","","","","","","","","","",""
"","null","html-keyboard-response","106","160740","0.0-11.0-1.5","cfqIV3Nz4B","5e54dced73aedb4d4b807060","6617fad957f7c6a12ea16e26","6622c9b6a0323a9b731e8303","
        <div id=""grid-container"">
        <!-- Grid items will be dynamically added here -->
    </div>    ","null","","","","","","","","","","","",""
"","2801","html-keyboard-response","107","161042","0.0-11.0-2.5","cfqIV3Nz4B","5e54dced73aedb4d4b807060","6617fad957f7c6a12ea16e26","6622c9b6a0323a9b731e8303","mask grid","p","","","","","Phylogenetic_Distractor_Nonthreat_target","2500","onmask","p","1","Phylogenetic","true","experimental"
"","null","html-keyboard-response","108","161762","0.0-11.0-0.6","cfqIV3Nz4B","5e54dced73aedb4d4b807060","6617fad957f7c6a12ea16e26","6622c9b6a0323a9b731e8303","fixation cross","null","","","","","","","","","","","",""
"","null","html-keyboard-response","109","164279","0.0-11.0-1.6","cfqIV3Nz4B","5e54dced73aedb4d4b807060","6617fad957f7c6a12ea16e26","6622c9b6a0323a9b731e8303","
        <div id=""grid-container"">
        <!-- Grid items will be dynamically added here -->
    </div>    ","null","","","","","","","","","","","",""
"","2762","html-keyboard-response","110","164542","0.0-11.0-2.6","cfqIV3Nz4B","5e54dced73aedb4d4b807060","6617fad957f7c6a12ea16e26","6622c9b6a0323a9b731e8303","mask grid","q","","","","","Phylogenetic_Distractor_Threat_target","2500","onmask","q","4","Phylogenetic","true","experimental"
"","null","html-keyboard-response","111","165268","0.0-11.0-0.7","cfqIV3Nz4B","5e54dced73aedb4d4b807060","6617fad957f7c6a12ea16e26","6622c9b6a0323a9b731e8303","fixation cross","null","","","","","","","","","","","",""
"","null","html-keyboard-response","112","167782","0.0-11.0-1.7","cfqIV3Nz4B","5e54dced73aedb4d4b807060","6617fad957f7c6a12ea16e26","6622c9b6a0323a9b731e8303","
        <div id=""grid-container"">
        <!-- Grid items will be dynamically added here -->
    </div>    ","null","","","","","","","","","","","",""
"","2831","html-keyboard-response","113","168115","0.0-11.0-2.7","cfqIV3Nz4B","5e54dced73aedb4d4b807060","6617fad957f7c6a12ea16e26","6622c9b6a0323a9b731e8303","mask grid","q","","","","","Phylogenetic_Distractor_Nonthreat_target","2500","onmask","p","7","Phylogenetic","false","experimental"
"","null","html-keyboard-response","114","168837","0.0-11.0-0.8","cfqIV3Nz4B","5e54dced73aedb4d4b807060","6617fad957f7c6a12ea16e26","6622c9b6a0323a9b731e8303","fixation cross","null","","","","","","","","","","","",""
"","null","html-keyboard-response","115","171356","0.0-11.0-1.8","cfqIV3Nz4B","5e54dced73aedb4d4b807060","6617fad957f7c6a12ea16e26","6622c9b6a0323a9b731e8303","
        <div id=""grid-container"">
        <!-- Grid items will be dynamically added here -->
    </div>    ","null","","","","","","","","","","","",""
"","2771","html-keyboard-response","116","171628","0.0-11.0-2.8","cfqIV3Nz4B","5e54dced73aedb4d4b807060","6617fad957f7c6a12ea16e26","6622c9b6a0323a9b731e8303","mask grid","q","","","","","Phylogenetic_Distractor_Threat_target","2500","onmask","q","8","Phylogenetic","true","experimental"
"","null","html-keyboard-response","117","172346","0.0-11.0-0.9","cfqIV3Nz4B","5e54dced73aedb4d4b807060","6617fad957f7c6a12ea16e26","6622c9b6a0323a9b731e8303","fixation cross","null","","","","","","","","","","","",""
"","null","html-keyboard-response","118","174850","0.0-11.0-1.9","cfqIV3Nz4B","5e54dced73aedb4d4b807060","6617fad957f7c6a12ea16e26","6622c9b6a0323a9b731e8303","
        <div id=""grid-container"">
        <!-- Grid items will be dynamically added here -->
    </div>    ","null","","","","","","","","","","","",""
"","2982","html-keyboard-response","119","175334","0.0-11.0-2.9","cfqIV3Nz4B","5e54dced73aedb4d4b807060","6617fad957f7c6a12ea16e26","6622c9b6a0323a9b731e8303","mask grid","q","","","","","Phylogenetic_Distractor_Nonthreat_target","2500","onmask","p","1","Phylogenetic","false","experimental"
"","null","html-keyboard-response","120","176059","0.0-11.0-0.10","cfqIV3Nz4B","5e54dced73aedb4d4b807060","6617fad957f7c6a12ea16e26","6622c9b6a0323a9b731e8303","fixation cross","null","","","","","","","","","","","",""
"","null","html-keyboard-response","121","178563","0.0-11.0-1.10","cfqIV3Nz4B","5e54dced73aedb4d4b807060","6617fad957f7c6a12ea16e26","6622c9b6a0323a9b731e8303","
        <div id=""grid-container"">
        <!-- Grid items will be dynamically added here -->
    </div>    ","null","","","","","","","","","","","",""
"","2859","html-keyboard-response","122","178924","0.0-11.0-2.10","cfqIV3Nz4B","5e54dced73aedb4d4b807060","6617fad957f7c6a12ea16e26","6622c9b6a0323a9b731e8303","mask grid","p","","","","","Phylogenetic_Distractor_Nonthreat_target","2500","onmask","p","6","Phylogenetic","true","experimental"
"","null","html-keyboard-response","123","179648","0.0-11.0-0.11","cfqIV3Nz4B","5e54dced73aedb4d4b807060","6617fad957f7c6a12ea16e26","6622c9b6a0323a9b731e8303","fixation cross","null","","","","","","","","","","","",""
"","null","html-keyboard-response","124","182160","0.0-11.0-1.11","cfqIV3Nz4B","5e54dced73aedb4d4b807060","6617fad957f7c6a12ea16e26","6622c9b6a0323a9b731e8303","
        <div id=""grid-container"">
        <!-- Grid items will be dynamically added here -->
    </div>    ","null","","","","","","","","","","","",""
"","2767","html-keyboard-response","125","182428","0.0-11.0-2.11","cfqIV3Nz4B","5e54dced73aedb4d4b807060","6617fad957f7c6a12ea16e26","6622c9b6a0323a9b731e8303","mask grid","p","","","","","Phylogenetic_Distractor_Nonthreat_target","2500","onmask","p","9","Phylogenetic","true","experimental"
"","null","html-keyboard-response","126","183132","0.0-11.0-0.12","cfqIV3Nz4B","5e54dced73aedb4d4b807060","6617fad957f7c6a12ea16e26","6622c9b6a0323a9b731e8303","fixation cross","null","","","","","","","","","","","",""
"","null","html-keyboard-response","127","185646","0.0-11.0-1.12","cfqIV3Nz4B","5e54dced73aedb4d4b807060","6617fad957f7c6a12ea16e26","6622c9b6a0323a9b731e8303","
        <div id=""grid-container"">
        <!-- Grid items will be dynamically added here -->
    </div>    ","null","","","","","","","","","","","",""
"","2800","html-keyboard-response","128","185946","0.0-11.0-2.12","cfqIV3Nz4B","5e54dced73aedb4d4b807060","6617fad957f7c6a12ea16e26","6622c9b6a0323a9b731e8303","mask grid"," ","","","","","Phylogenetic_Distractor_notarget","2500","onmask"," ","9","Phylogenetic","true","experimental"
"","null","html-keyboard-response","129","186660","0.0-11.0-0.13","cfqIV3Nz4B","5e54dced73aedb4d4b807060","6617fad957f7c6a12ea16e26","6622c9b6a0323a9b731e8303","fixation cross","null","","","","","","","","","","","",""
"","null","html-keyboard-response","130","189170","0.0-11.0-1.13","cfqIV3Nz4B","5e54dced73aedb4d4b807060","6617fad957f7c6a12ea16e26","6622c9b6a0323a9b731e8303","
        <div id=""grid-container"">
        <!-- Grid items will be dynamically added here -->
    </div>    ","null","","","","","","","","","","","",""
"","3047","html-keyboard-response","131","189718","0.0-11.0-2.13","cfqIV3Nz4B","5e54dced73aedb4d4b807060","6617fad957f7c6a12ea16e26","6622c9b6a0323a9b731e8303","mask grid","q","","","","","Phylogenetic_Distractor_Threat_target","2500","onmask","q","5","Phylogenetic","true","experimental"
"","null","html-keyboard-response","132","190444","0.0-11.0-0.14","cfqIV3Nz4B","5e54dced73aedb4d4b807060","6617fad957f7c6a12ea16e26","6622c9b6a0323a9b731e8303","fixation cross","null","","","","","","","","","","","",""
"","null","html-keyboard-response","133","192951","0.0-11.0-1.14","cfqIV3Nz4B","5e54dced73aedb4d4b807060","6617fad957f7c6a12ea16e26","6622c9b6a0323a9b731e8303","
        <div id=""grid-container"">
        <!-- Grid items will be dynamically added here -->
    </div>    ","null","","","","","","","","","","","",""
"","2858","html-keyboard-response","134","193310","0.0-11.0-2.14","cfqIV3Nz4B","5e54dced73aedb4d4b807060","6617fad957f7c6a12ea16e26","6622c9b6a0323a9b731e8303","mask grid","p","","","","","Phylogenetic_Distractor_Nonthreat_target","2500","onmask","p","2","Phylogenetic","true","experimental"
"","null","html-keyboard-response","135","194024","0.0-11.0-0.15","cfqIV3Nz4B","5e54dced73aedb4d4b807060","6617fad957f7c6a12ea16e26","6622c9b6a0323a9b731e8303","fixation cross","null","","","","","","","","","","","",""
"","null","html-keyboard-response","136","196537","0.0-11.0-1.15","cfqIV3Nz4B","5e54dced73aedb4d4b807060","6617fad957f7c6a12ea16e26","6622c9b6a0323a9b731e8303","
        <div id=""grid-container"">
        <!-- Grid items will be dynamically added here -->
    </div>    ","null","","","","","","","","","","","",""
"","2810","html-keyboard-response","137","196848","0.0-11.0-2.15","cfqIV3Nz4B","5e54dced73aedb4d4b807060","6617fad957f7c6a12ea16e26","6622c9b6a0323a9b731e8303","mask grid","q","","","","","Phylogenetic_Distractor_Threat_target","2500","onmask","q","9","Phylogenetic","true","experimental"
"","null","html-keyboard-response","138","197567","0.0-11.0-0.16","cfqIV3Nz4B","5e54dced73aedb4d4b807060","6617fad957f7c6a12ea16e26","6622c9b6a0323a9b731e8303","fixation cross","null","","","","","","","","","","","",""
"","null","html-keyboard-response","139","200076","0.0-11.0-1.16","cfqIV3Nz4B","5e54dced73aedb4d4b807060","6617fad957f7c6a12ea16e26","6622c9b6a0323a9b731e8303","
        <div id=""grid-container"">
        <!-- Grid items will be dynamically added here -->
    </div>    ","null","","","","","","","","","","","",""
"","2764","html-keyboard-response","140","200341","0.0-11.0-2.16","cfqIV3Nz4B","5e54dced73aedb4d4b807060","6617fad957f7c6a12ea16e26","6622c9b6a0323a9b731e8303","mask grid","q","","","","","Phylogenetic_Distractor_Threat_target","2500","onmask","q","8","Phylogenetic","true","experimental"
"","null","html-keyboard-response","141","201059","0.0-11.0-0.17","cfqIV3Nz4B","5e54dced73aedb4d4b807060","6617fad957f7c6a12ea16e26","6622c9b6a0323a9b731e8303","fixation cross","null","","","","","","","","","","","",""
"","931","html-keyboard-response","142","201991","0.0-11.0-1.17","cfqIV3Nz4B","5e54dced73aedb4d4b807060","6617fad957f7c6a12ea16e26","6622c9b6a0323a9b731e8303","image grid","q","","","","","Phylogenetic_Distractor_Threat_target","2500","ongrid","q","5","Phylogenetic","true","experimental"
"","null","html-keyboard-response","143","202148","0.0-11.0-2.17","cfqIV3Nz4B","5e54dced73aedb4d4b807060","6617fad957f7c6a12ea16e26","6622c9b6a0323a9b731e8303","
    <div id=""grid-container"">
        <!-- Grid items will be dynamically added here -->
    </div>    ","null","","","","","","","","","","","",""
"","null","html-keyboard-response","144","202873","0.0-11.0-0.18","cfqIV3Nz4B","5e54dced73aedb4d4b807060","6617fad957f7c6a12ea16e26","6622c9b6a0323a9b731e8303","fixation cross","null","","","","","","","","","","","",""
"","1380","html-keyboard-response","145","204254","0.0-11.0-1.18","cfqIV3Nz4B","5e54dced73aedb4d4b807060","6617fad957f7c6a12ea16e26","6622c9b6a0323a9b731e8303","image grid","q","","","","","Phylogenetic_Distractor_Threat_target","2500","ongrid","q","2","Phylogenetic","true","experimental"
"","null","html-keyboard-response","146","204415","0.0-11.0-2.18","cfqIV3Nz4B","5e54dced73aedb4d4b807060","6617fad957f7c6a12ea16e26","6622c9b6a0323a9b731e8303","
    <div id=""grid-container"">
        <!-- Grid items will be dynamically added here -->
    </div>    ","null","","","","","","","","","","","",""
"","null","html-keyboard-response","147","205127","0.0-11.0-0.19","cfqIV3Nz4B","5e54dced73aedb4d4b807060","6617fad957f7c6a12ea16e26","6622c9b6a0323a9b731e8303","fixation cross","null","","","","","","","","","","","",""
"","1666","html-keyboard-response","148","206793","0.0-11.0-1.19","cfqIV3Nz4B","5e54dced73aedb4d4b807060","6617fad957f7c6a12ea16e26","6622c9b6a0323a9b731e8303","image grid","p","","","","","Phylogenetic_Distractor_Nonthreat_target","2500","ongrid","p","5","Phylogenetic","true","experimental"
"","null","html-keyboard-response","149","206952","0.0-11.0-2.19","cfqIV3Nz4B","5e54dced73aedb4d4b807060","6617fad957f7c6a12ea16e26","6622c9b6a0323a9b731e8303","
    <div id=""grid-container"">
        <!-- Grid items will be dynamically added here -->
    </div>    ","null","","","","","","","","","","","",""
"","null","html-keyboard-response","150","207678","0.0-11.0-0.20","cfqIV3Nz4B","5e54dced73aedb4d4b807060","6617fad957f7c6a12ea16e26","6622c9b6a0323a9b731e8303","fixation cross","null","","","","","","","","","","","",""
"","null","html-keyboard-response","151","210186","0.0-11.0-1.20","cfqIV3Nz4B","5e54dced73aedb4d4b807060","6617fad957f7c6a12ea16e26","6622c9b6a0323a9b731e8303","
        <div id=""grid-container"">
        <!-- Grid items will be dynamically added here -->
    </div>    ","null","","","","","","","","","","","",""
"","2754","html-keyboard-response","152","210441","0.0-11.0-2.20","cfqIV3Nz4B","5e54dced73aedb4d4b807060","6617fad957f7c6a12ea16e26","6622c9b6a0323a9b731e8303","mask grid","q","","","","","Phylogenetic_Distractor_Threat_target","2500","onmask","q","9","Phylogenetic","true","experimental"
"","null","html-keyboard-response","153","211155","0.0-11.0-0.21","cfqIV3Nz4B","5e54dced73aedb4d4b807060","6617fad957f7c6a12ea16e26","6622c9b6a0323a9b731e8303","fixation cross","null","","","","","","","","","","","",""
"","1155","html-keyboard-response","154","212312","0.0-11.0-1.21","cfqIV3Nz4B","5e54dced73aedb4d4b807060","6617fad957f7c6a12ea16e26","6622c9b6a0323a9b731e8303","image grid","p","","","","","Phylogenetic_Distractor_Nonthreat_target","2500","ongrid","p","8","Phylogenetic","true","experimental"
"","null","html-keyboard-response","155","212476","0.0-11.0-2.21","cfqIV3Nz4B","5e54dced73aedb4d4b807060","6617fad957f7c6a12ea16e26","6622c9b6a0323a9b731e8303","
    <div id=""grid-container"">
        <!-- Grid items will be dynamically added here -->
    </div>    ","null","","","","","","","","","","","",""
"","null","html-keyboard-response","156","213193","0.0-11.0-0.22","cfqIV3Nz4B","5e54dced73aedb4d4b807060","6617fad957f7c6a12ea16e26","6622c9b6a0323a9b731e8303","fixation cross","null","","","","","","","","","","","",""
"","811","html-keyboard-response","157","214005","0.0-11.0-1.22","cfqIV3Nz4B","5e54dced73aedb4d4b807060","6617fad957f7c6a12ea16e26","6622c9b6a0323a9b731e8303","image grid","p","","","","","Phylogenetic_Distractor_Nonthreat_target","2500","ongrid","p","8","Phylogenetic","true","experimental"
"","null","html-keyboard-response","158","214165","0.0-11.0-2.22","cfqIV3Nz4B","5e54dced73aedb4d4b807060","6617fad957f7c6a12ea16e26","6622c9b6a0323a9b731e8303","
    <div id=""grid-container"">
        <!-- Grid items will be dynamically added here -->
    </div>    ","null","","","","","","","","","","","",""
"","null","html-keyboard-response","159","214876","0.0-11.0-0.23","cfqIV3Nz4B","5e54dced73aedb4d4b807060","6617fad957f7c6a12ea16e26","6622c9b6a0323a9b731e8303","fixation cross","null","","","","","","","","","","","",""
"","963","html-keyboard-response","160","215839","0.0-11.0-1.23","cfqIV3Nz4B","5e54dced73aedb4d4b807060","6617fad957f7c6a12ea16e26","6622c9b6a0323a9b731e8303","image grid","p","","","","","Phylogenetic_Distractor_Nonthreat_target","2500","ongrid","p","8","Phylogenetic","true","experimental"
"","null","html-keyboard-response","161","216000","0.0-11.0-2.23","cfqIV3Nz4B","5e54dced73aedb4d4b807060","6617fad957f7c6a12ea16e26","6622c9b6a0323a9b731e8303","
    <div id=""grid-container"">
        <!-- Grid items will be dynamically added here -->
    </div>    ","null","","","","","","","","","","","",""
"","null","html-keyboard-response","162","216722","0.0-11.0-0.24","cfqIV3Nz4B","5e54dced73aedb4d4b807060","6617fad957f7c6a12ea16e26","6622c9b6a0323a9b731e8303","fixation cross","null","","","","","","","","","","","",""
"","1520","html-keyboard-response","163","218243","0.0-11.0-1.24","cfqIV3Nz4B","5e54dced73aedb4d4b807060","6617fad957f7c6a12ea16e26","6622c9b6a0323a9b731e8303","image grid","q","","","","","Phylogenetic_Distractor_Threat_target","2500","ongrid","q","5","Phylogenetic","true","experimental"
"","null","html-keyboard-response","164","218397","0.0-11.0-2.24","cfqIV3Nz4B","5e54dced73aedb4d4b807060","6617fad957f7c6a12ea16e26","6622c9b6a0323a9b731e8303","
    <div id=""grid-container"">
        <!-- Grid items will be dynamically added here -->
    </div>    ","null","","","","","","","","","","","",""
"","null","html-keyboard-response","165","219110","0.0-11.0-0.25","cfqIV3Nz4B","5e54dced73aedb4d4b807060","6617fad957f7c6a12ea16e26","6622c9b6a0323a9b731e8303","fixation cross","null","","","","","","","","","","","",""
"","null","html-keyboard-response","166","221613","0.0-11.0-1.25","cfqIV3Nz4B","5e54dced73aedb4d4b807060","6617fad957f7c6a12ea16e26","6622c9b6a0323a9b731e8303","
        <div id=""grid-container"">
        <!-- Grid items will be dynamically added here -->
    </div>    ","null","","","","","","","","","","","",""
"","6154","html-keyboard-response","167","225268","0.0-11.0-2.25","cfqIV3Nz4B","5e54dced73aedb4d4b807060","6617fad957f7c6a12ea16e26","6622c9b6a0323a9b731e8303","mask grid","p","","","","","Phylogenetic_Distractor_Nonthreat_target","2500","onmask","p","7","Phylogenetic","true","experimental"
"","null","html-keyboard-response","168","225985","0.0-11.0-0.26","cfqIV3Nz4B","5e54dced73aedb4d4b807060","6617fad957f7c6a12ea16e26","6622c9b6a0323a9b731e8303","fixation cross","null","","","","","","","","","","","",""
"","null","html-keyboard-response","169","228490","0.0-11.0-1.26","cfqIV3Nz4B","5e54dced73aedb4d4b807060","6617fad957f7c6a12ea16e26","6622c9b6a0323a9b731e8303","
        <div id=""grid-container"">
        <!-- Grid items will be dynamically added here -->
    </div>    ","null","","","","","","","","","","","",""
"","2831","html-keyboard-response","170","228822","0.0-11.0-2.26","cfqIV3Nz4B","5e54dced73aedb4d4b807060","6617fad957f7c6a12ea16e26","6622c9b6a0323a9b731e8303","mask grid"," ","","","","","Phylogenetic_Distractor_notarget","2500","onmask"," ","3","Phylogenetic","true","experimental"
"","null","html-keyboard-response","171","229552","0.0-11.0-0.27","cfqIV3Nz4B","5e54dced73aedb4d4b807060","6617fad957f7c6a12ea16e26","6622c9b6a0323a9b731e8303","fixation cross","null","","","","","","","","","","","",""
"","null","html-keyboard-response","172","232069","0.0-11.0-1.27","cfqIV3Nz4B","5e54dced73aedb4d4b807060","6617fad957f7c6a12ea16e26","6622c9b6a0323a9b731e8303","
        <div id=""grid-container"">
        <!-- Grid items will be dynamically added here -->
    </div>    ","null","","","","","","","","","","","",""
"","2743","html-keyboard-response","173","232314","0.0-11.0-2.27","cfqIV3Nz4B","5e54dced73aedb4d4b807060","6617fad957f7c6a12ea16e26","6622c9b6a0323a9b731e8303","mask grid","q","","","","","Phylogenetic_Distractor_Threat_target","2500","onmask","q","6","Phylogenetic","true","experimental"
"","null","html-keyboard-response","174","233026","0.0-11.0-0.28","cfqIV3Nz4B","5e54dced73aedb4d4b807060","6617fad957f7c6a12ea16e26","6622c9b6a0323a9b731e8303","fixation cross","null","","","","","","","","","","","",""
"","null","html-keyboard-response","175","235527","0.0-11.0-1.28","cfqIV3Nz4B","5e54dced73aedb4d4b807060","6617fad957f7c6a12ea16e26","6622c9b6a0323a9b731e8303","
        <div id=""grid-container"">
        <!-- Grid items will be dynamically added here -->
    </div>    ","null","","","","","","","","","","","",""
"","2905","html-keyboard-response","176","235933","0.0-11.0-2.28","cfqIV3Nz4B","5e54dced73aedb4d4b807060","6617fad957f7c6a12ea16e26","6622c9b6a0323a9b731e8303","mask grid","q","","","","","Phylogenetic_Distractor_Nonthreat_target","2500","onmask","p","7","Phylogenetic","false","experimental"
"","null","html-keyboard-response","177","236648","0.0-11.0-0.29","cfqIV3Nz4B","5e54dced73aedb4d4b807060","6617fad957f7c6a12ea16e26","6622c9b6a0323a9b731e8303","fixation cross","null","","","","","","","","","","","",""
"","null","html-keyboard-response","178","239161","0.0-11.0-1.29","cfqIV3Nz4B","5e54dced73aedb4d4b807060","6617fad957f7c6a12ea16e26","6622c9b6a0323a9b731e8303","
        <div id=""grid-container"">
        <!-- Grid items will be dynamically added here -->
    </div>    ","null","","","","","","","","","","","",""
"","2757","html-keyboard-response","179","239418","0.0-11.0-2.29","cfqIV3Nz4B","5e54dced73aedb4d4b807060","6617fad957f7c6a12ea16e26","6622c9b6a0323a9b731e8303","mask grid","q","","","","","Phylogenetic_Distractor_Threat_target","2500","onmask","q","2","Phylogenetic","true","experimental"
"","null","html-keyboard-response","180","240138","0.0-11.0-0.30","cfqIV3Nz4B","5e54dced73aedb4d4b807060","6617fad957f7c6a12ea16e26","6622c9b6a0323a9b731e8303","fixation cross","null","","","","","","","","","","","",""
"","null","html-keyboard-response","181","242640","0.0-11.0-1.30","cfqIV3Nz4B","5e54dced73aedb4d4b807060","6617fad957f7c6a12ea16e26","6622c9b6a0323a9b731e8303","
        <div id=""grid-container"">
        <!-- Grid items will be dynamically added here -->
    </div>    ","null","","","","","","","","","","","",""
"","2775","html-keyboard-response","182","242916","0.0-11.0-2.30","cfqIV3Nz4B","5e54dced73aedb4d4b807060","6617fad957f7c6a12ea16e26","6622c9b6a0323a9b731e8303","mask grid","q","","","","","Phylogenetic_Distractor_Threat_target","2500","onmask","q","1","Phylogenetic","true","experimental"
"","null","html-keyboard-response","183","243644","0.0-11.0-0.31","cfqIV3Nz4B","5e54dced73aedb4d4b807060","6617fad957f7c6a12ea16e26","6622c9b6a0323a9b731e8303","fixation cross","null","","","","","","","","","","","",""
"","null","html-keyboard-response","184","246160","0.0-11.0-1.31","cfqIV3Nz4B","5e54dced73aedb4d4b807060","6617fad957f7c6a12ea16e26","6622c9b6a0323a9b731e8303","
        <div id=""grid-container"">
        <!-- Grid items will be dynamically added here -->
    </div>    ","null","","","","","","","","","","","",""
"","2739","html-keyboard-response","185","246400","0.0-11.0-2.31","cfqIV3Nz4B","5e54dced73aedb4d4b807060","6617fad957f7c6a12ea16e26","6622c9b6a0323a9b731e8303","mask grid","q","","","","","Phylogenetic_Distractor_Threat_target","2500","onmask","q","1","Phylogenetic","true","experimental"
"","null","html-keyboard-response","186","247113","0.0-11.0-0.32","cfqIV3Nz4B","5e54dced73aedb4d4b807060","6617fad957f7c6a12ea16e26","6622c9b6a0323a9b731e8303","fixation cross","null","","","","","","","","","","","",""
"","null","html-keyboard-response","187","249628","0.0-11.0-1.32","cfqIV3Nz4B","5e54dced73aedb4d4b807060","6617fad957f7c6a12ea16e26","6622c9b6a0323a9b731e8303","
        <div id=""grid-container"">
        <!-- Grid items will be dynamically added here -->
    </div>    ","null","","","","","","","","","","","",""
"","2756","html-keyboard-response","188","249884","0.0-11.0-2.32","cfqIV3Nz4B","5e54dced73aedb4d4b807060","6617fad957f7c6a12ea16e26","6622c9b6a0323a9b731e8303","mask grid","p","","","","","Phylogenetic_Distractor_Nonthreat_target","2500","onmask","p","6","Phylogenetic","true","experimental"
"","null","html-keyboard-response","189","250600","0.0-11.0-0.33","cfqIV3Nz4B","5e54dced73aedb4d4b807060","6617fad957f7c6a12ea16e26","6622c9b6a0323a9b731e8303","fixation cross","null","","","","","","","","","","","",""
"","null","html-keyboard-response","190","253110","0.0-11.0-1.33","cfqIV3Nz4B","5e54dced73aedb4d4b807060","6617fad957f7c6a12ea16e26","6622c9b6a0323a9b731e8303","
        <div id=""grid-container"">
        <!-- Grid items will be dynamically added here -->
    </div>    ","null","","","","","","","","","","","",""
"","2896","html-keyboard-response","191","253507","0.0-11.0-2.33","cfqIV3Nz4B","5e54dced73aedb4d4b807060","6617fad957f7c6a12ea16e26","6622c9b6a0323a9b731e8303","mask grid"," ","","","","","Phylogenetic_Distractor_notarget","2500","onmask"," ","3","Phylogenetic","true","experimental"
"","null","html-keyboard-response","192","254233","0.0-11.0-0.34","cfqIV3Nz4B","5e54dced73aedb4d4b807060","6617fad957f7c6a12ea16e26","6622c9b6a0323a9b731e8303","fixation cross","null","","","","","","","","","","","",""
"","null","html-keyboard-response","193","256739","0.0-11.0-1.34","cfqIV3Nz4B","5e54dced73aedb4d4b807060","6617fad957f7c6a12ea16e26","6622c9b6a0323a9b731e8303","
        <div id=""grid-container"">
        <!-- Grid items will be dynamically added here -->
    </div>    ","null","","","","","","","","","","","",""
"","2761","html-keyboard-response","194","257000","0.0-11.0-2.34","cfqIV3Nz4B","5e54dced73aedb4d4b807060","6617fad957f7c6a12ea16e26","6622c9b6a0323a9b731e8303","mask grid","p","","","","","Phylogenetic_Distractor_Nonthreat_target","2500","onmask","p","1","Phylogenetic","true","experimental"
"","null","html-keyboard-response","195","257722","0.0-11.0-0.35","cfqIV3Nz4B","5e54dced73aedb4d4b807060","6617fad957f7c6a12ea16e26","6622c9b6a0323a9b731e8303","fixation cross","null","","","","","","","","","","","",""
"","null","html-keyboard-response","196","260224","0.0-11.0-1.35","cfqIV3Nz4B","5e54dced73aedb4d4b807060","6617fad957f7c6a12ea16e26","6622c9b6a0323a9b731e8303","
        <div id=""grid-container"">
        <!-- Grid items will be dynamically added here -->
    </div>    ","null","","","","","","","","","","","",""
"","2627","html-keyboard-response","197","260352","0.0-11.0-2.35","cfqIV3Nz4B","5e54dced73aedb4d4b807060","6617fad957f7c6a12ea16e26","6622c9b6a0323a9b731e8303","mask grid","q","","","","","Phylogenetic_Distractor_Threat_target","2500","onmask","q","2","Phylogenetic","true","experimental"
"","null","html-keyboard-response","198","261062","0.0-11.0-0.36","cfqIV3Nz4B","5e54dced73aedb4d4b807060","6617fad957f7c6a12ea16e26","6622c9b6a0323a9b731e8303","fixation cross","null","","","","","","","","","","","",""
"","null","html-keyboard-response","199","263563","0.0-11.0-1.36","cfqIV3Nz4B","5e54dced73aedb4d4b807060","6617fad957f7c6a12ea16e26","6622c9b6a0323a9b731e8303","
        <div id=""grid-container"">
        <!-- Grid items will be dynamically added here -->
    </div>    ","null","","","","","","","","","","","",""
"","2775","html-keyboard-response","200","263839","0.0-11.0-2.36","cfqIV3Nz4B","5e54dced73aedb4d4b807060","6617fad957f7c6a12ea16e26","6622c9b6a0323a9b731e8303","mask grid","q","","","","","Phylogenetic_Distractor_Threat_target","2500","onmask","q","5","Phylogenetic","true","experimental"
"","null","html-keyboard-response","201","264562","0.0-11.0-0.37","cfqIV3Nz4B","5e54dced73aedb4d4b807060","6617fad957f7c6a12ea16e26","6622c9b6a0323a9b731e8303","fixation cross","null","","","","","","","","","","","",""
"","null","html-keyboard-response","202","267063","0.0-11.0-1.37","cfqIV3Nz4B","5e54dced73aedb4d4b807060","6617fad957f7c6a12ea16e26","6622c9b6a0323a9b731e8303","
        <div id=""grid-container"">
        <!-- Grid items will be dynamically added here -->
    </div>    ","null","","","","","","","","","","","",""
"","2821","html-keyboard-response","203","267385","0.0-11.0-2.37","cfqIV3Nz4B","5e54dced73aedb4d4b807060","6617fad957f7c6a12ea16e26","6622c9b6a0323a9b731e8303","mask grid","p","","","","","Phylogenetic_Distractor_Nonthreat_target","2500","onmask","p","7","Phylogenetic","true","experimental"
"","null","html-keyboard-response","204","268095","0.0-11.0-0.38","cfqIV3Nz4B","5e54dced73aedb4d4b807060","6617fad957f7c6a12ea16e26","6622c9b6a0323a9b731e8303","fixation cross","null","","","","","","","","","","","",""
"","1210","html-keyboard-response","205","269307","0.0-11.0-1.38","cfqIV3Nz4B","5e54dced73aedb4d4b807060","6617fad957f7c6a12ea16e26","6622c9b6a0323a9b731e8303","image grid","q","","","","","Phylogenetic_Distractor_Threat_target","2500","ongrid","q","3","Phylogenetic","true","experimental"
"","null","html-keyboard-response","206","269464","0.0-11.0-2.38","cfqIV3Nz4B","5e54dced73aedb4d4b807060","6617fad957f7c6a12ea16e26","6622c9b6a0323a9b731e8303","
    <div id=""grid-container"">
        <!-- Grid items will be dynamically added here -->
    </div>    ","null","","","","","","","","","","","",""
"","null","html-keyboard-response","207","270179","0.0-11.0-0.39","cfqIV3Nz4B","5e54dced73aedb4d4b807060","6617fad957f7c6a12ea16e26","6622c9b6a0323a9b731e8303","fixation cross","null","","","","","","","","","","","",""
"","755","html-keyboard-response","208","270934","0.0-11.0-1.39","cfqIV3Nz4B","5e54dced73aedb4d4b807060","6617fad957f7c6a12ea16e26","6622c9b6a0323a9b731e8303","image grid","q","","","","","Phylogenetic_Distractor_Threat_target","2500","ongrid","q","2","Phylogenetic","true","experimental"
"","null","html-keyboard-response","209","271095","0.0-11.0-2.39","cfqIV3Nz4B","5e54dced73aedb4d4b807060","6617fad957f7c6a12ea16e26","6622c9b6a0323a9b731e8303","
    <div id=""grid-container"">
        <!-- Grid items will be dynamically added here -->
    </div>    ","null","","","","","","","","","","","",""
"","4006","html-keyboard-response","210","275373","0.0-12.0","cfqIV3Nz4B","5e54dced73aedb4d4b807060","6617fad957f7c6a12ea16e26","6622c9b6a0323a9b731e8303","break screen"," ","","","","","","","","","","","",""
"","null","html-keyboard-response","211","277889","0.0-13.0-0.0","cfqIV3Nz4B","5e54dced73aedb4d4b807060","6617fad957f7c6a12ea16e26","6622c9b6a0323a9b731e8303","fixation cross","null","","","","","","","","","","","",""
"","1892","html-keyboard-response","212","279782","0.0-13.0-1.0","cfqIV3Nz4B","5e54dced73aedb4d4b807060","6617fad957f7c6a12ea16e26","6622c9b6a0323a9b731e8303","image grid","q","","","","","Ontogenetic_Distractor_Threat_target","2500","ongrid","q","4","Ontogenetic","true","experimental"
"","null","html-keyboard-response","213","279936","0.0-13.0-2.0","cfqIV3Nz4B","5e54dced73aedb4d4b807060","6617fad957f7c6a12ea16e26","6622c9b6a0323a9b731e8303","
    <div id=""grid-container"">
        <!-- Grid items will be dynamically added here -->
    </div>    ","null","","","","","","","","","","","",""
"","null","html-keyboard-response","214","280661","0.0-13.0-0.1","cfqIV3Nz4B","5e54dced73aedb4d4b807060","6617fad957f7c6a12ea16e26","6622c9b6a0323a9b731e8303","fixation cross","null","","","","","","","","","","","",""
"","1689","html-keyboard-response","215","282351","0.0-13.0-1.1","cfqIV3Nz4B","5e54dced73aedb4d4b807060","6617fad957f7c6a12ea16e26","6622c9b6a0323a9b731e8303","image grid","q","","","","","Ontogenetic_Distractor_Threat_target","2500","ongrid","q","6","Ontogenetic","true","experimental"
"","null","html-keyboard-response","216","282509","0.0-13.0-2.1","cfqIV3Nz4B","5e54dced73aedb4d4b807060","6617fad957f7c6a12ea16e26","6622c9b6a0323a9b731e8303","
    <div id=""grid-container"">
        <!-- Grid items will be dynamically added here -->
    </div>    ","null","","","","","","","","","","","",""
"","null","html-keyboard-response","217","283223","0.0-13.0-0.2","cfqIV3Nz4B","5e54dced73aedb4d4b807060","6617fad957f7c6a12ea16e26","6622c9b6a0323a9b731e8303","fixation cross","null","","","","","","","","","","","",""
"","2189","html-keyboard-response","218","285412","0.0-13.0-1.2","cfqIV3Nz4B","5e54dced73aedb4d4b807060","6617fad957f7c6a12ea16e26","6622c9b6a0323a9b731e8303","image grid","p","","","","","Ontogenetic_Distractor_Nonthreat_target","2500","ongrid","p","7","Ontogenetic","true","experimental"
"","null","html-keyboard-response","219","285570","0.0-13.0-2.2","cfqIV3Nz4B","5e54dced73aedb4d4b807060","6617fad957f7c6a12ea16e26","6622c9b6a0323a9b731e8303","
    <div id=""grid-container"">
        <!-- Grid items will be dynamically added here -->
    </div>    ","null","","","","","","","","","","","",""
"","null","html-keyboard-response","220","286284","0.0-13.0-0.3","cfqIV3Nz4B","5e54dced73aedb4d4b807060","6617fad957f7c6a12ea16e26","6622c9b6a0323a9b731e8303","fixation cross","null","","","","","","","","","","","",""
"","null","html-keyboard-response","221","288797","0.0-13.0-1.3","cfqIV3Nz4B","5e54dced73aedb4d4b807060","6617fad957f7c6a12ea16e26","6622c9b6a0323a9b731e8303","
        <div id=""grid-container"">
        <!-- Grid items will be dynamically added here -->
    </div>    ","null","","","","","","","","","","","",""
"","2916","html-keyboard-response","222","289213","0.0-13.0-2.3","cfqIV3Nz4B","5e54dced73aedb4d4b807060","6617fad957f7c6a12ea16e26","6622c9b6a0323a9b731e8303","mask grid","p","","","","","Ontogenetic_Distractor_Nonthreat_target","2500","onmask","p","5","Ontogenetic","true","experimental"
"","null","html-keyboard-response","223","289937","0.0-13.0-0.4","cfqIV3Nz4B","5e54dced73aedb4d4b807060","6617fad957f7c6a12ea16e26","6622c9b6a0323a9b731e8303","fixation cross","null","","","","","","","","","","","",""
"","null","html-keyboard-response","224","292440","0.0-13.0-1.4","cfqIV3Nz4B","5e54dced73aedb4d4b807060","6617fad957f7c6a12ea16e26","6622c9b6a0323a9b731e8303","
        <div id=""grid-container"">
        <!-- Grid items will be dynamically added here -->
    </div>    ","null","","","","","","","","","","","",""
"","2786","html-keyboard-response","225","292727","0.0-13.0-2.4","cfqIV3Nz4B","5e54dced73aedb4d4b807060","6617fad957f7c6a12ea16e26","6622c9b6a0323a9b731e8303","mask grid"," ","","","","","Ontogenetic_Distractor_notarget","2500","onmask"," ","7","Ontogenetic","true","experimental"
"","null","html-keyboard-response","226","293446","0.0-13.0-0.5","cfqIV3Nz4B","5e54dced73aedb4d4b807060","6617fad957f7c6a12ea16e26","6622c9b6a0323a9b731e8303","fixation cross","null","","","","","","","","","","","",""
"","null","html-keyboard-response","227","295951","0.0-13.0-1.5","cfqIV3Nz4B","5e54dced73aedb4d4b807060","6617fad957f7c6a12ea16e26","6622c9b6a0323a9b731e8303","
        <div id=""grid-container"">
        <!-- Grid items will be dynamically added here -->
    </div>    ","null","","","","","","","","","","","",""
"","2817","html-keyboard-response","228","296270","0.0-13.0-2.5","cfqIV3Nz4B","5e54dced73aedb4d4b807060","6617fad957f7c6a12ea16e26","6622c9b6a0323a9b731e8303","mask grid","p","","","","","Ontogenetic_Distractor_Nonthreat_target","2500","onmask","p","9","Ontogenetic","true","experimental"
"","null","html-keyboard-response","229","296984","0.0-13.0-0.6","cfqIV3Nz4B","5e54dced73aedb4d4b807060","6617fad957f7c6a12ea16e26","6622c9b6a0323a9b731e8303","fixation cross","null","","","","","","","","","","","",""
"","null","html-keyboard-response","230","299494","0.0-13.0-1.6","cfqIV3Nz4B","5e54dced73aedb4d4b807060","6617fad957f7c6a12ea16e26","6622c9b6a0323a9b731e8303","
        <div id=""grid-container"">
        <!-- Grid items will be dynamically added here -->
    </div>    ","null","","","","","","","","","","","",""
"","2857","html-keyboard-response","231","299852","0.0-13.0-2.6","cfqIV3Nz4B","5e54dced73aedb4d4b807060","6617fad957f7c6a12ea16e26","6622c9b6a0323a9b731e8303","mask grid","q","","","","","Ontogenetic_Distractor_Threat_target","2500","onmask","q","2","Ontogenetic","true","experimental"
"","null","html-keyboard-response","232","300565","0.0-13.0-0.7","cfqIV3Nz4B","5e54dced73aedb4d4b807060","6617fad957f7c6a12ea16e26","6622c9b6a0323a9b731e8303","fixation cross","null","","","","","","","","","","","",""
"","null","html-keyboard-response","233","303070","0.0-13.0-1.7","cfqIV3Nz4B","5e54dced73aedb4d4b807060","6617fad957f7c6a12ea16e26","6622c9b6a0323a9b731e8303","
        <div id=""grid-container"">
        <!-- Grid items will be dynamically added here -->
    </div>    ","null","","","","","","","","","","","",""
"","2860","html-keyboard-response","234","303431","0.0-13.0-2.7","cfqIV3Nz4B","5e54dced73aedb4d4b807060","6617fad957f7c6a12ea16e26","6622c9b6a0323a9b731e8303","mask grid","q","","","","","Ontogenetic_Distractor_Threat_target","2500","onmask","q","3","Ontogenetic","true","experimental"
"","null","html-keyboard-response","235","304149","0.0-13.0-0.8","cfqIV3Nz4B","5e54dced73aedb4d4b807060","6617fad957f7c6a12ea16e26","6622c9b6a0323a9b731e8303","fixation cross","null","","","","","","","","","","","",""
"","null","html-keyboard-response","236","306667","0.0-13.0-1.8","cfqIV3Nz4B","5e54dced73aedb4d4b807060","6617fad957f7c6a12ea16e26","6622c9b6a0323a9b731e8303","
        <div id=""grid-container"">
        <!-- Grid items will be dynamically added here -->
    </div>    ","null","","","","","","","","","","","",""
"","2847","html-keyboard-response","237","307015","0.0-13.0-2.8","cfqIV3Nz4B","5e54dced73aedb4d4b807060","6617fad957f7c6a12ea16e26","6622c9b6a0323a9b731e8303","mask grid","p","","","","","Ontogenetic_Distractor_Nonthreat_target","2500","onmask","p","7","Ontogenetic","true","experimental"
"","null","html-keyboard-response","238","307733","0.0-13.0-0.9","cfqIV3Nz4B","5e54dced73aedb4d4b807060","6617fad957f7c6a12ea16e26","6622c9b6a0323a9b731e8303","fixation cross","null","","","","","","","","","","","",""
"","null","html-keyboard-response","239","310242","0.0-13.0-1.9","cfqIV3Nz4B","5e54dced73aedb4d4b807060","6617fad957f7c6a12ea16e26","6622c9b6a0323a9b731e8303","
        <div id=""grid-container"">
        <!-- Grid items will be dynamically added here -->
    </div>    ","null","","","","","","","","","","","",""
"","2815","html-keyboard-response","240","310557","0.0-13.0-2.9","cfqIV3Nz4B","5e54dced73aedb4d4b807060","6617fad957f7c6a12ea16e26","6622c9b6a0323a9b731e8303","mask grid","q","","","","","Ontogenetic_Distractor_Threat_target","2500","onmask","q","2","Ontogenetic","true","experimental"
"","null","html-keyboard-response","241","311297","0.0-13.0-0.10","cfqIV3Nz4B","5e54dced73aedb4d4b807060","6617fad957f7c6a12ea16e26","6622c9b6a0323a9b731e8303","fixation cross","null","","","","","","","","","","","",""
"","null","html-keyboard-response","242","313807","0.0-13.0-1.10","cfqIV3Nz4B","5e54dced73aedb4d4b807060","6617fad957f7c6a12ea16e26","6622c9b6a0323a9b731e8303","
        <div id=""grid-container"">
        <!-- Grid items will be dynamically added here -->
    </div>    ","null","","","","","","","","","","","",""
"","2824","html-keyboard-response","243","314133","0.0-13.0-2.10","cfqIV3Nz4B","5e54dced73aedb4d4b807060","6617fad957f7c6a12ea16e26","6622c9b6a0323a9b731e8303","mask grid","q","","","","","Ontogenetic_Distractor_Threat_target","2500","onmask","q","4","Ontogenetic","true","experimental"
"","null","html-keyboard-response","244","314851","0.0-13.0-0.11","cfqIV3Nz4B","5e54dced73aedb4d4b807060","6617fad957f7c6a12ea16e26","6622c9b6a0323a9b731e8303","fixation cross","null","","","","","","","","","","","",""
"","null","html-keyboard-response","245","317358","0.0-13.0-1.11","cfqIV3Nz4B","5e54dced73aedb4d4b807060","6617fad957f7c6a12ea16e26","6622c9b6a0323a9b731e8303","
        <div id=""grid-container"">
        <!-- Grid items will be dynamically added here -->
    </div>    ","null","","","","","","","","","","","",""
"","2805","html-keyboard-response","246","317664","0.0-13.0-2.11","cfqIV3Nz4B","5e54dced73aedb4d4b807060","6617fad957f7c6a12ea16e26","6622c9b6a0323a9b731e8303","mask grid","p","","","","","Ontogenetic_Distractor_Nonthreat_target","2500","onmask","p","4","Ontogenetic","true","experimental"
"","null","html-keyboard-response","247","318380","0.0-13.0-0.12","cfqIV3Nz4B","5e54dced73aedb4d4b807060","6617fad957f7c6a12ea16e26","6622c9b6a0323a9b731e8303","fixation cross","null","","","","","","","","","","","",""
"","null","html-keyboard-response","248","320882","0.0-13.0-1.12","cfqIV3Nz4B","5e54dced73aedb4d4b807060","6617fad957f7c6a12ea16e26","6622c9b6a0323a9b731e8303","
        <div id=""grid-container"">
        <!-- Grid items will be dynamically added here -->
    </div>    ","null","","","","","","","","","","","",""
"","2852","html-keyboard-response","249","321235","0.0-13.0-2.12","cfqIV3Nz4B","5e54dced73aedb4d4b807060","6617fad957f7c6a12ea16e26","6622c9b6a0323a9b731e8303","mask grid","p","","","","","Ontogenetic_Distractor_Nonthreat_target","2500","onmask","p","9","Ontogenetic","true","experimental"
"","null","html-keyboard-response","250","321952","0.0-13.0-0.13","cfqIV3Nz4B","5e54dced73aedb4d4b807060","6617fad957f7c6a12ea16e26","6622c9b6a0323a9b731e8303","fixation cross","null","","","","","","","","","","","",""
"","1147","html-keyboard-response","251","323100","0.0-13.0-1.13","cfqIV3Nz4B","5e54dced73aedb4d4b807060","6617fad957f7c6a12ea16e26","6622c9b6a0323a9b731e8303","image grid","p","","","","","Ontogenetic_Distractor_Nonthreat_target","2500","ongrid","p","5","Ontogenetic","true","experimental"
"","null","html-keyboard-response","252","323266","0.0-13.0-2.13","cfqIV3Nz4B","5e54dced73aedb4d4b807060","6617fad957f7c6a12ea16e26","6622c9b6a0323a9b731e8303","
    <div id=""grid-container"">
        <!-- Grid items will be dynamically added here -->
    </div>    ","null","","","","","","","","","","","",""
"","null","html-keyboard-response","253","323981","0.0-13.0-0.14","cfqIV3Nz4B","5e54dced73aedb4d4b807060","6617fad957f7c6a12ea16e26","6622c9b6a0323a9b731e8303","fixation cross","null","","","","","","","","","","","",""
"","null","html-keyboard-response","254","326496","0.0-13.0-1.14","cfqIV3Nz4B","5e54dced73aedb4d4b807060","6617fad957f7c6a12ea16e26","6622c9b6a0323a9b731e8303","
        <div id=""grid-container"">
        <!-- Grid items will be dynamically added here -->
    </div>    ","null","","","","","","","","","","","",""
"","2777","html-keyboard-response","255","326774","0.0-13.0-2.14","cfqIV3Nz4B","5e54dced73aedb4d4b807060","6617fad957f7c6a12ea16e26","6622c9b6a0323a9b731e8303","mask grid"," ","","","","","Ontogenetic_Distractor_notarget","2500","onmask"," ","3","Ontogenetic","true","experimental"
"","null","html-keyboard-response","256","327486","0.0-13.0-0.15","cfqIV3Nz4B","5e54dced73aedb4d4b807060","6617fad957f7c6a12ea16e26","6622c9b6a0323a9b731e8303","fixation cross","null","","","","","","","","","","","",""
"","null","html-keyboard-response","257","330005","0.0-13.0-1.15","cfqIV3Nz4B","5e54dced73aedb4d4b807060","6617fad957f7c6a12ea16e26","6622c9b6a0323a9b731e8303","
        <div id=""grid-container"">
        <!-- Grid items will be dynamically added here -->
    </div>    ","null","","","","","","","","","","","",""
"","2729","html-keyboard-response","258","330235","0.0-13.0-2.15","cfqIV3Nz4B","5e54dced73aedb4d4b807060","6617fad957f7c6a12ea16e26","6622c9b6a0323a9b731e8303","mask grid","q","","","","","Ontogenetic_Distractor_Threat_target","2500","onmask","q","4","Ontogenetic","true","experimental"
"","null","html-keyboard-response","259","330951","0.0-13.0-0.16","cfqIV3Nz4B","5e54dced73aedb4d4b807060","6617fad957f7c6a12ea16e26","6622c9b6a0323a9b731e8303","fixation cross","null","","","","","","","","","","","",""
"","null","html-keyboard-response","260","333456","0.0-13.0-1.16","cfqIV3Nz4B","5e54dced73aedb4d4b807060","6617fad957f7c6a12ea16e26","6622c9b6a0323a9b731e8303","
        <div id=""grid-container"">
        <!-- Grid items will be dynamically added here -->
    </div>    ","null","","","","","","","","","","","",""
"","2847","html-keyboard-response","261","333804","0.0-13.0-2.16","cfqIV3Nz4B","5e54dced73aedb4d4b807060","6617fad957f7c6a12ea16e26","6622c9b6a0323a9b731e8303","mask grid","q","","","","","Ontogenetic_Distractor_Threat_target","2500","onmask","q","1","Ontogenetic","true","experimental"
"","null","html-keyboard-response","262","334526","0.0-13.0-0.17","cfqIV3Nz4B","5e54dced73aedb4d4b807060","6617fad957f7c6a12ea16e26","6622c9b6a0323a9b731e8303","fixation cross","null","","","","","","","","","","","",""
"","null","html-keyboard-response","263","337040","0.0-13.0-1.17","cfqIV3Nz4B","5e54dced73aedb4d4b807060","6617fad957f7c6a12ea16e26","6622c9b6a0323a9b731e8303","
        <div id=""grid-container"">
        <!-- Grid items will be dynamically added here -->
    </div>    ","null","","","","","","","","","","","",""
"","2838","html-keyboard-response","264","337379","0.0-13.0-2.17","cfqIV3Nz4B","5e54dced73aedb4d4b807060","6617fad957f7c6a12ea16e26","6622c9b6a0323a9b731e8303","mask grid","p","","","","","Ontogenetic_Distractor_Nonthreat_target","2500","onmask","p","6","Ontogenetic","true","experimental"
"","null","html-keyboard-response","265","338089","0.0-13.0-0.18","cfqIV3Nz4B","5e54dced73aedb4d4b807060","6617fad957f7c6a12ea16e26","6622c9b6a0323a9b731e8303","fixation cross","null","","","","","","","","","","","",""
"","null","html-keyboard-response","266","340605","0.0-13.0-1.18","cfqIV3Nz4B","5e54dced73aedb4d4b807060","6617fad957f7c6a12ea16e26","6622c9b6a0323a9b731e8303","
        <div id=""grid-container"">
        <!-- Grid items will be dynamically added here -->
    </div>    ","null","","","","","","","","","","","",""
"","2851","html-keyboard-response","267","340957","0.0-13.0-2.18","cfqIV3Nz4B","5e54dced73aedb4d4b807060","6617fad957f7c6a12ea16e26","6622c9b6a0323a9b731e8303","mask grid","p","","","","","Ontogenetic_Distractor_Nonthreat_target","2500","onmask","p","2","Ontogenetic","true","experimental"
"","null","html-keyboard-response","268","341664","0.0-13.0-0.19","cfqIV3Nz4B","5e54dced73aedb4d4b807060","6617fad957f7c6a12ea16e26","6622c9b6a0323a9b731e8303","fixation cross","null","","","","","","","","","","","",""
"","null","html-keyboard-response","269","344181","0.0-13.0-1.19","cfqIV3Nz4B","5e54dced73aedb4d4b807060","6617fad957f7c6a12ea16e26","6622c9b6a0323a9b731e8303","
        <div id=""grid-container"">
        <!-- Grid items will be dynamically added here -->
    </div>    ","null","","","","","","","","","","","",""
"","2790","html-keyboard-response","270","344472","0.0-13.0-2.19","cfqIV3Nz4B","5e54dced73aedb4d4b807060","6617fad957f7c6a12ea16e26","6622c9b6a0323a9b731e8303","mask grid","q","","","","","Ontogenetic_Distractor_Threat_target","2500","onmask","q","3","Ontogenetic","true","experimental"
"","null","html-keyboard-response","271","345191","0.0-13.0-0.20","cfqIV3Nz4B","5e54dced73aedb4d4b807060","6617fad957f7c6a12ea16e26","6622c9b6a0323a9b731e8303","fixation cross","null","","","","","","","","","","","",""
"","null","html-keyboard-response","272","347704","0.0-13.0-1.20","cfqIV3Nz4B","5e54dced73aedb4d4b807060","6617fad957f7c6a12ea16e26","6622c9b6a0323a9b731e8303","
        <div id=""grid-container"">
        <!-- Grid items will be dynamically added here -->
    </div>    ","null","","","","","","","","","","","",""
"","2846","html-keyboard-response","273","348051","0.0-13.0-2.20","cfqIV3Nz4B","5e54dced73aedb4d4b807060","6617fad957f7c6a12ea16e26","6622c9b6a0323a9b731e8303","mask grid","p","","","","","Ontogenetic_Distractor_Nonthreat_target","2500","onmask","p","4","Ontogenetic","true","experimental"
"","null","html-keyboard-response","274","348764","0.0-13.0-0.21","cfqIV3Nz4B","5e54dced73aedb4d4b807060","6617fad957f7c6a12ea16e26","6622c9b6a0323a9b731e8303","fixation cross","null","","","","","","","","","","","",""
"","null","html-keyboard-response","275","351279","0.0-13.0-1.21","cfqIV3Nz4B","5e54dced73aedb4d4b807060","6617fad957f7c6a12ea16e26","6622c9b6a0323a9b731e8303","
        <div id=""grid-container"">
        <!-- Grid items will be dynamically added here -->
    </div>    ","null","","","","","","","","","","","",""
"","2775","html-keyboard-response","276","351555","0.0-13.0-2.21","cfqIV3Nz4B","5e54dced73aedb4d4b807060","6617fad957f7c6a12ea16e26","6622c9b6a0323a9b731e8303","mask grid","q","","","","","Ontogenetic_Distractor_Threat_target","2500","onmask","q","2","Ontogenetic","true","experimental"
"","null","html-keyboard-response","277","352273","0.0-13.0-0.22","cfqIV3Nz4B","5e54dced73aedb4d4b807060","6617fad957f7c6a12ea16e26","6622c9b6a0323a9b731e8303","fixation cross","null","","","","","","","","","","","",""
"","null","html-keyboard-response","278","354774","0.0-13.0-1.22","cfqIV3Nz4B","5e54dced73aedb4d4b807060","6617fad957f7c6a12ea16e26","6622c9b6a0323a9b731e8303","
        <div id=""grid-container"">
        <!-- Grid items will be dynamically added here -->
    </div>    ","null","","","","","","","","","","","",""
"","3222","html-keyboard-response","279","355497","0.0-13.0-2.22","cfqIV3Nz4B","5e54dced73aedb4d4b807060","6617fad957f7c6a12ea16e26","6622c9b6a0323a9b731e8303","mask grid"," ","","","","","Ontogenetic_Distractor_notarget","2500","onmask"," ","8","Ontogenetic","true","experimental"
"","null","html-keyboard-response","280","356214","0.0-13.0-0.23","cfqIV3Nz4B","5e54dced73aedb4d4b807060","6617fad957f7c6a12ea16e26","6622c9b6a0323a9b731e8303","fixation cross","null","","","","","","","","","","","",""
"","null","html-keyboard-response","281","358717","0.0-13.0-1.23","cfqIV3Nz4B","5e54dced73aedb4d4b807060","6617fad957f7c6a12ea16e26","6622c9b6a0323a9b731e8303","
        <div id=""grid-container"">
        <!-- Grid items will be dynamically added here -->
    </div>    ","null","","","","","","","","","","","",""
"","2768","html-keyboard-response","282","358986","0.0-13.0-2.23","cfqIV3Nz4B","5e54dced73aedb4d4b807060","6617fad957f7c6a12ea16e26","6622c9b6a0323a9b731e8303","mask grid","p","","","","","Ontogenetic_Distractor_Nonthreat_target","2500","onmask","p","5","Ontogenetic","true","experimental"
"","null","html-keyboard-response","283","359715","0.0-13.0-0.24","cfqIV3Nz4B","5e54dced73aedb4d4b807060","6617fad957f7c6a12ea16e26","6622c9b6a0323a9b731e8303","fixation cross","null","","","","","","","","","","","",""
"","null","html-keyboard-response","284","362230","0.0-13.0-1.24","cfqIV3Nz4B","5e54dced73aedb4d4b807060","6617fad957f7c6a12ea16e26","6622c9b6a0323a9b731e8303","
        <div id=""grid-container"">
        <!-- Grid items will be dynamically added here -->
    </div>    ","null","","","","","","","","","","","",""
"","2912","html-keyboard-response","285","362642","0.0-13.0-2.24","cfqIV3Nz4B","5e54dced73aedb4d4b807060","6617fad957f7c6a12ea16e26","6622c9b6a0323a9b731e8303","mask grid","p","","","","","Ontogenetic_Distractor_Nonthreat_target","2500","onmask","p","9","Ontogenetic","true","experimental"
"","null","html-keyboard-response","286","363358","0.0-13.0-0.25","cfqIV3Nz4B","5e54dced73aedb4d4b807060","6617fad957f7c6a12ea16e26","6622c9b6a0323a9b731e8303","fixation cross","null","","","","","","","","","","","",""
"","null","html-keyboard-response","287","365873","0.0-13.0-1.25","cfqIV3Nz4B","5e54dced73aedb4d4b807060","6617fad957f7c6a12ea16e26","6622c9b6a0323a9b731e8303","
        <div id=""grid-container"">
        <!-- Grid items will be dynamically added here -->
    </div>    ","null","","","","","","","","","","","",""
"","2763","html-keyboard-response","288","366137","0.0-13.0-2.25","cfqIV3Nz4B","5e54dced73aedb4d4b807060","6617fad957f7c6a12ea16e26","6622c9b6a0323a9b731e8303","mask grid","q","","","","","Ontogenetic_Distractor_Threat_target","2500","onmask","q","6","Ontogenetic","true","experimental"
"","null","html-keyboard-response","289","366863","0.0-13.0-0.26","cfqIV3Nz4B","5e54dced73aedb4d4b807060","6617fad957f7c6a12ea16e26","6622c9b6a0323a9b731e8303","fixation cross","null","","","","","","","","","","","",""
"","null","html-keyboard-response","290","369379","0.0-13.0-1.26","cfqIV3Nz4B","5e54dced73aedb4d4b807060","6617fad957f7c6a12ea16e26","6622c9b6a0323a9b731e8303","
        <div id=""grid-container"">
        <!-- Grid items will be dynamically added here -->
    </div>    ","null","","","","","","","","","","","",""
"","2949","html-keyboard-response","291","369828","0.0-13.0-2.26","cfqIV3Nz4B","5e54dced73aedb4d4b807060","6617fad957f7c6a12ea16e26","6622c9b6a0323a9b731e8303","mask grid","q","","","","","Ontogenetic_Distractor_Threat_target","2500","onmask","q","2","Ontogenetic","true","experimental"
"","null","html-keyboard-response","292","370553","0.0-13.0-0.27","cfqIV3Nz4B","5e54dced73aedb4d4b807060","6617fad957f7c6a12ea16e26","6622c9b6a0323a9b731e8303","fixation cross","null","","","","","","","","","","","",""
"","null","html-keyboard-response","293","373063","0.0-13.0-1.27","cfqIV3Nz4B","5e54dced73aedb4d4b807060","6617fad957f7c6a12ea16e26","6622c9b6a0323a9b731e8303","
        <div id=""grid-container"">
        <!-- Grid items will be dynamically added here -->
    </div>    ","null","","","","","","","","","","","",""
"","2862","html-keyboard-response","294","373426","0.0-13.0-2.27","cfqIV3Nz4B","5e54dced73aedb4d4b807060","6617fad957f7c6a12ea16e26","6622c9b6a0323a9b731e8303","mask grid","q","","","","","Ontogenetic_Distractor_Threat_target","2500","onmask","q","5","Ontogenetic","true","experimental"
"","null","html-keyboard-response","295","374145","0.0-13.0-0.28","cfqIV3Nz4B","5e54dced73aedb4d4b807060","6617fad957f7c6a12ea16e26","6622c9b6a0323a9b731e8303","fixation cross","null","","","","","","","","","","","",""
"","null","html-keyboard-response","296","376660","0.0-13.0-1.28","cfqIV3Nz4B","5e54dced73aedb4d4b807060","6617fad957f7c6a12ea16e26","6622c9b6a0323a9b731e8303","
        <div id=""grid-container"">
        <!-- Grid items will be dynamically added here -->
    </div>    ","null","","","","","","","","","","","",""
"","2993","html-keyboard-response","297","377154","0.0-13.0-2.28","cfqIV3Nz4B","5e54dced73aedb4d4b807060","6617fad957f7c6a12ea16e26","6622c9b6a0323a9b731e8303","mask grid","p","","","","","Ontogenetic_Distractor_Nonthreat_target","2500","onmask","p","5","Ontogenetic","true","experimental"
"","null","html-keyboard-response","298","377874","0.0-13.0-0.29","cfqIV3Nz4B","5e54dced73aedb4d4b807060","6617fad957f7c6a12ea16e26","6622c9b6a0323a9b731e8303","fixation cross","null","","","","","","","","","","","",""
"","null","html-keyboard-response","299","380377","0.0-13.0-1.29","cfqIV3Nz4B","5e54dced73aedb4d4b807060","6617fad957f7c6a12ea16e26","6622c9b6a0323a9b731e8303","
        <div id=""grid-container"">
        <!-- Grid items will be dynamically added here -->
    </div>    ","null","","","","","","","","","","","",""
"","2835","html-keyboard-response","300","380712","0.0-13.0-2.29","cfqIV3Nz4B","5e54dced73aedb4d4b807060","6617fad957f7c6a12ea16e26","6622c9b6a0323a9b731e8303","mask grid","q","","","","","Ontogenetic_Distractor_Threat_target","2500","onmask","q","3","Ontogenetic","true","experimental"
"","null","html-keyboard-response","301","381449","0.0-13.0-0.30","cfqIV3Nz4B","5e54dced73aedb4d4b807060","6617fad957f7c6a12ea16e26","6622c9b6a0323a9b731e8303","fixation cross","null","","","","","","","","","","","",""
"","null","html-keyboard-response","302","383956","0.0-13.0-1.30","cfqIV3Nz4B","5e54dced73aedb4d4b807060","6617fad957f7c6a12ea16e26","6622c9b6a0323a9b731e8303","
        <div id=""grid-container"">
        <!-- Grid items will be dynamically added here -->
    </div>    ","null","","","","","","","","","","","",""
"","2804","html-keyboard-response","303","384261","0.0-13.0-2.30","cfqIV3Nz4B","5e54dced73aedb4d4b807060","6617fad957f7c6a12ea16e26","6622c9b6a0323a9b731e8303","mask grid","q","","","","","Ontogenetic_Distractor_Threat_target","2500","onmask","q","9","Ontogenetic","true","experimental"
"","null","html-keyboard-response","304","384972","0.0-13.0-0.31","cfqIV3Nz4B","5e54dced73aedb4d4b807060","6617fad957f7c6a12ea16e26","6622c9b6a0323a9b731e8303","fixation cross","null","","","","","","","","","","","",""
"","null","html-keyboard-response","305","387482","0.0-13.0-1.31","cfqIV3Nz4B","5e54dced73aedb4d4b807060","6617fad957f7c6a12ea16e26","6622c9b6a0323a9b731e8303","
        <div id=""grid-container"">
        <!-- Grid items will be dynamically added here -->
    </div>    ","null","","","","","","","","","","","",""
"","2785","html-keyboard-response","306","387768","0.0-13.0-2.31","cfqIV3Nz4B","5e54dced73aedb4d4b807060","6617fad957f7c6a12ea16e26","6622c9b6a0323a9b731e8303","mask grid","p","","","","","Ontogenetic_Distractor_Nonthreat_target","2500","onmask","p","5","Ontogenetic","true","experimental"
"","null","html-keyboard-response","307","388499","0.0-13.0-0.32","cfqIV3Nz4B","5e54dced73aedb4d4b807060","6617fad957f7c6a12ea16e26","6622c9b6a0323a9b731e8303","fixation cross","null","","","","","","","","","","","",""
"","null","html-keyboard-response","308","391002","0.0-13.0-1.32","cfqIV3Nz4B","5e54dced73aedb4d4b807060","6617fad957f7c6a12ea16e26","6622c9b6a0323a9b731e8303","
        <div id=""grid-container"">
        <!-- Grid items will be dynamically added here -->
    </div>    ","null","","","","","","","","","","","",""
"","2871","html-keyboard-response","309","391373","0.0-13.0-2.32","cfqIV3Nz4B","5e54dced73aedb4d4b807060","6617fad957f7c6a12ea16e26","6622c9b6a0323a9b731e8303","mask grid","q","","","","","Ontogenetic_Distractor_Threat_target","2500","onmask","q","4","Ontogenetic","true","experimental"
"","null","html-keyboard-response","310","392085","0.0-13.0-0.33","cfqIV3Nz4B","5e54dced73aedb4d4b807060","6617fad957f7c6a12ea16e26","6622c9b6a0323a9b731e8303","fixation cross","null","","","","","","","","","","","",""
"","null","html-keyboard-response","311","394597","0.0-13.0-1.33","cfqIV3Nz4B","5e54dced73aedb4d4b807060","6617fad957f7c6a12ea16e26","6622c9b6a0323a9b731e8303","
        <div id=""grid-container"">
        <!-- Grid items will be dynamically added here -->
    </div>    ","null","","","","","","","","","","","",""
"","2803","html-keyboard-response","312","394901","0.0-13.0-2.33","cfqIV3Nz4B","5e54dced73aedb4d4b807060","6617fad957f7c6a12ea16e26","6622c9b6a0323a9b731e8303","mask grid"," ","","","","","Ontogenetic_Distractor_notarget","2500","onmask"," ","8","Ontogenetic","true","experimental"
"","null","html-keyboard-response","313","395617","0.0-13.0-0.34","cfqIV3Nz4B","5e54dced73aedb4d4b807060","6617fad957f7c6a12ea16e26","6622c9b6a0323a9b731e8303","fixation cross","null","","","","","","","","","","","",""
"","null","html-keyboard-response","314","398125","0.0-13.0-1.34","cfqIV3Nz4B","5e54dced73aedb4d4b807060","6617fad957f7c6a12ea16e26","6622c9b6a0323a9b731e8303","
        <div id=""grid-container"">
        <!-- Grid items will be dynamically added here -->
    </div>    ","null","","","","","","","","","","","",""
"","3028","html-keyboard-response","315","398654","0.0-13.0-2.34","cfqIV3Nz4B","5e54dced73aedb4d4b807060","6617fad957f7c6a12ea16e26","6622c9b6a0323a9b731e8303","mask grid","q","","","","","Ontogenetic_Distractor_Threat_target","2500","onmask","q","7","Ontogenetic","true","experimental"
"","null","html-keyboard-response","316","399378","0.0-13.0-0.35","cfqIV3Nz4B","5e54dced73aedb4d4b807060","6617fad957f7c6a12ea16e26","6622c9b6a0323a9b731e8303","fixation cross","null","","","","","","","","","","","",""
"","null","html-keyboard-response","317","401894","0.0-13.0-1.35","cfqIV3Nz4B","5e54dced73aedb4d4b807060","6617fad957f7c6a12ea16e26","6622c9b6a0323a9b731e8303","
        <div id=""grid-container"">
        <!-- Grid items will be dynamically added here -->
    </div>    ","null","","","","","","","","","","","",""
"","2656","html-keyboard-response","318","402051","0.0-13.0-2.35","cfqIV3Nz4B","5e54dced73aedb4d4b807060","6617fad957f7c6a12ea16e26","6622c9b6a0323a9b731e8303","mask grid","q","","","","","Ontogenetic_Distractor_Threat_target","2500","onmask","q","6","Ontogenetic","true","experimental"
"","null","html-keyboard-response","319","402759","0.0-13.0-0.36","cfqIV3Nz4B","5e54dced73aedb4d4b807060","6617fad957f7c6a12ea16e26","6622c9b6a0323a9b731e8303","fixation cross","null","","","","","","","","","","","",""
"","null","html-keyboard-response","320","405274","0.0-13.0-1.36","cfqIV3Nz4B","5e54dced73aedb4d4b807060","6617fad957f7c6a12ea16e26","6622c9b6a0323a9b731e8303","
        <div id=""grid-container"">
        <!-- Grid items will be dynamically added here -->
    </div>    ","null","","","","","","","","","","","",""
"","2801","html-keyboard-response","321","405576","0.0-13.0-2.36","cfqIV3Nz4B","5e54dced73aedb4d4b807060","6617fad957f7c6a12ea16e26","6622c9b6a0323a9b731e8303","mask grid","p","","","","","Ontogenetic_Distractor_Nonthreat_target","2500","onmask","p","1","Ontogenetic","true","experimental"
"","null","html-keyboard-response","322","406300","0.0-13.0-0.37","cfqIV3Nz4B","5e54dced73aedb4d4b807060","6617fad957f7c6a12ea16e26","6622c9b6a0323a9b731e8303","fixation cross","null","","","","","","","","","","","",""
"","null","html-keyboard-response","323","408815","0.0-13.0-1.37","cfqIV3Nz4B","5e54dced73aedb4d4b807060","6617fad957f7c6a12ea16e26","6622c9b6a0323a9b731e8303","
        <div id=""grid-container"">
        <!-- Grid items will be dynamically added here -->
    </div>    ","null","","","","","","","","","","","",""
"","2845","html-keyboard-response","324","409161","0.0-13.0-2.37","cfqIV3Nz4B","5e54dced73aedb4d4b807060","6617fad957f7c6a12ea16e26","6622c9b6a0323a9b731e8303","mask grid","p","","","","","Ontogenetic_Distractor_Nonthreat_target","2500","onmask","p","9","Ontogenetic","true","experimental"
"","null","html-keyboard-response","325","409888","0.0-13.0-0.38","cfqIV3Nz4B","5e54dced73aedb4d4b807060","6617fad957f7c6a12ea16e26","6622c9b6a0323a9b731e8303","fixation cross","null","","","","","","","","","","","",""
"","null","html-keyboard-response","326","412398","0.0-13.0-1.38","cfqIV3Nz4B","5e54dced73aedb4d4b807060","6617fad957f7c6a12ea16e26","6622c9b6a0323a9b731e8303","
        <div id=""grid-container"">
        <!-- Grid items will be dynamically added here -->
    </div>    ","null","","","","","","","","","","","",""
"","2840","html-keyboard-response","327","412739","0.0-13.0-2.38","cfqIV3Nz4B","5e54dced73aedb4d4b807060","6617fad957f7c6a12ea16e26","6622c9b6a0323a9b731e8303","mask grid","p","","","","","Ontogenetic_Distractor_Nonthreat_target","2500","onmask","p","2","Ontogenetic","true","experimental"
"","null","html-keyboard-response","328","413471","0.0-13.0-0.39","cfqIV3Nz4B","5e54dced73aedb4d4b807060","6617fad957f7c6a12ea16e26","6622c9b6a0323a9b731e8303","fixation cross","null","","","","","","","","","","","",""
"","null","html-keyboard-response","329","415981","0.0-13.0-1.39","cfqIV3Nz4B","5e54dced73aedb4d4b807060","6617fad957f7c6a12ea16e26","6622c9b6a0323a9b731e8303","
        <div id=""grid-container"">
        <!-- Grid items will be dynamically added here -->
    </div>    ","null","","","","","","","","","","","",""
"","2856","html-keyboard-response","330","416338","0.0-13.0-2.39","cfqIV3Nz4B","5e54dced73aedb4d4b807060","6617fad957f7c6a12ea16e26","6622c9b6a0323a9b731e8303","mask grid","p","","","","","Ontogenetic_Distractor_Nonthreat_target","2500","onmask","p","9","Ontogenetic","true","experimental"
"","5439","html-keyboard-response","331","421985","0.0-14.0","cfqIV3Nz4B","5e54dced73aedb4d4b807060","6617fad957f7c6a12ea16e26","6622c9b6a0323a9b731e8303","break screen"," ","","","","","","","","","","","",""
"","null","html-keyboard-response","332","424513","0.0-15.0-0.0","cfqIV3Nz4B","5e54dced73aedb4d4b807060","6617fad957f7c6a12ea16e26","6622c9b6a0323a9b731e8303","fixation cross","null","","","","","","","","","","","",""
"","null","html-keyboard-response","333","425321","0.0-15.0-1.0","cfqIV3Nz4B","5e54dced73aedb4d4b807060","6617fad957f7c6a12ea16e26","6622c9b6a0323a9b731e8303","
        <div id=""grid-container"">
        <!-- Grid items will be dynamically added here -->
    </div>    ","null","","","","","","","","","","","",""
"","1404","html-keyboard-response","334","425926","0.0-15.0-2.0","cfqIV3Nz4B","5e54dced73aedb4d4b807060","6617fad957f7c6a12ea16e26","6622c9b6a0323a9b731e8303","mask grid","p","","","","","Phylogenetic_Distractor_Nonthreat_target","800","onmask","p","4","Phylogenetic","true","experimental"
"","null","html-keyboard-response","335","426644","0.0-15.0-0.1","cfqIV3Nz4B","5e54dced73aedb4d4b807060","6617fad957f7c6a12ea16e26","6622c9b6a0323a9b731e8303","fixation cross","null","","","","","","","","","","","",""
"","null","html-keyboard-response","336","427458","0.0-15.0-1.1","cfqIV3Nz4B","5e54dced73aedb4d4b807060","6617fad957f7c6a12ea16e26","6622c9b6a0323a9b731e8303","
        <div id=""grid-container"">
        <!-- Grid items will be dynamically added here -->
    </div>    ","null","","","","","","","","","","","",""
"","1205","html-keyboard-response","337","427864","0.0-15.0-2.1","cfqIV3Nz4B","5e54dced73aedb4d4b807060","6617fad957f7c6a12ea16e26","6622c9b6a0323a9b731e8303","mask grid","p","","","","","Phylogenetic_Distractor_Nonthreat_target","800","onmask","p","1","Phylogenetic","true","experimental"
"","null","html-keyboard-response","338","428597","0.0-15.0-0.2","cfqIV3Nz4B","5e54dced73aedb4d4b807060","6617fad957f7c6a12ea16e26","6622c9b6a0323a9b731e8303","fixation cross","null","","","","","","","","","","","",""
"","null","html-keyboard-response","339","429402","0.0-15.0-1.2","cfqIV3Nz4B","5e54dced73aedb4d4b807060","6617fad957f7c6a12ea16e26","6622c9b6a0323a9b731e8303","
        <div id=""grid-container"">
        <!-- Grid items will be dynamically added here -->
    </div>    ","null","","","","","","","","","","","",""
"","1645","html-keyboard-response","340","430248","0.0-15.0-2.2","cfqIV3Nz4B","5e54dced73aedb4d4b807060","6617fad957f7c6a12ea16e26","6622c9b6a0323a9b731e8303","mask grid","p","","","","","Phylogenetic_Distractor_notarget","800","onmask"," ","5","Phylogenetic","false","experimental"
"","null","html-keyboard-response","341","430960","0.0-15.0-0.3","cfqIV3Nz4B","5e54dced73aedb4d4b807060","6617fad957f7c6a12ea16e26","6622c9b6a0323a9b731e8303","fixation cross","null","","","","","","","","","","","",""
"","null","html-keyboard-response","342","431775","0.0-15.0-1.3","cfqIV3Nz4B","5e54dced73aedb4d4b807060","6617fad957f7c6a12ea16e26","6622c9b6a0323a9b731e8303","
        <div id=""grid-container"">
        <!-- Grid items will be dynamically added here -->
    </div>    ","null","","","","","","","","","","","",""
"","1761","html-keyboard-response","343","432737","0.0-15.0-2.3","cfqIV3Nz4B","5e54dced73aedb4d4b807060","6617fad957f7c6a12ea16e26","6622c9b6a0323a9b731e8303","mask grid","q","","","","","Phylogenetic_Distractor_Nonthreat_target","800","onmask","p","6","Phylogenetic","false","experimental"
"","null","html-keyboard-response","344","433460","0.0-15.0-0.4","cfqIV3Nz4B","5e54dced73aedb4d4b807060","6617fad957f7c6a12ea16e26","6622c9b6a0323a9b731e8303","fixation cross","null","","","","","","","","","","","",""
"","null","html-keyboard-response","345","434274","0.0-15.0-1.4","cfqIV3Nz4B","5e54dced73aedb4d4b807060","6617fad957f7c6a12ea16e26","6622c9b6a0323a9b731e8303","
        <div id=""grid-container"">
        <!-- Grid items will be dynamically added here -->
    </div>    ","null","","","","","","","","","","","",""
"","1265","html-keyboard-response","346","434739","0.0-15.0-2.4","cfqIV3Nz4B","5e54dced73aedb4d4b807060","6617fad957f7c6a12ea16e26","6622c9b6a0323a9b731e8303","mask grid","p","","","","","Phylogenetic_Distractor_Nonthreat_target","800","onmask","p","7","Phylogenetic","true","experimental"
"","null","html-keyboard-response","347","435458","0.0-15.0-0.5","cfqIV3Nz4B","5e54dced73aedb4d4b807060","6617fad957f7c6a12ea16e26","6622c9b6a0323a9b731e8303","fixation cross","null","","","","","","","","","","","",""
"","null","html-keyboard-response","348","436261","0.0-15.0-1.5","cfqIV3Nz4B","5e54dced73aedb4d4b807060","6617fad957f7c6a12ea16e26","6622c9b6a0323a9b731e8303","
        <div id=""grid-container"">
        <!-- Grid items will be dynamically added here -->
    </div>    ","null","","","","","","","","","","","",""
"","1374","html-keyboard-response","349","436836","0.0-15.0-2.5","cfqIV3Nz4B","5e54dced73aedb4d4b807060","6617fad957f7c6a12ea16e26","6622c9b6a0323a9b731e8303","mask grid","p","","","","","Phylogenetic_Distractor_Nonthreat_target","800","onmask","p","7","Phylogenetic","true","experimental"
"","null","html-keyboard-response","350","437546","0.0-15.0-0.6","cfqIV3Nz4B","5e54dced73aedb4d4b807060","6617fad957f7c6a12ea16e26","6622c9b6a0323a9b731e8303","fixation cross","null","","","","","","","","","","","",""
"","null","html-keyboard-response","351","438355","0.0-15.0-1.6","cfqIV3Nz4B","5e54dced73aedb4d4b807060","6617fad957f7c6a12ea16e26","6622c9b6a0323a9b731e8303","
        <div id=""grid-container"">
        <!-- Grid items will be dynamically added here -->
    </div>    ","null","","","","","","","","","","","",""
"","1195","html-keyboard-response","352","438750","0.0-15.0-2.6","cfqIV3Nz4B","5e54dced73aedb4d4b807060","6617fad957f7c6a12ea16e26","6622c9b6a0323a9b731e8303","mask grid","p","","","","","Phylogenetic_Distractor_Nonthreat_target","800","onmask","p","2","Phylogenetic","true","experimental"
"","null","html-keyboard-response","353","439471","0.0-15.0-0.7","cfqIV3Nz4B","5e54dced73aedb4d4b807060","6617fad957f7c6a12ea16e26","6622c9b6a0323a9b731e8303","fixation cross","null","","","","","","","","","","","",""
"","null","html-keyboard-response","354","440274","0.0-15.0-1.7","cfqIV3Nz4B","5e54dced73aedb4d4b807060","6617fad957f7c6a12ea16e26","6622c9b6a0323a9b731e8303","
        <div id=""grid-container"">
        <!-- Grid items will be dynamically added here -->
    </div>    ","null","","","","","","","","","","","",""
"","1612","html-keyboard-response","355","441087","0.0-15.0-2.7","cfqIV3Nz4B","5e54dced73aedb4d4b807060","6617fad957f7c6a12ea16e26","6622c9b6a0323a9b731e8303","mask grid"," ","","","","","Phylogenetic_Distractor_notarget","800","onmask"," ","7","Phylogenetic","true","experimental"
"","null","html-keyboard-response","356","441802","0.0-15.0-0.8","cfqIV3Nz4B","5e54dced73aedb4d4b807060","6617fad957f7c6a12ea16e26","6622c9b6a0323a9b731e8303","fixation cross","null","","","","","","","","","","","",""
"","null","html-keyboard-response","357","442617","0.0-15.0-1.8","cfqIV3Nz4B","5e54dced73aedb4d4b807060","6617fad957f7c6a12ea16e26","6622c9b6a0323a9b731e8303","
        <div id=""grid-container"">
        <!-- Grid items will be dynamically added here -->
    </div>    ","null","","","","","","","","","","","",""
"","1234","html-keyboard-response","358","443052","0.0-15.0-2.8","cfqIV3Nz4B","5e54dced73aedb4d4b807060","6617fad957f7c6a12ea16e26","6622c9b6a0323a9b731e8303","mask grid","p","","","","","Phylogenetic_Distractor_Nonthreat_target","800","onmask","p","1","Phylogenetic","true","experimental"
"","null","html-keyboard-response","359","443769","0.0-15.0-0.9","cfqIV3Nz4B","5e54dced73aedb4d4b807060","6617fad957f7c6a12ea16e26","6622c9b6a0323a9b731e8303","fixation cross","null","","","","","","","","","","","",""
"","null","html-keyboard-response","360","444592","0.0-15.0-1.9","cfqIV3Nz4B","5e54dced73aedb4d4b807060","6617fad957f7c6a12ea16e26","6622c9b6a0323a9b731e8303","
        <div id=""grid-container"">
        <!-- Grid items will be dynamically added here -->
    </div>    ","null","","","","","","","","","","","",""
"","1353","html-keyboard-response","361","445146","0.0-15.0-2.9","cfqIV3Nz4B","5e54dced73aedb4d4b807060","6617fad957f7c6a12ea16e26","6622c9b6a0323a9b731e8303","mask grid","p","","","","","Phylogenetic_Distractor_Nonthreat_target","800","onmask","p","3","Phylogenetic","true","experimental"
"","null","html-keyboard-response","362","445854","0.0-15.0-0.10","cfqIV3Nz4B","5e54dced73aedb4d4b807060","6617fad957f7c6a12ea16e26","6622c9b6a0323a9b731e8303","fixation cross","null","","","","","","","","","","","",""
"","null","html-keyboard-response","363","446669","0.0-15.0-1.10","cfqIV3Nz4B","5e54dced73aedb4d4b807060","6617fad957f7c6a12ea16e26","6622c9b6a0323a9b731e8303","
        <div id=""grid-container"">
        <!-- Grid items will be dynamically added here -->
    </div>    ","null","","","","","","","","","","","",""
"","1239","html-keyboard-response","364","447109","0.0-15.0-2.10","cfqIV3Nz4B","5e54dced73aedb4d4b807060","6617fad957f7c6a12ea16e26","6622c9b6a0323a9b731e8303","mask grid","q","","","","","Phylogenetic_Distractor_Threat_target","800","onmask","q","9","Phylogenetic","true","experimental"
"","null","html-keyboard-response","365","447830","0.0-15.0-0.11","cfqIV3Nz4B","5e54dced73aedb4d4b807060","6617fad957f7c6a12ea16e26","6622c9b6a0323a9b731e8303","fixation cross","null","","","","","","","","","","","",""
"","null","html-keyboard-response","366","448636","0.0-15.0-1.11","cfqIV3Nz4B","5e54dced73aedb4d4b807060","6617fad957f7c6a12ea16e26","6622c9b6a0323a9b731e8303","
        <div id=""grid-container"">
        <!-- Grid items will be dynamically added here -->
    </div>    ","null","","","","","","","","","","","",""
"","1558","html-keyboard-response","367","449395","0.0-15.0-2.11","cfqIV3Nz4B","5e54dced73aedb4d4b807060","6617fad957f7c6a12ea16e26","6622c9b6a0323a9b731e8303","mask grid","q","","","","","Phylogenetic_Distractor_Nonthreat_target","800","onmask","p","3","Phylogenetic","false","experimental"
"","null","html-keyboard-response","368","450133","0.0-15.0-0.12","cfqIV3Nz4B","5e54dced73aedb4d4b807060","6617fad957f7c6a12ea16e26","6622c9b6a0323a9b731e8303","fixation cross","null","","","","","","","","","","","",""
"","null","html-keyboard-response","369","450950","0.0-15.0-1.12","cfqIV3Nz4B","5e54dced73aedb4d4b807060","6617fad957f7c6a12ea16e26","6622c9b6a0323a9b731e8303","
        <div id=""grid-container"">
