"success","rt","trial_type","trial_index","time_elapsed","internal_node_id","unique_identifier","subject_id","study_id","session_id","stimulus","response","timeout","failed_images","failed_audio","failed_video","task","time_manipulation","respondedwhen","correctresponse","targetimagelocation","blocktype","correct","roundtype"
"true","2902","fullscreen","0","3911","0.0-0.0","rslDT8rzDI","62db005bae68d37fe24b50da","6617fad957f7c6a12ea16e26","6622ccbf626f3a1e638670ef","","","","","","","","","","","","","",""
"","20391","html-keyboard-response","1","24304","0.0-1.0","rslDT8rzDI","62db005bae68d37fe24b50da","6617fad957f7c6a12ea16e26","6622ccbf626f3a1e638670ef","instruction screen 0"," ","","","","","","","","","","","",""
"true","","preload","2","29097","0.0-2.0","rslDT8rzDI","62db005bae68d37fe24b50da","6617fad957f7c6a12ea16e26","6622ccbf626f3a1e638670ef","","","false","[]","[]","[]","","","","","","","",""
"","10237","html-keyboard-response","3","39337","0.0-3.0","rslDT8rzDI","62db005bae68d37fe24b50da","6617fad957f7c6a12ea16e26","6622ccbf626f3a1e638670ef","instruction screen 1"," ","","","","","","","","","","","",""
"","7394","html-keyboard-response","4","46733","0.0-4.0","rslDT8rzDI","62db005bae68d37fe24b50da","6617fad957f7c6a12ea16e26","6622ccbf626f3a1e638670ef","instruction screen 2","q","","","","","","","","","","","",""
"","4027","html-keyboard-response","5","50762","0.0-5.0","rslDT8rzDI","62db005bae68d37fe24b50da","6617fad957f7c6a12ea16e26","6622ccbf626f3a1e638670ef","instruction screen 3","p","","","","","","","","","","","",""
"","8596","html-keyboard-response","6","59360","0.0-6.0","rslDT8rzDI","62db005bae68d37fe24b50da","6617fad957f7c6a12ea16e26","6622ccbf626f3a1e638670ef","instruction screen 4"," ","","","","","","","","","","","",""
"","14121","html-keyboard-response","7","73483","0.0-7.0","rslDT8rzDI","62db005bae68d37fe24b50da","6617fad957f7c6a12ea16e26","6622ccbf626f3a1e638670ef","instruction screen 5"," ","","","","","","","","","","","",""
"","null","html-keyboard-response","8","74024","0.0-8.0","rslDT8rzDI","62db005bae68d37fe24b50da","6617fad957f7c6a12ea16e26","6622ccbf626f3a1e638670ef","fixation cross","null","","","","","","","","","","","",""
"","null","html-keyboard-response","9","74526","0.0-9.0-0.0","rslDT8rzDI","62db005bae68d37fe24b50da","6617fad957f7c6a12ea16e26","6622ccbf626f3a1e638670ef","fixation cross","null","","","","","","","","","","","",""
"","1223","html-keyboard-response","10","75749","0.0-9.0-1.0","rslDT8rzDI","62db005bae68d37fe24b50da","6617fad957f7c6a12ea16e26","6622ccbf626f3a1e638670ef","image grid","p","","","","","Phylogenetic_Distractor_Nonthreat_target","3000","ongrid","p","7","Ontogenetic","true","practice"
"","null","html-keyboard-response","11","75909","0.0-9.0-2.0","rslDT8rzDI","62db005bae68d37fe24b50da","6617fad957f7c6a12ea16e26","6622ccbf626f3a1e638670ef","
    <div id=""grid-container"">
        <!-- Grid items will be dynamically added here -->
    </div>    ","null","","","","","","","","","","","",""
"","null","html-keyboard-response","12","77116","0.0-9.0-3.0","rslDT8rzDI","62db005bae68d37fe24b50da","6617fad957f7c6a12ea16e26","6622ccbf626f3a1e638670ef","feedback screen","null","","","","","","","","","","","",""
"","null","html-keyboard-response","13","77625","0.0-9.0-0.1","rslDT8rzDI","62db005bae68d37fe24b50da","6617fad957f7c6a12ea16e26","6622ccbf626f3a1e638670ef","fixation cross","null","","","","","","","","","","","",""
"","648","html-keyboard-response","14","78273","0.0-9.0-1.1","rslDT8rzDI","62db005bae68d37fe24b50da","6617fad957f7c6a12ea16e26","6622ccbf626f3a1e638670ef","image grid","p","","","","","Phylogenetic_Distractor_notarget","2900","ongrid"," ","8","Ontogenetic","false","practice"
"","null","html-keyboard-response","15","78435","0.0-9.0-2.1","rslDT8rzDI","62db005bae68d37fe24b50da","6617fad957f7c6a12ea16e26","6622ccbf626f3a1e638670ef","
    <div id=""grid-container"">
        <!-- Grid items will be dynamically added here -->
    </div>    ","null","","","","","","","","","","","",""
"","null","html-keyboard-response","16","79653","0.0-9.0-3.1","rslDT8rzDI","62db005bae68d37fe24b50da","6617fad957f7c6a12ea16e26","6622ccbf626f3a1e638670ef","feedback screen","null","","","","","","","","","","","",""
"","null","html-keyboard-response","17","80160","0.0-9.0-0.2","rslDT8rzDI","62db005bae68d37fe24b50da","6617fad957f7c6a12ea16e26","6622ccbf626f3a1e638670ef","fixation cross","null","","","","","","","","","","","",""
"","810","html-keyboard-response","18","80971","0.0-9.0-1.2","rslDT8rzDI","62db005bae68d37fe24b50da","6617fad957f7c6a12ea16e26","6622ccbf626f3a1e638670ef","image grid","q","","","","","Phylogenetic_Distractor_Threat_target","2800","ongrid","q","7","Ontogenetic","true","practice"
"","null","html-keyboard-response","19","81137","0.0-9.0-2.2","rslDT8rzDI","62db005bae68d37fe24b50da","6617fad957f7c6a12ea16e26","6622ccbf626f3a1e638670ef","
    <div id=""grid-container"">
        <!-- Grid items will be dynamically added here -->
    </div>    ","null","","","","","","","","","","","",""
"","null","html-keyboard-response","20","82351","0.0-9.0-3.2","rslDT8rzDI","62db005bae68d37fe24b50da","6617fad957f7c6a12ea16e26","6622ccbf626f3a1e638670ef","feedback screen","null","","","","","","","","","","","",""
"","null","html-keyboard-response","21","82863","0.0-9.0-0.3","rslDT8rzDI","62db005bae68d37fe24b50da","6617fad957f7c6a12ea16e26","6622ccbf626f3a1e638670ef","fixation cross","null","","","","","","","","","","","",""
"","754","html-keyboard-response","22","83618","0.0-9.0-1.3","rslDT8rzDI","62db005bae68d37fe24b50da","6617fad957f7c6a12ea16e26","6622ccbf626f3a1e638670ef","image grid","q","","","","","Ontogenetic_Distractor_Threat_target","2700","ongrid","q","2","Ontogenetic","true","practice"
"","null","html-keyboard-response","23","83774","0.0-9.0-2.3","rslDT8rzDI","62db005bae68d37fe24b50da","6617fad957f7c6a12ea16e26","6622ccbf626f3a1e638670ef","
    <div id=""grid-container"">
        <!-- Grid items will be dynamically added here -->
    </div>    ","null","","","","","","","","","","","",""
"","null","html-keyboard-response","24","84980","0.0-9.0-3.3","rslDT8rzDI","62db005bae68d37fe24b50da","6617fad957f7c6a12ea16e26","6622ccbf626f3a1e638670ef","feedback screen","null","","","","","","","","","","","",""
"","null","html-keyboard-response","25","85492","0.0-9.0-0.4","rslDT8rzDI","62db005bae68d37fe24b50da","6617fad957f7c6a12ea16e26","6622ccbf626f3a1e638670ef","fixation cross","null","","","","","","","","","","","",""
"","923","html-keyboard-response","26","86416","0.0-9.0-1.4","rslDT8rzDI","62db005bae68d37fe24b50da","6617fad957f7c6a12ea16e26","6622ccbf626f3a1e638670ef","image grid","p","","","","","Phylogenetic_Distractor_Threat_target","2600","ongrid","q","3","Ontogenetic","false","practice"
"","null","html-keyboard-response","27","86576","0.0-9.0-2.4","rslDT8rzDI","62db005bae68d37fe24b50da","6617fad957f7c6a12ea16e26","6622ccbf626f3a1e638670ef","
    <div id=""grid-container"">
        <!-- Grid items will be dynamically added here -->
    </div>    ","null","","","","","","","","","","","",""
"","null","html-keyboard-response","28","87781","0.0-9.0-3.4","rslDT8rzDI","62db005bae68d37fe24b50da","6617fad957f7c6a12ea16e26","6622ccbf626f3a1e638670ef","feedback screen","null","","","","","","","","","","","",""
"","null","html-keyboard-response","29","88289","0.0-9.0-0.5","rslDT8rzDI","62db005bae68d37fe24b50da","6617fad957f7c6a12ea16e26","6622ccbf626f3a1e638670ef","fixation cross","null","","","","","","","","","","","",""
"","612","html-keyboard-response","30","88901","0.0-9.0-1.5","rslDT8rzDI","62db005bae68d37fe24b50da","6617fad957f7c6a12ea16e26","6622ccbf626f3a1e638670ef","image grid","q","","","","","Ontogenetic_Distractor_Threat_target","2500","ongrid","q","1","Ontogenetic","true","practice"
"","null","html-keyboard-response","31","89053","0.0-9.0-2.5","rslDT8rzDI","62db005bae68d37fe24b50da","6617fad957f7c6a12ea16e26","6622ccbf626f3a1e638670ef","
    <div id=""grid-container"">
        <!-- Grid items will be dynamically added here -->
    </div>    ","null","","","","","","","","","","","",""
"","null","html-keyboard-response","32","90260","0.0-9.0-3.5","rslDT8rzDI","62db005bae68d37fe24b50da","6617fad957f7c6a12ea16e26","6622ccbf626f3a1e638670ef","feedback screen","null","","","","","","","","","","","",""
"","null","html-keyboard-response","33","90770","0.0-9.0-0.6","rslDT8rzDI","62db005bae68d37fe24b50da","6617fad957f7c6a12ea16e26","6622ccbf626f3a1e638670ef","fixation cross","null","","","","","","","","","","","",""
"","1000","html-keyboard-response","34","91770","0.0-9.0-1.6","rslDT8rzDI","62db005bae68d37fe24b50da","6617fad957f7c6a12ea16e26","6622ccbf626f3a1e638670ef","image grid","p","","","","","Ontogenetic_Distractor_notarget","2400","ongrid"," ","2","Ontogenetic","false","practice"
"","null","html-keyboard-response","35","91924","0.0-9.0-2.6","rslDT8rzDI","62db005bae68d37fe24b50da","6617fad957f7c6a12ea16e26","6622ccbf626f3a1e638670ef","
    <div id=""grid-container"">
        <!-- Grid items will be dynamically added here -->
    </div>    ","null","","","","","","","","","","","",""
"","null","html-keyboard-response","36","93130","0.0-9.0-3.6","rslDT8rzDI","62db005bae68d37fe24b50da","6617fad957f7c6a12ea16e26","6622ccbf626f3a1e638670ef","feedback screen","null","","","","","","","","","","","",""
"","null","html-keyboard-response","37","93641","0.0-9.0-0.7","rslDT8rzDI","62db005bae68d37fe24b50da","6617fad957f7c6a12ea16e26","6622ccbf626f3a1e638670ef","fixation cross","null","","","","","","","","","","","",""
"","968","html-keyboard-response","38","94610","0.0-9.0-1.7","rslDT8rzDI","62db005bae68d37fe24b50da","6617fad957f7c6a12ea16e26","6622ccbf626f3a1e638670ef","image grid","q","","","","","Phylogenetic_Distractor_notarget","2300","ongrid"," ","3","Ontogenetic","false","practice"
"","null","html-keyboard-response","39","94765","0.0-9.0-2.7","rslDT8rzDI","62db005bae68d37fe24b50da","6617fad957f7c6a12ea16e26","6622ccbf626f3a1e638670ef","
    <div id=""grid-container"">
        <!-- Grid items will be dynamically added here -->
    </div>    ","null","","","","","","","","","","","",""
"","null","html-keyboard-response","40","95987","0.0-9.0-3.7","rslDT8rzDI","62db005bae68d37fe24b50da","6617fad957f7c6a12ea16e26","6622ccbf626f3a1e638670ef","feedback screen","null","","","","","","","","","","","",""
"","null","html-keyboard-response","41","96499","0.0-9.0-0.8","rslDT8rzDI","62db005bae68d37fe24b50da","6617fad957f7c6a12ea16e26","6622ccbf626f3a1e638670ef","fixation cross","null","","","","","","","","","","","",""
"","739","html-keyboard-response","42","97238","0.0-9.0-1.8","rslDT8rzDI","62db005bae68d37fe24b50da","6617fad957f7c6a12ea16e26","6622ccbf626f3a1e638670ef","image grid","q","","","","","Phylogenetic_Distractor_Threat_target","2200","ongrid","q","5","Ontogenetic","true","practice"
"","null","html-keyboard-response","43","97394","0.0-9.0-2.8","rslDT8rzDI","62db005bae68d37fe24b50da","6617fad957f7c6a12ea16e26","6622ccbf626f3a1e638670ef","
    <div id=""grid-container"">
        <!-- Grid items will be dynamically added here -->
    </div>    ","null","","","","","","","","","","","",""
"","null","html-keyboard-response","44","98620","0.0-9.0-3.8","rslDT8rzDI","62db005bae68d37fe24b50da","6617fad957f7c6a12ea16e26","6622ccbf626f3a1e638670ef","feedback screen","null","","","","","","","","","","","",""
"","null","html-keyboard-response","45","99132","0.0-9.0-0.9","rslDT8rzDI","62db005bae68d37fe24b50da","6617fad957f7c6a12ea16e26","6622ccbf626f3a1e638670ef","fixation cross","null","","","","","","","","","","","",""
"","792","html-keyboard-response","46","99925","0.0-9.0-1.9","rslDT8rzDI","62db005bae68d37fe24b50da","6617fad957f7c6a12ea16e26","6622ccbf626f3a1e638670ef","image grid","q","","","","","Ontogenetic_Distractor_Nonthreat_target","2100","ongrid","p","7","Ontogenetic","false","practice"
"","null","html-keyboard-response","47","100090","0.0-9.0-2.9","rslDT8rzDI","62db005bae68d37fe24b50da","6617fad957f7c6a12ea16e26","6622ccbf626f3a1e638670ef","
    <div id=""grid-container"">
        <!-- Grid items will be dynamically added here -->
    </div>    ","null","","","","","","","","","","","",""
"","null","html-keyboard-response","48","101317","0.0-9.0-3.9","rslDT8rzDI","62db005bae68d37fe24b50da","6617fad957f7c6a12ea16e26","6622ccbf626f3a1e638670ef","feedback screen","null","","","","","","","","","","","",""
"","null","html-keyboard-response","49","101828","0.0-9.0-0.10","rslDT8rzDI","62db005bae68d37fe24b50da","6617fad957f7c6a12ea16e26","6622ccbf626f3a1e638670ef","fixation cross","null","","","","","","","","","","","",""
"","1301","html-keyboard-response","50","103130","0.0-9.0-1.10","rslDT8rzDI","62db005bae68d37fe24b50da","6617fad957f7c6a12ea16e26","6622ccbf626f3a1e638670ef","image grid","p","","","","","Phylogenetic_Distractor_Nonthreat_target","2000","ongrid","p","8","Ontogenetic","true","practice"
"","null","html-keyboard-response","51","103287","0.0-9.0-2.10","rslDT8rzDI","62db005bae68d37fe24b50da","6617fad957f7c6a12ea16e26","6622ccbf626f3a1e638670ef","
    <div id=""grid-container"">
        <!-- Grid items will be dynamically added here -->
    </div>    ","null","","","","","","","","","","","",""
"","null","html-keyboard-response","52","104512","0.0-9.0-3.10","rslDT8rzDI","62db005bae68d37fe24b50da","6617fad957f7c6a12ea16e26","6622ccbf626f3a1e638670ef","feedback screen","null","","","","","","","","","","","",""
"","null","html-keyboard-response","53","105025","0.0-9.0-0.11","rslDT8rzDI","62db005bae68d37fe24b50da","6617fad957f7c6a12ea16e26","6622ccbf626f3a1e638670ef","fixation cross","null","","","","","","","","","","","",""
"","658","html-keyboard-response","54","105684","0.0-9.0-1.11","rslDT8rzDI","62db005bae68d37fe24b50da","6617fad957f7c6a12ea16e26","6622ccbf626f3a1e638670ef","image grid","q","","","","","Ontogenetic_Distractor_Threat_target","1900","ongrid","q","8","Ontogenetic","true","practice"
"","null","html-keyboard-response","55","105846","0.0-9.0-2.11","rslDT8rzDI","62db005bae68d37fe24b50da","6617fad957f7c6a12ea16e26","6622ccbf626f3a1e638670ef","
    <div id=""grid-container"">
        <!-- Grid items will be dynamically added here -->
    </div>    ","null","","","","","","","","","","","",""
"","null","html-keyboard-response","56","107063","0.0-9.0-3.11","rslDT8rzDI","62db005bae68d37fe24b50da","6617fad957f7c6a12ea16e26","6622ccbf626f3a1e638670ef","feedback screen","null","","","","","","","","","","","",""
"","null","html-keyboard-response","57","107573","0.0-9.0-0.12","rslDT8rzDI","62db005bae68d37fe24b50da","6617fad957f7c6a12ea16e26","6622ccbf626f3a1e638670ef","fixation cross","null","","","","","","","","","","","",""
"","566","html-keyboard-response","58","108139","0.0-9.0-1.12","rslDT8rzDI","62db005bae68d37fe24b50da","6617fad957f7c6a12ea16e26","6622ccbf626f3a1e638670ef","image grid","p","","","","","Phylogenetic_Distractor_Nonthreat_target","1800","ongrid","p","4","Ontogenetic","true","practice"
"","null","html-keyboard-response","59","108299","0.0-9.0-2.12","rslDT8rzDI","62db005bae68d37fe24b50da","6617fad957f7c6a12ea16e26","6622ccbf626f3a1e638670ef","
    <div id=""grid-container"">
        <!-- Grid items will be dynamically added here -->
    </div>    ","null","","","","","","","","","","","",""
"","null","html-keyboard-response","60","109522","0.0-9.0-3.12","rslDT8rzDI","62db005bae68d37fe24b50da","6617fad957f7c6a12ea16e26","6622ccbf626f3a1e638670ef","feedback screen","null","","","","","","","","","","","",""
"","null","html-keyboard-response","61","110034","0.0-9.0-0.13","rslDT8rzDI","62db005bae68d37fe24b50da","6617fad957f7c6a12ea16e26","6622ccbf626f3a1e638670ef","fixation cross","null","","","","","","","","","","","",""
"","821","html-keyboard-response","62","110855","0.0-9.0-1.13","rslDT8rzDI","62db005bae68d37fe24b50da","6617fad957f7c6a12ea16e26","6622ccbf626f3a1e638670ef","image grid","q","","","","","Ontogenetic_Distractor_Threat_target","1700","ongrid","q","6","Ontogenetic","true","practice"
"","null","html-keyboard-response","63","111008","0.0-9.0-2.13","rslDT8rzDI","62db005bae68d37fe24b50da","6617fad957f7c6a12ea16e26","6622ccbf626f3a1e638670ef","
    <div id=""grid-container"">
        <!-- Grid items will be dynamically added here -->
    </div>    ","null","","","","","","","","","","","",""
"","null","html-keyboard-response","64","112227","0.0-9.0-3.13","rslDT8rzDI","62db005bae68d37fe24b50da","6617fad957f7c6a12ea16e26","6622ccbf626f3a1e638670ef","feedback screen","null","","","","","","","","","","","",""
"","null","html-keyboard-response","65","112738","0.0-9.0-0.14","rslDT8rzDI","62db005bae68d37fe24b50da","6617fad957f7c6a12ea16e26","6622ccbf626f3a1e638670ef","fixation cross","null","","","","","","","","","","","",""
"","935","html-keyboard-response","66","113674","0.0-9.0-1.14","rslDT8rzDI","62db005bae68d37fe24b50da","6617fad957f7c6a12ea16e26","6622ccbf626f3a1e638670ef","image grid","p","","","","","Phylogenetic_Distractor_Threat_target","1600","ongrid","q","3","Ontogenetic","false","practice"
"","107","html-keyboard-response","67","113835","0.0-9.0-2.14","rslDT8rzDI","62db005bae68d37fe24b50da","6617fad957f7c6a12ea16e26","6622ccbf626f3a1e638670ef","
    <div id=""grid-container"">
        <!-- Grid items will be dynamically added here -->
    </div>    ","q","","","","","","","","","","","",""
"","null","html-keyboard-response","68","115042","0.0-9.0-3.14","rslDT8rzDI","62db005bae68d37fe24b50da","6617fad957f7c6a12ea16e26","6622ccbf626f3a1e638670ef","feedback screen","null","","","","","","","","","","","",""
"","null","html-keyboard-response","69","115552","0.0-9.0-0.15","rslDT8rzDI","62db005bae68d37fe24b50da","6617fad957f7c6a12ea16e26","6622ccbf626f3a1e638670ef","fixation cross","null","","","","","","","","","","","",""
"","701","html-keyboard-response","70","116253","0.0-9.0-1.15","rslDT8rzDI","62db005bae68d37fe24b50da","6617fad957f7c6a12ea16e26","6622ccbf626f3a1e638670ef","image grid","p","","","","","Phylogenetic_Distractor_Nonthreat_target","1500","ongrid","p","2","Ontogenetic","true","practice"
"","null","html-keyboard-response","71","116412","0.0-9.0-2.15","rslDT8rzDI","62db005bae68d37fe24b50da","6617fad957f7c6a12ea16e26","6622ccbf626f3a1e638670ef","
    <div id=""grid-container"">
        <!-- Grid items will be dynamically added here -->
    </div>    ","null","","","","","","","","","","","",""
"","null","html-keyboard-response","72","117621","0.0-9.0-3.15","rslDT8rzDI","62db005bae68d37fe24b50da","6617fad957f7c6a12ea16e26","6622ccbf626f3a1e638670ef","feedback screen","null","","","","","","","","","","","",""
"","null","html-keyboard-response","73","118133","0.0-9.0-0.16","rslDT8rzDI","62db005bae68d37fe24b50da","6617fad957f7c6a12ea16e26","6622ccbf626f3a1e638670ef","fixation cross","null","","","","","","","","","","","",""
"","888","html-keyboard-response","74","119021","0.0-9.0-1.16","rslDT8rzDI","62db005bae68d37fe24b50da","6617fad957f7c6a12ea16e26","6622ccbf626f3a1e638670ef","image grid","p","","","","","Ontogenetic_Distractor_notarget","1400","ongrid"," ","8","Ontogenetic","false","practice"
"","null","html-keyboard-response","75","119174","0.0-9.0-2.16","rslDT8rzDI","62db005bae68d37fe24b50da","6617fad957f7c6a12ea16e26","6622ccbf626f3a1e638670ef","
    <div id=""grid-container"">
        <!-- Grid items will be dynamically added here -->
    </div>    ","null","","","","","","","","","","","",""
"","null","html-keyboard-response","76","120392","0.0-9.0-3.16","rslDT8rzDI","62db005bae68d37fe24b50da","6617fad957f7c6a12ea16e26","6622ccbf626f3a1e638670ef","feedback screen","null","","","","","","","","","","","",""
"","null","html-keyboard-response","77","120899","0.0-9.0-0.17","rslDT8rzDI","62db005bae68d37fe24b50da","6617fad957f7c6a12ea16e26","6622ccbf626f3a1e638670ef","fixation cross","null","","","","","","","","","","","",""
"","891","html-keyboard-response","78","121790","0.0-9.0-1.17","rslDT8rzDI","62db005bae68d37fe24b50da","6617fad957f7c6a12ea16e26","6622ccbf626f3a1e638670ef","image grid","q","","","","","Ontogenetic_Distractor_Nonthreat_target","1300","ongrid","p","3","Ontogenetic","false","practice"
"","null","html-keyboard-response","79","121952","0.0-9.0-2.17","rslDT8rzDI","62db005bae68d37fe24b50da","6617fad957f7c6a12ea16e26","6622ccbf626f3a1e638670ef","
    <div id=""grid-container"">
        <!-- Grid items will be dynamically added here -->
    </div>    ","null","","","","","","","","","","","",""
"","null","html-keyboard-response","80","123164","0.0-9.0-3.17","rslDT8rzDI","62db005bae68d37fe24b50da","6617fad957f7c6a12ea16e26","6622ccbf626f3a1e638670ef","feedback screen","null","","","","","","","","","","","",""
"","null","html-keyboard-response","81","123675","0.0-9.0-0.18","rslDT8rzDI","62db005bae68d37fe24b50da","6617fad957f7c6a12ea16e26","6622ccbf626f3a1e638670ef","fixation cross","null","","","","","","","","","","","",""
"","775","html-keyboard-response","82","124450","0.0-9.0-1.18","rslDT8rzDI","62db005bae68d37fe24b50da","6617fad957f7c6a12ea16e26","6622ccbf626f3a1e638670ef","image grid","p","","","","","Ontogenetic_Distractor_Nonthreat_target","1200","ongrid","p","4","Ontogenetic","true","practice"
"","null","html-keyboard-response","83","124609","0.0-9.0-2.18","rslDT8rzDI","62db005bae68d37fe24b50da","6617fad957f7c6a12ea16e26","6622ccbf626f3a1e638670ef","
    <div id=""grid-container"">
        <!-- Grid items will be dynamically added here -->
    </div>    ","null","","","","","","","","","","","",""
"","null","html-keyboard-response","84","125832","0.0-9.0-3.18","rslDT8rzDI","62db005bae68d37fe24b50da","6617fad957f7c6a12ea16e26","6622ccbf626f3a1e638670ef","feedback screen","null","","","","","","","","","","","",""
"","null","html-keyboard-response","85","126338","0.0-9.0-0.19","rslDT8rzDI","62db005bae68d37fe24b50da","6617fad957f7c6a12ea16e26","6622ccbf626f3a1e638670ef","fixation cross","null","","","","","","","","","","","",""
"","584","html-keyboard-response","86","126922","0.0-9.0-1.19","rslDT8rzDI","62db005bae68d37fe24b50da","6617fad957f7c6a12ea16e26","6622ccbf626f3a1e638670ef","image grid","p","","","","","Ontogenetic_Distractor_Nonthreat_target","1100","ongrid","p","2","Ontogenetic","true","practice"
"","null","html-keyboard-response","87","127076","0.0-9.0-2.19","rslDT8rzDI","62db005bae68d37fe24b50da","6617fad957f7c6a12ea16e26","6622ccbf626f3a1e638670ef","
    <div id=""grid-container"">
        <!-- Grid items will be dynamically added here -->
    </div>    ","null","","","","","","","","","","","",""
"","null","html-keyboard-response","88","128288","0.0-9.0-3.19","rslDT8rzDI","62db005bae68d37fe24b50da","6617fad957f7c6a12ea16e26","6622ccbf626f3a1e638670ef","feedback screen","null","","","","","","","","","","","",""
"","4361","html-keyboard-response","89","132678","0.0-10.0","rslDT8rzDI","62db005bae68d37fe24b50da","6617fad957f7c6a12ea16e26","6622ccbf626f3a1e638670ef","pre-experimental_briefing"," ","","","","","","","","","","","",""
"","null","html-keyboard-response","90","135221","0.0-11.0-0.0","rslDT8rzDI","62db005bae68d37fe24b50da","6617fad957f7c6a12ea16e26","6622ccbf626f3a1e638670ef","fixation cross","null","","","","","","","","","","","",""
"","761","html-keyboard-response","91","135982","0.0-11.0-1.0","rslDT8rzDI","62db005bae68d37fe24b50da","6617fad957f7c6a12ea16e26","6622ccbf626f3a1e638670ef","image grid","p","","","","","Ontogenetic_Distractor_Nonthreat_target","2500","ongrid","p","6","Ontogenetic","true","experimental"
"","null","html-keyboard-response","92","136138","0.0-11.0-2.0","rslDT8rzDI","62db005bae68d37fe24b50da","6617fad957f7c6a12ea16e26","6622ccbf626f3a1e638670ef","
    <div id=""grid-container"">
        <!-- Grid items will be dynamically added here -->
    </div>    ","null","","","","","","","","","","","",""
"","null","html-keyboard-response","93","136854","0.0-11.0-0.1","rslDT8rzDI","62db005bae68d37fe24b50da","6617fad957f7c6a12ea16e26","6622ccbf626f3a1e638670ef","fixation cross","null","","","","","","","","","","","",""
"","679","html-keyboard-response","94","137534","0.0-11.0-1.1","rslDT8rzDI","62db005bae68d37fe24b50da","6617fad957f7c6a12ea16e26","6622ccbf626f3a1e638670ef","image grid","p","","","","","Ontogenetic_Distractor_Nonthreat_target","2500","ongrid","p","3","Ontogenetic","true","experimental"
"","null","html-keyboard-response","95","137688","0.0-11.0-2.1","rslDT8rzDI","62db005bae68d37fe24b50da","6617fad957f7c6a12ea16e26","6622ccbf626f3a1e638670ef","
    <div id=""grid-container"">
        <!-- Grid items will be dynamically added here -->
    </div>    ","null","","","","","","","","","","","",""
"","null","html-keyboard-response","96","138404","0.0-11.0-0.2","rslDT8rzDI","62db005bae68d37fe24b50da","6617fad957f7c6a12ea16e26","6622ccbf626f3a1e638670ef","fixation cross","null","","","","","","","","","","","",""
"","868","html-keyboard-response","97","139273","0.0-11.0-1.2","rslDT8rzDI","62db005bae68d37fe24b50da","6617fad957f7c6a12ea16e26","6622ccbf626f3a1e638670ef","image grid","q","","","","","Ontogenetic_Distractor_Threat_target","2500","ongrid","q","5","Ontogenetic","true","experimental"
"","null","html-keyboard-response","98","139435","0.0-11.0-2.2","rslDT8rzDI","62db005bae68d37fe24b50da","6617fad957f7c6a12ea16e26","6622ccbf626f3a1e638670ef","
    <div id=""grid-container"">
        <!-- Grid items will be dynamically added here -->
    </div>    ","null","","","","","","","","","","","",""
"","null","html-keyboard-response","99","140157","0.0-11.0-0.3","rslDT8rzDI","62db005bae68d37fe24b50da","6617fad957f7c6a12ea16e26","6622ccbf626f3a1e638670ef","fixation cross","null","","","","","","","","","","","",""
"","726","html-keyboard-response","100","140883","0.0-11.0-1.3","rslDT8rzDI","62db005bae68d37fe24b50da","6617fad957f7c6a12ea16e26","6622ccbf626f3a1e638670ef","image grid","p","","","","","Ontogenetic_Distractor_notarget","2500","ongrid"," ","3","Ontogenetic","false","experimental"
"","null","html-keyboard-response","101","141040","0.0-11.0-2.3","rslDT8rzDI","62db005bae68d37fe24b50da","6617fad957f7c6a12ea16e26","6622ccbf626f3a1e638670ef","
    <div id=""grid-container"">
        <!-- Grid items will be dynamically added here -->
    </div>    ","null","","","","","","","","","","","",""
"","null","html-keyboard-response","102","141749","0.0-11.0-0.4","rslDT8rzDI","62db005bae68d37fe24b50da","6617fad957f7c6a12ea16e26","6622ccbf626f3a1e638670ef","fixation cross","null","","","","","","","","","","","",""
"","886","html-keyboard-response","103","142635","0.0-11.0-1.4","rslDT8rzDI","62db005bae68d37fe24b50da","6617fad957f7c6a12ea16e26","6622ccbf626f3a1e638670ef","image grid","q","","","","","Ontogenetic_Distractor_Threat_target","2500","ongrid","q","4","Ontogenetic","true","experimental"
"","null","html-keyboard-response","104","142800","0.0-11.0-2.4","rslDT8rzDI","62db005bae68d37fe24b50da","6617fad957f7c6a12ea16e26","6622ccbf626f3a1e638670ef","
    <div id=""grid-container"">
        <!-- Grid items will be dynamically added here -->
    </div>    ","null","","","","","","","","","","","",""
"","null","html-keyboard-response","105","143512","0.0-11.0-0.5","rslDT8rzDI","62db005bae68d37fe24b50da","6617fad957f7c6a12ea16e26","6622ccbf626f3a1e638670ef","fixation cross","null","","","","","","","","","","","",""
"","769","html-keyboard-response","106","144281","0.0-11.0-1.5","rslDT8rzDI","62db005bae68d37fe24b50da","6617fad957f7c6a12ea16e26","6622ccbf626f3a1e638670ef","image grid","p","","","","","Ontogenetic_Distractor_Nonthreat_target","2500","ongrid","p","4","Ontogenetic","true","experimental"
"","null","html-keyboard-response","107","144443","0.0-11.0-2.5","rslDT8rzDI","62db005bae68d37fe24b50da","6617fad957f7c6a12ea16e26","6622ccbf626f3a1e638670ef","
    <div id=""grid-container"">
        <!-- Grid items will be dynamically added here -->
    </div>    ","null","","","","","","","","","","","",""
"","null","html-keyboard-response","108","145154","0.0-11.0-0.6","rslDT8rzDI","62db005bae68d37fe24b50da","6617fad957f7c6a12ea16e26","6622ccbf626f3a1e638670ef","fixation cross","null","","","","","","","","","","","",""
"","980","html-keyboard-response","109","146134","0.0-11.0-1.6","rslDT8rzDI","62db005bae68d37fe24b50da","6617fad957f7c6a12ea16e26","6622ccbf626f3a1e638670ef","image grid","p","","","","","Ontogenetic_Distractor_notarget","2500","ongrid"," ","1","Ontogenetic","false","experimental"
"","null","html-keyboard-response","110","146297","0.0-11.0-2.6","rslDT8rzDI","62db005bae68d37fe24b50da","6617fad957f7c6a12ea16e26","6622ccbf626f3a1e638670ef","
    <div id=""grid-container"">
        <!-- Grid items will be dynamically added here -->
    </div>    ","null","","","","","","","","","","","",""
"","null","html-keyboard-response","111","147021","0.0-11.0-0.7","rslDT8rzDI","62db005bae68d37fe24b50da","6617fad957f7c6a12ea16e26","6622ccbf626f3a1e638670ef","fixation cross","null","","","","","","","","","","","",""
"","950","html-keyboard-response","112","147971","0.0-11.0-1.7","rslDT8rzDI","62db005bae68d37fe24b50da","6617fad957f7c6a12ea16e26","6622ccbf626f3a1e638670ef","image grid","q","","","","","Ontogenetic_Distractor_Threat_target","2500","ongrid","q","8","Ontogenetic","true","experimental"
"","null","html-keyboard-response","113","148124","0.0-11.0-2.7","rslDT8rzDI","62db005bae68d37fe24b50da","6617fad957f7c6a12ea16e26","6622ccbf626f3a1e638670ef","
    <div id=""grid-container"">
        <!-- Grid items will be dynamically added here -->
    </div>    ","null","","","","","","","","","","","",""
"","null","html-keyboard-response","114","148835","0.0-11.0-0.8","rslDT8rzDI","62db005bae68d37fe24b50da","6617fad957f7c6a12ea16e26","6622ccbf626f3a1e638670ef","fixation cross","null","","","","","","","","","","","",""
"","1120","html-keyboard-response","115","149955","0.0-11.0-1.8","rslDT8rzDI","62db005bae68d37fe24b50da","6617fad957f7c6a12ea16e26","6622ccbf626f3a1e638670ef","image grid","p","","","","","Ontogenetic_Distractor_Threat_target","2500","ongrid","q","1","Ontogenetic","false","experimental"
"","null","html-keyboard-response","116","150110","0.0-11.0-2.8","rslDT8rzDI","62db005bae68d37fe24b50da","6617fad957f7c6a12ea16e26","6622ccbf626f3a1e638670ef","
    <div id=""grid-container"">
        <!-- Grid items will be dynamically added here -->
    </div>    ","null","","","","","","","","","","","",""
"","null","html-keyboard-response","117","150827","0.0-11.0-0.9","rslDT8rzDI","62db005bae68d37fe24b50da","6617fad957f7c6a12ea16e26","6622ccbf626f3a1e638670ef","fixation cross","null","","","","","","","","","","","",""
"","797","html-keyboard-response","118","151625","0.0-11.0-1.9","rslDT8rzDI","62db005bae68d37fe24b50da","6617fad957f7c6a12ea16e26","6622ccbf626f3a1e638670ef","image grid","p","","","","","Ontogenetic_Distractor_Nonthreat_target","2500","ongrid","p","9","Ontogenetic","true","experimental"
"","null","html-keyboard-response","119","151780","0.0-11.0-2.9","rslDT8rzDI","62db005bae68d37fe24b50da","6617fad957f7c6a12ea16e26","6622ccbf626f3a1e638670ef","
    <div id=""grid-container"">
        <!-- Grid items will be dynamically added here -->
    </div>    ","null","","","","","","","","","","","",""
"","null","html-keyboard-response","120","152503","0.0-11.0-0.10","rslDT8rzDI","62db005bae68d37fe24b50da","6617fad957f7c6a12ea16e26","6622ccbf626f3a1e638670ef","fixation cross","null","","","","","","","","","","","",""
"","828","html-keyboard-response","121","153331","0.0-11.0-1.10","rslDT8rzDI","62db005bae68d37fe24b50da","6617fad957f7c6a12ea16e26","6622ccbf626f3a1e638670ef","image grid","q","","","","","Ontogenetic_Distractor_Nonthreat_target","2500","ongrid","p","5","Ontogenetic","false","experimental"
"","null","html-keyboard-response","122","153497","0.0-11.0-2.10","rslDT8rzDI","62db005bae68d37fe24b50da","6617fad957f7c6a12ea16e26","6622ccbf626f3a1e638670ef","
    <div id=""grid-container"">
        <!-- Grid items will be dynamically added here -->
    </div>    ","null","","","","","","","","","","","",""
"","null","html-keyboard-response","123","154209","0.0-11.0-0.11","rslDT8rzDI","62db005bae68d37fe24b50da","6617fad957f7c6a12ea16e26","6622ccbf626f3a1e638670ef","fixation cross","null","","","","","","","","","","","",""
"","895","html-keyboard-response","124","155105","0.0-11.0-1.11","rslDT8rzDI","62db005bae68d37fe24b50da","6617fad957f7c6a12ea16e26","6622ccbf626f3a1e638670ef","image grid"," ","","","","","Ontogenetic_Distractor_Nonthreat_target","2500","ongrid","p","5","Ontogenetic","false","experimental"
"","null","html-keyboard-response","125","155258","0.0-11.0-2.11","rslDT8rzDI","62db005bae68d37fe24b50da","6617fad957f7c6a12ea16e26","6622ccbf626f3a1e638670ef","
    <div id=""grid-container"">
        <!-- Grid items will be dynamically added here -->
    </div>    ","null","","","","","","","","","","","",""
"","null","html-keyboard-response","126","155970","0.0-11.0-0.12","rslDT8rzDI","62db005bae68d37fe24b50da","6617fad957f7c6a12ea16e26","6622ccbf626f3a1e638670ef","fixation cross","null","","","","","","","","","","","",""
"","1044","html-keyboard-response","127","157013","0.0-11.0-1.12","rslDT8rzDI","62db005bae68d37fe24b50da","6617fad957f7c6a12ea16e26","6622ccbf626f3a1e638670ef","image grid"," ","","","","","Ontogenetic_Distractor_Threat_target","2500","ongrid","q","4","Ontogenetic","false","experimental"
"","null","html-keyboard-response","128","157164","0.0-11.0-2.12","rslDT8rzDI","62db005bae68d37fe24b50da","6617fad957f7c6a12ea16e26","6622ccbf626f3a1e638670ef","
    <div id=""grid-container"">
        <!-- Grid items will be dynamically added here -->
    </div>    ","null","","","","","","","","","","","",""
"","null","html-keyboard-response","129","157888","0.0-11.0-0.13","rslDT8rzDI","62db005bae68d37fe24b50da","6617fad957f7c6a12ea16e26","6622ccbf626f3a1e638670ef","fixation cross","null","","","","","","","","","","","",""
"","1038","html-keyboard-response","130","158927","0.0-11.0-1.13","rslDT8rzDI","62db005bae68d37fe24b50da","6617fad957f7c6a12ea16e26","6622ccbf626f3a1e638670ef","image grid","p","","","","","Ontogenetic_Distractor_Threat_target","2500","ongrid","q","6","Ontogenetic","false","experimental"
"","null","html-keyboard-response","131","159086","0.0-11.0-2.13","rslDT8rzDI","62db005bae68d37fe24b50da","6617fad957f7c6a12ea16e26","6622ccbf626f3a1e638670ef","
    <div id=""grid-container"">
        <!-- Grid items will be dynamically added here -->
    </div>    ","null","","","","","","","","","","","",""
"","null","html-keyboard-response","132","159803","0.0-11.0-0.14","rslDT8rzDI","62db005bae68d37fe24b50da","6617fad957f7c6a12ea16e26","6622ccbf626f3a1e638670ef","fixation cross","null","","","","","","","","","","","",""
"","2272","html-keyboard-response","133","162075","0.0-11.0-1.14","rslDT8rzDI","62db005bae68d37fe24b50da","6617fad957f7c6a12ea16e26","6622ccbf626f3a1e638670ef","image grid","p","","","","","Ontogenetic_Distractor_Nonthreat_target","2500","ongrid","p","4","Ontogenetic","true","experimental"
"","null","html-keyboard-response","134","162232","0.0-11.0-2.14","rslDT8rzDI","62db005bae68d37fe24b50da","6617fad957f7c6a12ea16e26","6622ccbf626f3a1e638670ef","
    <div id=""grid-container"">
        <!-- Grid items will be dynamically added here -->
    </div>    ","null","","","","","","","","","","","",""
"","null","html-keyboard-response","135","162942","0.0-11.0-0.15","rslDT8rzDI","62db005bae68d37fe24b50da","6617fad957f7c6a12ea16e26","6622ccbf626f3a1e638670ef","fixation cross","null","","","","","","","","","","","",""
"","961","html-keyboard-response","136","163904","0.0-11.0-1.15","rslDT8rzDI","62db005bae68d37fe24b50da","6617fad957f7c6a12ea16e26","6622ccbf626f3a1e638670ef","image grid","p","","","","","Ontogenetic_Distractor_notarget","2500","ongrid"," ","2","Ontogenetic","false","experimental"
"","null","html-keyboard-response","137","164055","0.0-11.0-2.15","rslDT8rzDI","62db005bae68d37fe24b50da","6617fad957f7c6a12ea16e26","6622ccbf626f3a1e638670ef","
    <div id=""grid-container"">
        <!-- Grid items will be dynamically added here -->
    </div>    ","null","","","","","","","","","","","",""
"","null","html-keyboard-response","138","164781","0.0-11.0-0.16","rslDT8rzDI","62db005bae68d37fe24b50da","6617fad957f7c6a12ea16e26","6622ccbf626f3a1e638670ef","fixation cross","null","","","","","","","","","","","",""
"","1257","html-keyboard-response","139","166039","0.0-11.0-1.16","rslDT8rzDI","62db005bae68d37fe24b50da","6617fad957f7c6a12ea16e26","6622ccbf626f3a1e638670ef","image grid","q","","","","","Ontogenetic_Distractor_Threat_target","2500","ongrid","q","2","Ontogenetic","true","experimental"
"","null","html-keyboard-response","140","166205","0.0-11.0-2.16","rslDT8rzDI","62db005bae68d37fe24b50da","6617fad957f7c6a12ea16e26","6622ccbf626f3a1e638670ef","
    <div id=""grid-container"">
        <!-- Grid items will be dynamically added here -->
    </div>    ","null","","","","","","","","","","","",""
"","null","html-keyboard-response","141","166918","0.0-11.0-0.17","rslDT8rzDI","62db005bae68d37fe24b50da","6617fad957f7c6a12ea16e26","6622ccbf626f3a1e638670ef","fixation cross","null","","","","","","","","","","","",""
"","1425","html-keyboard-response","142","168344","0.0-11.0-1.17","rslDT8rzDI","62db005bae68d37fe24b50da","6617fad957f7c6a12ea16e26","6622ccbf626f3a1e638670ef","image grid","p","","","","","Ontogenetic_Distractor_Nonthreat_target","2500","ongrid","p","3","Ontogenetic","true","experimental"
"","null","html-keyboard-response","143","168498","0.0-11.0-2.17","rslDT8rzDI","62db005bae68d37fe24b50da","6617fad957f7c6a12ea16e26","6622ccbf626f3a1e638670ef","
    <div id=""grid-container"">
        <!-- Grid items will be dynamically added here -->
    </div>    ","null","","","","","","","","","","","",""
"","null","html-keyboard-response","144","169213","0.0-11.0-0.18","rslDT8rzDI","62db005bae68d37fe24b50da","6617fad957f7c6a12ea16e26","6622ccbf626f3a1e638670ef","fixation cross","null","","","","","","","","","","","",""
"","976","html-keyboard-response","145","170190","0.0-11.0-1.18","rslDT8rzDI","62db005bae68d37fe24b50da","6617fad957f7c6a12ea16e26","6622ccbf626f3a1e638670ef","image grid","q","","","","","Ontogenetic_Distractor_Threat_target","2500","ongrid","q","7","Ontogenetic","true","experimental"
"","null","html-keyboard-response","146","170344","0.0-11.0-2.18","rslDT8rzDI","62db005bae68d37fe24b50da","6617fad957f7c6a12ea16e26","6622ccbf626f3a1e638670ef","
    <div id=""grid-container"">
        <!-- Grid items will be dynamically added here -->
    </div>    ","null","","","","","","","","","","","",""
"","null","html-keyboard-response","147","171069","0.0-11.0-0.19","rslDT8rzDI","62db005bae68d37fe24b50da","6617fad957f7c6a12ea16e26","6622ccbf626f3a1e638670ef","fixation cross","null","","","","","","","","","","","",""
"","1142","html-keyboard-response","148","172212","0.0-11.0-1.19","rslDT8rzDI","62db005bae68d37fe24b50da","6617fad957f7c6a12ea16e26","6622ccbf626f3a1e638670ef","image grid","q","","","","","Ontogenetic_Distractor_Threat_target","2500","ongrid","q","2","Ontogenetic","true","experimental"
"","null","html-keyboard-response","149","172368","0.0-11.0-2.19","rslDT8rzDI","62db005bae68d37fe24b50da","6617fad957f7c6a12ea16e26","6622ccbf626f3a1e638670ef","
    <div id=""grid-container"">
        <!-- Grid items will be dynamically added here -->
    </div>    ","null","","","","","","","","","","","",""
"","null","html-keyboard-response","150","173081","0.0-11.0-0.20","rslDT8rzDI","62db005bae68d37fe24b50da","6617fad957f7c6a12ea16e26","6622ccbf626f3a1e638670ef","fixation cross","null","","","","","","","","","","","",""
"","688","html-keyboard-response","151","173769","0.0-11.0-1.20","rslDT8rzDI","62db005bae68d37fe24b50da","6617fad957f7c6a12ea16e26","6622ccbf626f3a1e638670ef","image grid","p","","","","","Ontogenetic_Distractor_Nonthreat_target","2500","ongrid","p","2","Ontogenetic","true","experimental"
"","null","html-keyboard-response","152","173921","0.0-11.0-2.20","rslDT8rzDI","62db005bae68d37fe24b50da","6617fad957f7c6a12ea16e26","6622ccbf626f3a1e638670ef","
    <div id=""grid-container"">
        <!-- Grid items will be dynamically added here -->
    </div>    ","null","","","","","","","","","","","",""
"","null","html-keyboard-response","153","174635","0.0-11.0-0.21","rslDT8rzDI","62db005bae68d37fe24b50da","6617fad957f7c6a12ea16e26","6622ccbf626f3a1e638670ef","fixation cross","null","","","","","","","","","","","",""
"","615","html-keyboard-response","154","175250","0.0-11.0-1.21","rslDT8rzDI","62db005bae68d37fe24b50da","6617fad957f7c6a12ea16e26","6622ccbf626f3a1e638670ef","image grid","p","","","","","Ontogenetic_Distractor_Nonthreat_target","2500","ongrid","p","2","Ontogenetic","true","experimental"
"","null","html-keyboard-response","155","175407","0.0-11.0-2.21","rslDT8rzDI","62db005bae68d37fe24b50da","6617fad957f7c6a12ea16e26","6622ccbf626f3a1e638670ef","
    <div id=""grid-container"">
        <!-- Grid items will be dynamically added here -->
    </div>    ","null","","","","","","","","","","","",""
"","null","html-keyboard-response","156","176134","0.0-11.0-0.22","rslDT8rzDI","62db005bae68d37fe24b50da","6617fad957f7c6a12ea16e26","6622ccbf626f3a1e638670ef","fixation cross","null","","","","","","","","","","","",""
"","593","html-keyboard-response","157","176728","0.0-11.0-1.22","rslDT8rzDI","62db005bae68d37fe24b50da","6617fad957f7c6a12ea16e26","6622ccbf626f3a1e638670ef","image grid","p","","","","","Ontogenetic_Distractor_Nonthreat_target","2500","ongrid","p","2","Ontogenetic","true","experimental"
"","null","html-keyboard-response","158","176892","0.0-11.0-2.22","rslDT8rzDI","62db005bae68d37fe24b50da","6617fad957f7c6a12ea16e26","6622ccbf626f3a1e638670ef","
    <div id=""grid-container"">
        <!-- Grid items will be dynamically added here -->
    </div>    ","null","","","","","","","","","","","",""
"","null","html-keyboard-response","159","177593","0.0-11.0-0.23","rslDT8rzDI","62db005bae68d37fe24b50da","6617fad957f7c6a12ea16e26","6622ccbf626f3a1e638670ef","fixation cross","null","","","","","","","","","","","",""
"","529","html-keyboard-response","160","178122","0.0-11.0-1.23","rslDT8rzDI","62db005bae68d37fe24b50da","6617fad957f7c6a12ea16e26","6622ccbf626f3a1e638670ef","image grid","p","","","","","Ontogenetic_Distractor_Nonthreat_target","2500","ongrid","p","2","Ontogenetic","true","experimental"
"","null","html-keyboard-response","161","178283","0.0-11.0-2.23","rslDT8rzDI","62db005bae68d37fe24b50da","6617fad957f7c6a12ea16e26","6622ccbf626f3a1e638670ef","
    <div id=""grid-container"">
        <!-- Grid items will be dynamically added here -->
    </div>    ","null","","","","","","","","","","","",""
"","null","html-keyboard-response","162","178996","0.0-11.0-0.24","rslDT8rzDI","62db005bae68d37fe24b50da","6617fad957f7c6a12ea16e26","6622ccbf626f3a1e638670ef","fixation cross","null","","","","","","","","","","","",""
"","873","html-keyboard-response","163","179870","0.0-11.0-1.24","rslDT8rzDI","62db005bae68d37fe24b50da","6617fad957f7c6a12ea16e26","6622ccbf626f3a1e638670ef","image grid","p","","","","","Ontogenetic_Distractor_Nonthreat_target","2500","ongrid","p","8","Ontogenetic","true","experimental"
"","null","html-keyboard-response","164","180030","0.0-11.0-2.24","rslDT8rzDI","62db005bae68d37fe24b50da","6617fad957f7c6a12ea16e26","6622ccbf626f3a1e638670ef","
    <div id=""grid-container"">
        <!-- Grid items will be dynamically added here -->
    </div>    ","null","","","","","","","","","","","",""
"","null","html-keyboard-response","165","180745","0.0-11.0-0.25","rslDT8rzDI","62db005bae68d37fe24b50da","6617fad957f7c6a12ea16e26","6622ccbf626f3a1e638670ef","fixation cross","null","","","","","","","","","","","",""
"","1222","html-keyboard-response","166","181968","0.0-11.0-1.25","rslDT8rzDI","62db005bae68d37fe24b50da","6617fad957f7c6a12ea16e26","6622ccbf626f3a1e638670ef","image grid"," ","","","","","Ontogenetic_Distractor_notarget","2500","ongrid"," ","8","Ontogenetic","true","experimental"
"","null","html-keyboard-response","167","182133","0.0-11.0-2.25","rslDT8rzDI","62db005bae68d37fe24b50da","6617fad957f7c6a12ea16e26","6622ccbf626f3a1e638670ef","
    <div id=""grid-container"">
        <!-- Grid items will be dynamically added here -->
    </div>    ","null","","","","","","","","","","","",""
"","null","html-keyboard-response","168","182847","0.0-11.0-0.26","rslDT8rzDI","62db005bae68d37fe24b50da","6617fad957f7c6a12ea16e26","6622ccbf626f3a1e638670ef","fixation cross","null","","","","","","","","","","","",""
"","826","html-keyboard-response","169","183673","0.0-11.0-1.26","rslDT8rzDI","62db005bae68d37fe24b50da","6617fad957f7c6a12ea16e26","6622ccbf626f3a1e638670ef","image grid","p","","","","","Ontogenetic_Distractor_Nonthreat_target","2500","ongrid","p","1","Ontogenetic","true","experimental"
"","null","html-keyboard-response","170","183849","0.0-11.0-2.26","rslDT8rzDI","62db005bae68d37fe24b50da","6617fad957f7c6a12ea16e26","6622ccbf626f3a1e638670ef","
    <div id=""grid-container"">
        <!-- Grid items will be dynamically added here -->
    </div>    ","null","","","","","","","","","","","",""
"","null","html-keyboard-response","171","184562","0.0-11.0-0.27","rslDT8rzDI","62db005bae68d37fe24b50da","6617fad957f7c6a12ea16e26","6622ccbf626f3a1e638670ef","fixation cross","null","","","","","","","","","","","",""
"","674","html-keyboard-response","172","185237","0.0-11.0-1.27","rslDT8rzDI","62db005bae68d37fe24b50da","6617fad957f7c6a12ea16e26","6622ccbf626f3a1e638670ef","image grid","p","","","","","Ontogenetic_Distractor_Nonthreat_target","2500","ongrid","p","4","Ontogenetic","true","experimental"
"","null","html-keyboard-response","173","185396","0.0-11.0-2.27","rslDT8rzDI","62db005bae68d37fe24b50da","6617fad957f7c6a12ea16e26","6622ccbf626f3a1e638670ef","
    <div id=""grid-container"">
        <!-- Grid items will be dynamically added here -->
    </div>    ","null","","","","","","","","","","","",""
"","null","html-keyboard-response","174","186124","0.0-11.0-0.28","rslDT8rzDI","62db005bae68d37fe24b50da","6617fad957f7c6a12ea16e26","6622ccbf626f3a1e638670ef","fixation cross","null","","","","","","","","","","","",""
"","1168","html-keyboard-response","175","187293","0.0-11.0-1.28","rslDT8rzDI","62db005bae68d37fe24b50da","6617fad957f7c6a12ea16e26","6622ccbf626f3a1e638670ef","image grid","q","","","","","Ontogenetic_Distractor_Threat_target","2500","ongrid","q","9","Ontogenetic","true","experimental"
"","null","html-keyboard-response","176","187449","0.0-11.0-2.28","rslDT8rzDI","62db005bae68d37fe24b50da","6617fad957f7c6a12ea16e26","6622ccbf626f3a1e638670ef","
    <div id=""grid-container"">
        <!-- Grid items will be dynamically added here -->
    </div>    ","null","","","","","","","","","","","",""
"","null","html-keyboard-response","177","188164","0.0-11.0-0.29","rslDT8rzDI","62db005bae68d37fe24b50da","6617fad957f7c6a12ea16e26","6622ccbf626f3a1e638670ef","fixation cross","null","","","","","","","","","","","",""
"","875","html-keyboard-response","178","189039","0.0-11.0-1.29","rslDT8rzDI","62db005bae68d37fe24b50da","6617fad957f7c6a12ea16e26","6622ccbf626f3a1e638670ef","image grid","q","","","","","Ontogenetic_Distractor_Threat_target","2500","ongrid","q","7","Ontogenetic","true","experimental"
"","null","html-keyboard-response","179","189203","0.0-11.0-2.29","rslDT8rzDI","62db005bae68d37fe24b50da","6617fad957f7c6a12ea16e26","6622ccbf626f3a1e638670ef","
    <div id=""grid-container"">
        <!-- Grid items will be dynamically added here -->
    </div>    ","null","","","","","","","","","","","",""
"","null","html-keyboard-response","180","189933","0.0-11.0-0.30","rslDT8rzDI","62db005bae68d37fe24b50da","6617fad957f7c6a12ea16e26","6622ccbf626f3a1e638670ef","fixation cross","null","","","","","","","","","","","",""
"","836","html-keyboard-response","181","190770","0.0-11.0-1.30","rslDT8rzDI","62db005bae68d37fe24b50da","6617fad957f7c6a12ea16e26","6622ccbf626f3a1e638670ef","image grid"," ","","","","","Ontogenetic_Distractor_Nonthreat_target","2500","ongrid","p","6","Ontogenetic","false","experimental"
"","null","html-keyboard-response","182","190927","0.0-11.0-2.30","rslDT8rzDI","62db005bae68d37fe24b50da","6617fad957f7c6a12ea16e26","6622ccbf626f3a1e638670ef","
    <div id=""grid-container"">
        <!-- Grid items will be dynamically added here -->
    </div>    ","null","","","","","","","","","","","",""
"","null","html-keyboard-response","183","191642","0.0-11.0-0.31","rslDT8rzDI","62db005bae68d37fe24b50da","6617fad957f7c6a12ea16e26","6622ccbf626f3a1e638670ef","fixation cross","null","","","","","","","","","","","",""
"","1164","html-keyboard-response","184","192808","0.0-11.0-1.31","rslDT8rzDI","62db005bae68d37fe24b50da","6617fad957f7c6a12ea16e26","6622ccbf626f3a1e638670ef","image grid","p","","","","","Ontogenetic_Distractor_Nonthreat_target","2500","ongrid","p","9","Ontogenetic","true","experimental"
"","null","html-keyboard-response","185","192965","0.0-11.0-2.31","rslDT8rzDI","62db005bae68d37fe24b50da","6617fad957f7c6a12ea16e26","6622ccbf626f3a1e638670ef","
    <div id=""grid-container"">
        <!-- Grid items will be dynamically added here -->
    </div>    ","null","","","","","","","","","","","",""
"","null","html-keyboard-response","186","193681","0.0-11.0-0.32","rslDT8rzDI","62db005bae68d37fe24b50da","6617fad957f7c6a12ea16e26","6622ccbf626f3a1e638670ef","fixation cross","null","","","","","","","","","","","",""
"","943","html-keyboard-response","187","194624","0.0-11.0-1.32","rslDT8rzDI","62db005bae68d37fe24b50da","6617fad957f7c6a12ea16e26","6622ccbf626f3a1e638670ef","image grid","q","","","","","Ontogenetic_Distractor_Threat_target","2500","ongrid","q","3","Ontogenetic","true","experimental"
"","null","html-keyboard-response","188","194785","0.0-11.0-2.32","rslDT8rzDI","62db005bae68d37fe24b50da","6617fad957f7c6a12ea16e26","6622ccbf626f3a1e638670ef","
    <div id=""grid-container"">
        <!-- Grid items will be dynamically added here -->
    </div>    ","null","","","","","","","","","","","",""
"","null","html-keyboard-response","189","195501","0.0-11.0-0.33","rslDT8rzDI","62db005bae68d37fe24b50da","6617fad957f7c6a12ea16e26","6622ccbf626f3a1e638670ef","fixation cross","null","","","","","","","","","","","",""
"","836","html-keyboard-response","190","196337","0.0-11.0-1.33","rslDT8rzDI","62db005bae68d37fe24b50da","6617fad957f7c6a12ea16e26","6622ccbf626f3a1e638670ef","image grid","q","","","","","Ontogenetic_Distractor_Threat_target","2500","ongrid","q","5","Ontogenetic","true","experimental"
"","null","html-keyboard-response","191","196489","0.0-11.0-2.33","rslDT8rzDI","62db005bae68d37fe24b50da","6617fad957f7c6a12ea16e26","6622ccbf626f3a1e638670ef","
    <div id=""grid-container"">
        <!-- Grid items will be dynamically added here -->
    </div>    ","null","","","","","","","","","","","",""
"","null","html-keyboard-response","192","197202","0.0-11.0-0.34","rslDT8rzDI","62db005bae68d37fe24b50da","6617fad957f7c6a12ea16e26","6622ccbf626f3a1e638670ef","fixation cross","null","","","","","","","","","","","",""
"","700","html-keyboard-response","193","197902","0.0-11.0-1.34","rslDT8rzDI","62db005bae68d37fe24b50da","6617fad957f7c6a12ea16e26","6622ccbf626f3a1e638670ef","image grid","q","","","","","Ontogenetic_Distractor_Threat_target","2500","ongrid","q","3","Ontogenetic","true","experimental"
"","null","html-keyboard-response","194","198067","0.0-11.0-2.34","rslDT8rzDI","62db005bae68d37fe24b50da","6617fad957f7c6a12ea16e26","6622ccbf626f3a1e638670ef","
    <div id=""grid-container"">
        <!-- Grid items will be dynamically added here -->
    </div>    ","null","","","","","","","","","","","",""
"","null","html-keyboard-response","195","198786","0.0-11.0-0.35","rslDT8rzDI","62db005bae68d37fe24b50da","6617fad957f7c6a12ea16e26","6622ccbf626f3a1e638670ef","fixation cross","null","","","","","","","","","","","",""
"","700","html-keyboard-response","196","199486","0.0-11.0-1.35","rslDT8rzDI","62db005bae68d37fe24b50da","6617fad957f7c6a12ea16e26","6622ccbf626f3a1e638670ef","image grid","p","","","","","Ontogenetic_Distractor_Nonthreat_target","2500","ongrid","p","3","Ontogenetic","true","experimental"
"","null","html-keyboard-response","197","199650","0.0-11.0-2.35","rslDT8rzDI","62db005bae68d37fe24b50da","6617fad957f7c6a12ea16e26","6622ccbf626f3a1e638670ef","
    <div id=""grid-container"">
        <!-- Grid items will be dynamically added here -->
    </div>    ","null","","","","","","","","","","","",""
"","null","html-keyboard-response","198","200353","0.0-11.0-0.36","rslDT8rzDI","62db005bae68d37fe24b50da","6617fad957f7c6a12ea16e26","6622ccbf626f3a1e638670ef","fixation cross","null","","","","","","","","","","","",""
"","1165","html-keyboard-response","199","201518","0.0-11.0-1.36","rslDT8rzDI","62db005bae68d37fe24b50da","6617fad957f7c6a12ea16e26","6622ccbf626f3a1e638670ef","image grid","q","","","","","Ontogenetic_Distractor_Threat_target","2500","ongrid","q","7","Ontogenetic","true","experimental"
"","null","html-keyboard-response","200","201677","0.0-11.0-2.36","rslDT8rzDI","62db005bae68d37fe24b50da","6617fad957f7c6a12ea16e26","6622ccbf626f3a1e638670ef","
    <div id=""grid-container"">
        <!-- Grid items will be dynamically added here -->
    </div>    ","null","","","","","","","","","","","",""
"","null","html-keyboard-response","201","202393","0.0-11.0-0.37","rslDT8rzDI","62db005bae68d37fe24b50da","6617fad957f7c6a12ea16e26","6622ccbf626f3a1e638670ef","fixation cross","null","","","","","","","","","","","",""
"","759","html-keyboard-response","202","203153","0.0-11.0-1.37","rslDT8rzDI","62db005bae68d37fe24b50da","6617fad957f7c6a12ea16e26","6622ccbf626f3a1e638670ef","image grid","q","","","","","Ontogenetic_Distractor_Threat_target","2500","ongrid","q","7","Ontogenetic","true","experimental"
"","null","html-keyboard-response","203","203305","0.0-11.0-2.37","rslDT8rzDI","62db005bae68d37fe24b50da","6617fad957f7c6a12ea16e26","6622ccbf626f3a1e638670ef","
    <div id=""grid-container"">
        <!-- Grid items will be dynamically added here -->
    </div>    ","null","","","","","","","","","","","",""
"","null","html-keyboard-response","204","204030","0.0-11.0-0.38","rslDT8rzDI","62db005bae68d37fe24b50da","6617fad957f7c6a12ea16e26","6622ccbf626f3a1e638670ef","fixation cross","null","","","","","","","","","","","",""
"","697","html-keyboard-response","205","204728","0.0-11.0-1.38","rslDT8rzDI","62db005bae68d37fe24b50da","6617fad957f7c6a12ea16e26","6622ccbf626f3a1e638670ef","image grid","q","","","","","Ontogenetic_Distractor_Threat_target","2500","ongrid","q","6","Ontogenetic","true","experimental"
"","null","html-keyboard-response","206","204883","0.0-11.0-2.38","rslDT8rzDI","62db005bae68d37fe24b50da","6617fad957f7c6a12ea16e26","6622ccbf626f3a1e638670ef","
    <div id=""grid-container"">
        <!-- Grid items will be dynamically added here -->
    </div>    ","null","","","","","","","","","","","",""
"","null","html-keyboard-response","207","205596","0.0-11.0-0.39","rslDT8rzDI","62db005bae68d37fe24b50da","6617fad957f7c6a12ea16e26","6622ccbf626f3a1e638670ef","fixation cross","null","","","","","","","","","","","",""
"","793","html-keyboard-response","208","206389","0.0-11.0-1.39","rslDT8rzDI","62db005bae68d37fe24b50da","6617fad957f7c6a12ea16e26","6622ccbf626f3a1e638670ef","image grid","q","","","","","Ontogenetic_Distractor_Threat_target","2500","ongrid","q","3","Ontogenetic","true","experimental"
"","null","html-keyboard-response","209","206555","0.0-11.0-2.39","rslDT8rzDI","62db005bae68d37fe24b50da","6617fad957f7c6a12ea16e26","6622ccbf626f3a1e638670ef","
    <div id=""grid-container"">
        <!-- Grid items will be dynamically added here -->
    </div>    ","null","","","","","","","","","","","",""
"","2486","html-keyboard-response","210","209267","0.0-12.0","rslDT8rzDI","62db005bae68d37fe24b50da","6617fad957f7c6a12ea16e26","6622ccbf626f3a1e638670ef","break screen"," ","","","","","","","","","","","",""
"","null","html-keyboard-response","211","211780","0.0-13.0-0.0","rslDT8rzDI","62db005bae68d37fe24b50da","6617fad957f7c6a12ea16e26","6622ccbf626f3a1e638670ef","fixation cross","null","","","","","","","","","","","",""
"","1096","html-keyboard-response","212","212876","0.0-13.0-1.0","rslDT8rzDI","62db005bae68d37fe24b50da","6617fad957f7c6a12ea16e26","6622ccbf626f3a1e638670ef","image grid","q","","","","","Phylogenetic_Distractor_Threat_target","2500","ongrid","q","6","Phylogenetic","true","experimental"
"","null","html-keyboard-response","213","213041","0.0-13.0-2.0","rslDT8rzDI","62db005bae68d37fe24b50da","6617fad957f7c6a12ea16e26","6622ccbf626f3a1e638670ef","
    <div id=""grid-container"">
        <!-- Grid items will be dynamically added here -->
    </div>    ","null","","","","","","","","","","","",""
"","null","html-keyboard-response","214","213766","0.0-13.0-0.1","rslDT8rzDI","62db005bae68d37fe24b50da","6617fad957f7c6a12ea16e26","6622ccbf626f3a1e638670ef","fixation cross","null","","","","","","","","","","","",""
"","721","html-keyboard-response","215","214488","0.0-13.0-1.1","rslDT8rzDI","62db005bae68d37fe24b50da","6617fad957f7c6a12ea16e26","6622ccbf626f3a1e638670ef","image grid","q","","","","","Phylogenetic_Distractor_Threat_target","2500","ongrid","q","1","Phylogenetic","true","experimental"
"","null","html-keyboard-response","216","214654","0.0-13.0-2.1","rslDT8rzDI","62db005bae68d37fe24b50da","6617fad957f7c6a12ea16e26","6622ccbf626f3a1e638670ef","
    <div id=""grid-container"">
        <!-- Grid items will be dynamically added here -->
    </div>    ","null","","","","","","","","","","","",""
"","null","html-keyboard-response","217","215364","0.0-13.0-0.2","rslDT8rzDI","62db005bae68d37fe24b50da","6617fad957f7c6a12ea16e26","6622ccbf626f3a1e638670ef","fixation cross","null","","","","","","","","","","","",""
"","598","html-keyboard-response","218","215963","0.0-13.0-1.2","rslDT8rzDI","62db005bae68d37fe24b50da","6617fad957f7c6a12ea16e26","6622ccbf626f3a1e638670ef","image grid","q","","","","","Phylogenetic_Distractor_Threat_target","2500","ongrid","q","7","Phylogenetic","true","experimental"
"","null","html-keyboard-response","219","216122","0.0-13.0-2.2","rslDT8rzDI","62db005bae68d37fe24b50da","6617fad957f7c6a12ea16e26","6622ccbf626f3a1e638670ef","
    <div id=""grid-container"">
        <!-- Grid items will be dynamically added here -->
    </div>    ","null","","","","","","","","","","","",""
"","null","html-keyboard-response","220","216846","0.0-13.0-0.3","rslDT8rzDI","62db005bae68d37fe24b50da","6617fad957f7c6a12ea16e26","6622ccbf626f3a1e638670ef","fixation cross","null","","","","","","","","","","","",""
"","609","html-keyboard-response","221","217456","0.0-13.0-1.3","rslDT8rzDI","62db005bae68d37fe24b50da","6617fad957f7c6a12ea16e26","6622ccbf626f3a1e638670ef","image grid","q","","","","","Phylogenetic_Distractor_Threat_target","2500","ongrid","q","8","Phylogenetic","true","experimental"
"","null","html-keyboard-response","222","217621","0.0-13.0-2.3","rslDT8rzDI","62db005bae68d37fe24b50da","6617fad957f7c6a12ea16e26","6622ccbf626f3a1e638670ef","
    <div id=""grid-container"">
        <!-- Grid items will be dynamically added here -->
    </div>    ","null","","","","","","","","","","","",""
"","null","html-keyboard-response","223","218334","0.0-13.0-0.4","rslDT8rzDI","62db005bae68d37fe24b50da","6617fad957f7c6a12ea16e26","6622ccbf626f3a1e638670ef","fixation cross","null","","","","","","","","","","","",""
"","854","html-keyboard-response","224","219189","0.0-13.0-1.4","rslDT8rzDI","62db005bae68d37fe24b50da","6617fad957f7c6a12ea16e26","6622ccbf626f3a1e638670ef","image grid","p","","","","","Phylogenetic_Distractor_Nonthreat_target","2500","ongrid","p","5","Phylogenetic","true","experimental"
"","null","html-keyboard-response","225","219342","0.0-13.0-2.4","rslDT8rzDI","62db005bae68d37fe24b50da","6617fad957f7c6a12ea16e26","6622ccbf626f3a1e638670ef","
    <div id=""grid-container"">
        <!-- Grid items will be dynamically added here -->
    </div>    ","null","","","","","","","","","","","",""
"","null","html-keyboard-response","226","220053","0.0-13.0-0.5","rslDT8rzDI","62db005bae68d37fe24b50da","6617fad957f7c6a12ea16e26","6622ccbf626f3a1e638670ef","fixation cross","null","","","","","","","","","","","",""
"","1294","html-keyboard-response","227","221348","0.0-13.0-1.5","rslDT8rzDI","62db005bae68d37fe24b50da","6617fad957f7c6a12ea16e26","6622ccbf626f3a1e638670ef","image grid"," ","","","","","Phylogenetic_Distractor_notarget","2500","ongrid"," ","4","Phylogenetic","true","experimental"
"","null","html-keyboard-response","228","221510","0.0-13.0-2.5","rslDT8rzDI","62db005bae68d37fe24b50da","6617fad957f7c6a12ea16e26","6622ccbf626f3a1e638670ef","
    <div id=""grid-container"">
        <!-- Grid items will be dynamically added here -->
    </div>    ","null","","","","","","","","","","","",""
"","null","html-keyboard-response","229","222234","0.0-13.0-0.6","rslDT8rzDI","62db005bae68d37fe24b50da","6617fad957f7c6a12ea16e26","6622ccbf626f3a1e638670ef","fixation cross","null","","","","","","","","","","","",""
"","696","html-keyboard-response","230","222931","0.0-13.0-1.6","rslDT8rzDI","62db005bae68d37fe24b50da","6617fad957f7c6a12ea16e26","6622ccbf626f3a1e638670ef","image grid","p","","","","","Phylogenetic_Distractor_Nonthreat_target","2500","ongrid","p","5","Phylogenetic","true","experimental"
"","null","html-keyboard-response","231","223082","0.0-13.0-2.6","rslDT8rzDI","62db005bae68d37fe24b50da","6617fad957f7c6a12ea16e26","6622ccbf626f3a1e638670ef","
    <div id=""grid-container"">
        <!-- Grid items will be dynamically added here -->
    </div>    ","null","","","","","","","","","","","",""
"","null","html-keyboard-response","232","223792","0.0-13.0-0.7","rslDT8rzDI","62db005bae68d37fe24b50da","6617fad957f7c6a12ea16e26","6622ccbf626f3a1e638670ef","fixation cross","null","","","","","","","","","","","",""
"","743","html-keyboard-response","233","224535","0.0-13.0-1.7","rslDT8rzDI","62db005bae68d37fe24b50da","6617fad957f7c6a12ea16e26","6622ccbf626f3a1e638670ef","image grid","q","","","","","Phylogenetic_Distractor_Threat_target","2500","ongrid","q","2","Phylogenetic","true","experimental"
"","null","html-keyboard-response","234","224696","0.0-13.0-2.7","rslDT8rzDI","62db005bae68d37fe24b50da","6617fad957f7c6a12ea16e26","6622ccbf626f3a1e638670ef","
    <div id=""grid-container"">
        <!-- Grid items will be dynamically added here -->
    </div>    ","null","","","","","","","","","","","",""
"","null","html-keyboard-response","235","225406","0.0-13.0-0.8","rslDT8rzDI","62db005bae68d37fe24b50da","6617fad957f7c6a12ea16e26","6622ccbf626f3a1e638670ef","fixation cross","null","","","","","","","","","","","",""
"","1011","html-keyboard-response","236","226417","0.0-13.0-1.8","rslDT8rzDI","62db005bae68d37fe24b50da","6617fad957f7c6a12ea16e26","6622ccbf626f3a1e638670ef","image grid","q","","","","","Phylogenetic_Distractor_Nonthreat_target","2500","ongrid","p","9","Phylogenetic","false","experimental"
"","null","html-keyboard-response","237","226569","0.0-13.0-2.8","rslDT8rzDI","62db005bae68d37fe24b50da","6617fad957f7c6a12ea16e26","6622ccbf626f3a1e638670ef","
    <div id=""grid-container"">
        <!-- Grid items will be dynamically added here -->
    </div>    ","null","","","","","","","","","","","",""
"","null","html-keyboard-response","238","227276","0.0-13.0-0.9","rslDT8rzDI","62db005bae68d37fe24b50da","6617fad957f7c6a12ea16e26","6622ccbf626f3a1e638670ef","fixation cross","null","","","","","","","","","","","",""
"","829","html-keyboard-response","239","228105","0.0-13.0-1.9","rslDT8rzDI","62db005bae68d37fe24b50da","6617fad957f7c6a12ea16e26","6622ccbf626f3a1e638670ef","image grid","q","","","","","Phylogenetic_Distractor_Threat_target","2500","ongrid","q","1","Phylogenetic","true","experimental"
"","null","html-keyboard-response","240","228268","0.0-13.0-2.9","rslDT8rzDI","62db005bae68d37fe24b50da","6617fad957f7c6a12ea16e26","6622ccbf626f3a1e638670ef","
    <div id=""grid-container"">
        <!-- Grid items will be dynamically added here -->
    </div>    ","null","","","","","","","","","","","",""
"","null","html-keyboard-response","241","228988","0.0-13.0-0.10","rslDT8rzDI","62db005bae68d37fe24b50da","6617fad957f7c6a12ea16e26","6622ccbf626f3a1e638670ef","fixation cross","null","","","","","","","","","","","",""
"","1024","html-keyboard-response","242","230013","0.0-13.0-1.10","rslDT8rzDI","62db005bae68d37fe24b50da","6617fad957f7c6a12ea16e26","6622ccbf626f3a1e638670ef","image grid","q","","","","","Phylogenetic_Distractor_Threat_target","2500","ongrid","q","3","Phylogenetic","true","experimental"
"","null","html-keyboard-response","243","230173","0.0-13.0-2.10","rslDT8rzDI","62db005bae68d37fe24b50da","6617fad957f7c6a12ea16e26","6622ccbf626f3a1e638670ef","
    <div id=""grid-container"">
        <!-- Grid items will be dynamically added here -->
    </div>    ","null","","","","","","","","","","","",""
"","null","html-keyboard-response","244","230900","0.0-13.0-0.11","rslDT8rzDI","62db005bae68d37fe24b50da","6617fad957f7c6a12ea16e26","6622ccbf626f3a1e638670ef","fixation cross","null","","","","","","","","","","","",""
"","956","html-keyboard-response","245","231857","0.0-13.0-1.11","rslDT8rzDI","62db005bae68d37fe24b50da","6617fad957f7c6a12ea16e26","6622ccbf626f3a1e638670ef","image grid","p","","","","","Phylogenetic_Distractor_Nonthreat_target","2500","ongrid","p","8","Phylogenetic","true","experimental"
"","null","html-keyboard-response","246","232012","0.0-13.0-2.11","rslDT8rzDI","62db005bae68d37fe24b50da","6617fad957f7c6a12ea16e26","6622ccbf626f3a1e638670ef","
    <div id=""grid-container"">
        <!-- Grid items will be dynamically added here -->
    </div>    ","null","","","","","","","","","","","",""
"","null","html-keyboard-response","247","232726","0.0-13.0-0.12","rslDT8rzDI","62db005bae68d37fe24b50da","6617fad957f7c6a12ea16e26","6622ccbf626f3a1e638670ef","fixation cross","null","","","","","","","","","","","",""
"","708","html-keyboard-response","248","233435","0.0-13.0-1.12","rslDT8rzDI","62db005bae68d37fe24b50da","6617fad957f7c6a12ea16e26","6622ccbf626f3a1e638670ef","image grid","q","","","","","Phylogenetic_Distractor_Threat_target","2500","ongrid","q","8","Phylogenetic","true","experimental"
"","null","html-keyboard-response","249","233595","0.0-13.0-2.12","rslDT8rzDI","62db005bae68d37fe24b50da","6617fad957f7c6a12ea16e26","6622ccbf626f3a1e638670ef","
    <div id=""grid-container"">
        <!-- Grid items will be dynamically added here -->
    </div>    ","null","","","","","","","","","","","",""
"","null","html-keyboard-response","250","234321","0.0-13.0-0.13","rslDT8rzDI","62db005bae68d37fe24b50da","6617fad957f7c6a12ea16e26","6622ccbf626f3a1e638670ef","fixation cross","null","","","","","","","","","","","",""
"","587","html-keyboard-response","251","234908","0.0-13.0-1.13","rslDT8rzDI","62db005bae68d37fe24b50da","6617fad957f7c6a12ea16e26","6622ccbf626f3a1e638670ef","image grid","q","","","","","Phylogenetic_Distractor_Threat_target","2500","ongrid","q","5","Phylogenetic","true","experimental"
"","null","html-keyboard-response","252","235064","0.0-13.0-2.13","rslDT8rzDI","62db005bae68d37fe24b50da","6617fad957f7c6a12ea16e26","6622ccbf626f3a1e638670ef","
    <div id=""grid-container"">
        <!-- Grid items will be dynamically added here -->
    </div>    ","null","","","","","","","","","","","",""
"","null","html-keyboard-response","253","235773","0.0-13.0-0.14","rslDT8rzDI","62db005bae68d37fe24b50da","6617fad957f7c6a12ea16e26","6622ccbf626f3a1e638670ef","fixation cross","null","","","","","","","","","","","",""
"","1065","html-keyboard-response","254","236839","0.0-13.0-1.14","rslDT8rzDI","62db005bae68d37fe24b50da","6617fad957f7c6a12ea16e26","6622ccbf626f3a1e638670ef","image grid"," ","","","","","Phylogenetic_Distractor_notarget","2500","ongrid"," ","5","Phylogenetic","true","experimental"
"","null","html-keyboard-response","255","236994","0.0-13.0-2.14","rslDT8rzDI","62db005bae68d37fe24b50da","6617fad957f7c6a12ea16e26","6622ccbf626f3a1e638670ef","
    <div id=""grid-container"">
        <!-- Grid items will be dynamically added here -->
    </div>    ","null","","","","","","","","","","","",""
"","null","html-keyboard-response","256","237710","0.0-13.0-0.15","rslDT8rzDI","62db005bae68d37fe24b50da","6617fad957f7c6a12ea16e26","6622ccbf626f3a1e638670ef","fixation cross","null","","","","","","","","","","","",""
"","806","html-keyboard-response","257","238517","0.0-13.0-1.15","rslDT8rzDI","62db005bae68d37fe24b50da","6617fad957f7c6a12ea16e26","6622ccbf626f3a1e638670ef","image grid","p","","","","","Phylogenetic_Distractor_Nonthreat_target","2500","ongrid","p","5","Phylogenetic","true","experimental"
"","null","html-keyboard-response","258","238684","0.0-13.0-2.15","rslDT8rzDI","62db005bae68d37fe24b50da","6617fad957f7c6a12ea16e26","6622ccbf626f3a1e638670ef","
    <div id=""grid-container"">
        <!-- Grid items will be dynamically added here -->
    </div>    ","null","","","","","","","","","","","",""
"","null","html-keyboard-response","259","239395","0.0-13.0-0.16","rslDT8rzDI","62db005bae68d37fe24b50da","6617fad957f7c6a12ea16e26","6622ccbf626f3a1e638670ef","fixation cross","null","","","","","","","","","","","",""
"","841","html-keyboard-response","260","240237","0.0-13.0-1.16","rslDT8rzDI","62db005bae68d37fe24b50da","6617fad957f7c6a12ea16e26","6622ccbf626f3a1e638670ef","image grid"," ","","","","","Phylogenetic_Distractor_Threat_target","2500","ongrid","q","3","Phylogenetic","false","experimental"
"","null","html-keyboard-response","261","240398","0.0-13.0-2.16","rslDT8rzDI","62db005bae68d37fe24b50da","6617fad957f7c6a12ea16e26","6622ccbf626f3a1e638670ef","
    <div id=""grid-container"">
        <!-- Grid items will be dynamically added here -->
    </div>    ","null","","","","","","","","","","","",""
"","null","html-keyboard-response","262","241102","0.0-13.0-0.17","rslDT8rzDI","62db005bae68d37fe24b50da","6617fad957f7c6a12ea16e26","6622ccbf626f3a1e638670ef","fixation cross","null","","","","","","","","","","","",""
"","777","html-keyboard-response","263","241879","0.0-13.0-1.17","rslDT8rzDI","62db005bae68d37fe24b50da","6617fad957f7c6a12ea16e26","6622ccbf626f3a1e638670ef","image grid","q","","","","","Phylogenetic_Distractor_Threat_target","2500","ongrid","q","5","Phylogenetic","true","experimental"
"","null","html-keyboard-response","264","242045","0.0-13.0-2.17","rslDT8rzDI","62db005bae68d37fe24b50da","6617fad957f7c6a12ea16e26","6622ccbf626f3a1e638670ef","
    <div id=""grid-container"">
        <!-- Grid items will be dynamically added here -->
    </div>    ","null","","","","","","","","","","","",""
"","null","html-keyboard-response","265","242770","0.0-13.0-0.18","rslDT8rzDI","62db005bae68d37fe24b50da","6617fad957f7c6a12ea16e26","6622ccbf626f3a1e638670ef","fixation cross","null","","","","","","","","","","","",""
"","503","html-keyboard-response","266","243273","0.0-13.0-1.18","rslDT8rzDI","62db005bae68d37fe24b50da","6617fad957f7c6a12ea16e26","6622ccbf626f3a1e638670ef","image grid","q","","","","","Phylogenetic_Distractor_Threat_target","2500","ongrid","q","5","Phylogenetic","true","experimental"
"","null","html-keyboard-response","267","243435","0.0-13.0-2.18","rslDT8rzDI","62db005bae68d37fe24b50da","6617fad957f7c6a12ea16e26","6622ccbf626f3a1e638670ef","
    <div id=""grid-container"">
        <!-- Grid items will be dynamically added here -->
    </div>    ","null","","","","","","","","","","","",""
"","null","html-keyboard-response","268","244149","0.0-13.0-0.19","rslDT8rzDI","62db005bae68d37fe24b50da","6617fad957f7c6a12ea16e26","6622ccbf626f3a1e638670ef","fixation cross","null","","","","","","","","","","","",""
"","762","html-keyboard-response","269","244912","0.0-13.0-1.19","rslDT8rzDI","62db005bae68d37fe24b50da","6617fad957f7c6a12ea16e26","6622ccbf626f3a1e638670ef","image grid","p","","","","","Phylogenetic_Distractor_Nonthreat_target","2500","ongrid","p","5","Phylogenetic","true","experimental"
"","null","html-keyboard-response","270","245078","0.0-13.0-2.19","rslDT8rzDI","62db005bae68d37fe24b50da","6617fad957f7c6a12ea16e26","6622ccbf626f3a1e638670ef","
    <div id=""grid-container"">
        <!-- Grid items will be dynamically added here -->
    </div>    ","null","","","","","","","","","","","",""
"","null","html-keyboard-response","271","245792","0.0-13.0-0.20","rslDT8rzDI","62db005bae68d37fe24b50da","6617fad957f7c6a12ea16e26","6622ccbf626f3a1e638670ef","fixation cross","null","","","","","","","","","","","",""
"","890","html-keyboard-response","272","246682","0.0-13.0-1.20","rslDT8rzDI","62db005bae68d37fe24b50da","6617fad957f7c6a12ea16e26","6622ccbf626f3a1e638670ef","image grid","p","","","","","Phylogenetic_Distractor_Nonthreat_target","2500","ongrid","p","2","Phylogenetic","true","experimental"
"","null","html-keyboard-response","273","246839","0.0-13.0-2.20","rslDT8rzDI","62db005bae68d37fe24b50da","6617fad957f7c6a12ea16e26","6622ccbf626f3a1e638670ef","
    <div id=""grid-container"">
        <!-- Grid items will be dynamically added here -->
    </div>    ","null","","","","","","","","","","","",""
"","null","html-keyboard-response","274","247554","0.0-13.0-0.21","rslDT8rzDI","62db005bae68d37fe24b50da","6617fad957f7c6a12ea16e26","6622ccbf626f3a1e638670ef","fixation cross","null","","","","","","","","","","","",""
"","910","html-keyboard-response","275","248464","0.0-13.0-1.21","rslDT8rzDI","62db005bae68d37fe24b50da","6617fad957f7c6a12ea16e26","6622ccbf626f3a1e638670ef","image grid"," ","","","","","Phylogenetic_Distractor_Threat_target","2500","ongrid","q","7","Phylogenetic","false","experimental"
"","null","html-keyboard-response","276","248620","0.0-13.0-2.21","rslDT8rzDI","62db005bae68d37fe24b50da","6617fad957f7c6a12ea16e26","6622ccbf626f3a1e638670ef","
    <div id=""grid-container"">
        <!-- Grid items will be dynamically added here -->
    </div>    ","null","","","","","","","","","","","",""
"","null","html-keyboard-response","277","249330","0.0-13.0-0.22","rslDT8rzDI","62db005bae68d37fe24b50da","6617fad957f7c6a12ea16e26","6622ccbf626f3a1e638670ef","fixation cross","null","","","","","","","","","","","",""
"","867","html-keyboard-response","278","250197","0.0-13.0-1.22","rslDT8rzDI","62db005bae68d37fe24b50da","6617fad957f7c6a12ea16e26","6622ccbf626f3a1e638670ef","image grid","q","","","","","Phylogenetic_Distractor_Threat_target","2500","ongrid","q","6","Phylogenetic","true","experimental"
"","null","html-keyboard-response","279","250351","0.0-13.0-2.22","rslDT8rzDI","62db005bae68d37fe24b50da","6617fad957f7c6a12ea16e26","6622ccbf626f3a1e638670ef","
    <div id=""grid-container"">
        <!-- Grid items will be dynamically added here -->
    </div>    ","null","","","","","","","","","","","",""
"","null","html-keyboard-response","280","251078","0.0-13.0-0.23","rslDT8rzDI","62db005bae68d37fe24b50da","6617fad957f7c6a12ea16e26","6622ccbf626f3a1e638670ef","fixation cross","null","","","","","","","","","","","",""
"","1063","html-keyboard-response","281","252141","0.0-13.0-1.23","rslDT8rzDI","62db005bae68d37fe24b50da","6617fad957f7c6a12ea16e26","6622ccbf626f3a1e638670ef","image grid"," ","","","","","Phylogenetic_Distractor_notarget","2500","ongrid"," ","2","Phylogenetic","true","experimental"
"","null","html-keyboard-response","282","252301","0.0-13.0-2.23","rslDT8rzDI","62db005bae68d37fe24b50da","6617fad957f7c6a12ea16e26","6622ccbf626f3a1e638670ef","
    <div id=""grid-container"">
        <!-- Grid items will be dynamically added here -->
    </div>    ","null","","","","","","","","","","","",""
"","null","html-keyboard-response","283","253012","0.0-13.0-0.24","rslDT8rzDI","62db005bae68d37fe24b50da","6617fad957f7c6a12ea16e26","6622ccbf626f3a1e638670ef","fixation cross","null","","","","","","","","","","","",""
"","1018","html-keyboard-response","284","254030","0.0-13.0-1.24","rslDT8rzDI","62db005bae68d37fe24b50da","6617fad957f7c6a12ea16e26","6622ccbf626f3a1e638670ef","image grid"," ","","","","","Phylogenetic_Distractor_notarget","2500","ongrid"," ","6","Phylogenetic","true","experimental"
"","null","html-keyboard-response","285","254186","0.0-13.0-2.24","rslDT8rzDI","62db005bae68d37fe24b50da","6617fad957f7c6a12ea16e26","6622ccbf626f3a1e638670ef","
    <div id=""grid-container"">
        <!-- Grid items will be dynamically added here -->
    </div>    ","null","","","","","","","","","","","",""
"","null","html-keyboard-response","286","254898","0.0-13.0-0.25","rslDT8rzDI","62db005bae68d37fe24b50da","6617fad957f7c6a12ea16e26","6622ccbf626f3a1e638670ef","fixation cross","null","","","","","","","","","","","",""
"","619","html-keyboard-response","287","255518","0.0-13.0-1.25","rslDT8rzDI","62db005bae68d37fe24b50da","6617fad957f7c6a12ea16e26","6622ccbf626f3a1e638670ef","image grid","p","","","","","Phylogenetic_Distractor_Nonthreat_target","2500","ongrid","p","2","Phylogenetic","true","experimental"
"","null","html-keyboard-response","288","255671","0.0-13.0-2.25","rslDT8rzDI","62db005bae68d37fe24b50da","6617fad957f7c6a12ea16e26","6622ccbf626f3a1e638670ef","
    <div id=""grid-container"">
        <!-- Grid items will be dynamically added here -->
    </div>    ","null","","","","","","","","","","","",""
"","null","html-keyboard-response","289","256390","0.0-13.0-0.26","rslDT8rzDI","62db005bae68d37fe24b50da","6617fad957f7c6a12ea16e26","6622ccbf626f3a1e638670ef","fixation cross","null","","","","","","","","","","","",""
"","1138","html-keyboard-response","290","257529","0.0-13.0-1.26","rslDT8rzDI","62db005bae68d37fe24b50da","6617fad957f7c6a12ea16e26","6622ccbf626f3a1e638670ef","image grid","p","","","","","Phylogenetic_Distractor_Nonthreat_target","2500","ongrid","p","6","Phylogenetic","true","experimental"
"","null","html-keyboard-response","291","257694","0.0-13.0-2.26","rslDT8rzDI","62db005bae68d37fe24b50da","6617fad957f7c6a12ea16e26","6622ccbf626f3a1e638670ef","
    <div id=""grid-container"">
        <!-- Grid items will be dynamically added here -->
    </div>    ","null","","","","","","","","","","","",""
"","null","html-keyboard-response","292","258410","0.0-13.0-0.27","rslDT8rzDI","62db005bae68d37fe24b50da","6617fad957f7c6a12ea16e26","6622ccbf626f3a1e638670ef","fixation cross","null","","","","","","","","","","","",""
"","721","html-keyboard-response","293","259131","0.0-13.0-1.27","rslDT8rzDI","62db005bae68d37fe24b50da","6617fad957f7c6a12ea16e26","6622ccbf626f3a1e638670ef","image grid","q","","","","","Phylogenetic_Distractor_Threat_target","2500","ongrid","q","4","Phylogenetic","true","experimental"
"","null","html-keyboard-response","294","259288","0.0-13.0-2.27","rslDT8rzDI","62db005bae68d37fe24b50da","6617fad957f7c6a12ea16e26","6622ccbf626f3a1e638670ef","
    <div id=""grid-container"">
        <!-- Grid items will be dynamically added here -->
    </div>    ","null","","","","","","","","","","","",""
"","null","html-keyboard-response","295","260006","0.0-13.0-0.28","rslDT8rzDI","62db005bae68d37fe24b50da","6617fad957f7c6a12ea16e26","6622ccbf626f3a1e638670ef","fixation cross","null","","","","","","","","","","","",""
"","652","html-keyboard-response","296","260659","0.0-13.0-1.28","rslDT8rzDI","62db005bae68d37fe24b50da","6617fad957f7c6a12ea16e26","6622ccbf626f3a1e638670ef","image grid","q","","","","","Phylogenetic_Distractor_Threat_target","2500","ongrid","q","6","Phylogenetic","true","experimental"
"","null","html-keyboard-response","297","260826","0.0-13.0-2.28","rslDT8rzDI","62db005bae68d37fe24b50da","6617fad957f7c6a12ea16e26","6622ccbf626f3a1e638670ef","
    <div id=""grid-container"">
        <!-- Grid items will be dynamically added here -->
    </div>    ","null","","","","","","","","","","","",""
"","null","html-keyboard-response","298","261537","0.0-13.0-0.29","rslDT8rzDI","62db005bae68d37fe24b50da","6617fad957f7c6a12ea16e26","6622ccbf626f3a1e638670ef","fixation cross","null","","","","","","","","","","","",""
"","811","html-keyboard-response","299","262348","0.0-13.0-1.29","rslDT8rzDI","62db005bae68d37fe24b50da","6617fad957f7c6a12ea16e26","6622ccbf626f3a1e638670ef","image grid"," ","","","","","Phylogenetic_Distractor_Nonthreat_target","2500","ongrid","p","8","Phylogenetic","false","experimental"
"","null","html-keyboard-response","300","262500","0.0-13.0-2.29","rslDT8rzDI","62db005bae68d37fe24b50da","6617fad957f7c6a12ea16e26","6622ccbf626f3a1e638670ef","
    <div id=""grid-container"">
        <!-- Grid items will be dynamically added here -->
    </div>    ","null","","","","","","","","","","","",""
"","null","html-keyboard-response","301","263211","0.0-13.0-0.30","rslDT8rzDI","62db005bae68d37fe24b50da","6617fad957f7c6a12ea16e26","6622ccbf626f3a1e638670ef","fixation cross","null","","","","","","","","","","","",""
"","1072","html-keyboard-response","302","264283","0.0-13.0-1.30","rslDT8rzDI","62db005bae68d37fe24b50da","6617fad957f7c6a12ea16e26","6622ccbf626f3a1e638670ef","image grid","q","","","","","Phylogenetic_Distractor_Threat_target","2500","ongrid","q","6","Phylogenetic","true","experimental"
"","null","html-keyboard-response","303","264436","0.0-13.0-2.30","rslDT8rzDI","62db005bae68d37fe24b50da","6617fad957f7c6a12ea16e26","6622ccbf626f3a1e638670ef","
    <div id=""grid-container"">
        <!-- Grid items will be dynamically added here -->
    </div>    ","null","","","","","","","","","","","",""
"","null","html-keyboard-response","304","265145","0.0-13.0-0.31","rslDT8rzDI","62db005bae68d37fe24b50da","6617fad957f7c6a12ea16e26","6622ccbf626f3a1e638670ef","fixation cross","null","","","","","","","","","","","",""
"","731","html-keyboard-response","305","265877","0.0-13.0-1.31","rslDT8rzDI","62db005bae68d37fe24b50da","6617fad957f7c6a12ea16e26","6622ccbf626f3a1e638670ef","image grid","p","","","","","Phylogenetic_Distractor_Nonthreat_target","2500","ongrid","p","6","Phylogenetic","true","experimental"
"","null","html-keyboard-response","306","266038","0.0-13.0-2.31","rslDT8rzDI","62db005bae68d37fe24b50da","6617fad957f7c6a12ea16e26","6622ccbf626f3a1e638670ef","
    <div id=""grid-container"">
        <!-- Grid items will be dynamically added here -->
    </div>    ","null","","","","","","","","","","","",""
"","null","html-keyboard-response","307","266760","0.0-13.0-0.32","rslDT8rzDI","62db005bae68d37fe24b50da","6617fad957f7c6a12ea16e26","6622ccbf626f3a1e638670ef","fixation cross","null","","","","","","","","","","","",""
"","917","html-keyboard-response","308","267677","0.0-13.0-1.32","rslDT8rzDI","62db005bae68d37fe24b50da","6617fad957f7c6a12ea16e26","6622ccbf626f3a1e638670ef","image grid","p","","","","","Phylogenetic_Distractor_Nonthreat_target","2500","ongrid","p","9","Phylogenetic","true","experimental"
"","null","html-keyboard-response","309","267844","0.0-13.0-2.32","rslDT8rzDI","62db005bae68d37fe24b50da","6617fad957f7c6a12ea16e26","6622ccbf626f3a1e638670ef","
    <div id=""grid-container"">
        <!-- Grid items will be dynamically added here -->
    </div>    ","null","","","","","","","","","","","",""
"","null","html-keyboard-response","310","268560","0.0-13.0-0.33","rslDT8rzDI","62db005bae68d37fe24b50da","6617fad957f7c6a12ea16e26","6622ccbf626f3a1e638670ef","fixation cross","null","","","","","","","","","","","",""
"","838","html-keyboard-response","311","269398","0.0-13.0-1.33","rslDT8rzDI","62db005bae68d37fe24b50da","6617fad957f7c6a12ea16e26","6622ccbf626f3a1e638670ef","image grid","p","","","","","Phylogenetic_Distractor_Nonthreat_target","2500","ongrid","p","2","Phylogenetic","true","experimental"
"","null","html-keyboard-response","312","269566","0.0-13.0-2.33","rslDT8rzDI","62db005bae68d37fe24b50da","6617fad957f7c6a12ea16e26","6622ccbf626f3a1e638670ef","
    <div id=""grid-container"">
        <!-- Grid items will be dynamically added here -->
    </div>    ","null","","","","","","","","","","","",""
"","null","html-keyboard-response","313","270295","0.0-13.0-0.34","rslDT8rzDI","62db005bae68d37fe24b50da","6617fad957f7c6a12ea16e26","6622ccbf626f3a1e638670ef","fixation cross","null","","","","","","","","","","","",""
"","634","html-keyboard-response","314","270930","0.0-13.0-1.34","rslDT8rzDI","62db005bae68d37fe24b50da","6617fad957f7c6a12ea16e26","6622ccbf626f3a1e638670ef","image grid","p","","","","","Phylogenetic_Distractor_Nonthreat_target","2500","ongrid","p","5","Phylogenetic","true","experimental"
"","null","html-keyboard-response","315","271086","0.0-13.0-2.34","rslDT8rzDI","62db005bae68d37fe24b50da","6617fad957f7c6a12ea16e26","6622ccbf626f3a1e638670ef","
    <div id=""grid-container"">
        <!-- Grid items will be dynamically added here -->
    </div>    ","null","","","","","","","","","","","",""
"","null","html-keyboard-response","316","271801","0.0-13.0-0.35","rslDT8rzDI","62db005bae68d37fe24b50da","6617fad957f7c6a12ea16e26","6622ccbf626f3a1e638670ef","fixation cross","null","","","","","","","","","","","",""
"","729","html-keyboard-response","317","272531","0.0-13.0-1.35","rslDT8rzDI","62db005bae68d37fe24b50da","6617fad957f7c6a12ea16e26","6622ccbf626f3a1e638670ef","image grid","q","","","","","Phylogenetic_Distractor_Threat_target","2500","ongrid","q","8","Phylogenetic","true","experimental"
"","null","html-keyboard-response","318","272683","0.0-13.0-2.35","rslDT8rzDI","62db005bae68d37fe24b50da","6617fad957f7c6a12ea16e26","6622ccbf626f3a1e638670ef","
    <div id=""grid-container"">
        <!-- Grid items will be dynamically added here -->
    </div>    ","null","","","","","","","","","","","",""
"","null","html-keyboard-response","319","273409","0.0-13.0-0.36","rslDT8rzDI","62db005bae68d37fe24b50da","6617fad957f7c6a12ea16e26","6622ccbf626f3a1e638670ef","fixation cross","null","","","","","","","","","","","",""
"","951","html-keyboard-response","320","274360","0.0-13.0-1.36","rslDT8rzDI","62db005bae68d37fe24b50da","6617fad957f7c6a12ea16e26","6622ccbf626f3a1e638670ef","image grid","p","","","","","Phylogenetic_Distractor_Nonthreat_target","2500","ongrid","p","6","Phylogenetic","true","experimental"
"","null","html-keyboard-response","321","274522","0.0-13.0-2.36","rslDT8rzDI","62db005bae68d37fe24b50da","6617fad957f7c6a12ea16e26","6622ccbf626f3a1e638670ef","
    <div id=""grid-container"">
        <!-- Grid items will be dynamically added here -->
    </div>    ","null","","","","","","","","","","","",""
"","null","html-keyboard-response","322","275233","0.0-13.0-0.37","rslDT8rzDI","62db005bae68d37fe24b50da","6617fad957f7c6a12ea16e26","6622ccbf626f3a1e638670ef","fixation cross","null","","","","","","","","","","","",""
"","914","html-keyboard-response","323","276147","0.0-13.0-1.37","rslDT8rzDI","62db005bae68d37fe24b50da","6617fad957f7c6a12ea16e26","6622ccbf626f3a1e638670ef","image grid","p","","","","","Phylogenetic_Distractor_Nonthreat_target","2500","ongrid","p","2","Phylogenetic","true","experimental"
"","null","html-keyboard-response","324","276314","0.0-13.0-2.37","rslDT8rzDI","62db005bae68d37fe24b50da","6617fad957f7c6a12ea16e26","6622ccbf626f3a1e638670ef","
    <div id=""grid-container"">
        <!-- Grid items will be dynamically added here -->
    </div>    ","null","","","","","","","","","","","",""
"","null","html-keyboard-response","325","277016","0.0-13.0-0.38","rslDT8rzDI","62db005bae68d37fe24b50da","6617fad957f7c6a12ea16e26","6622ccbf626f3a1e638670ef","fixation cross","null","","","","","","","","","","","",""
"","1090","html-keyboard-response","326","278107","0.0-13.0-1.38","rslDT8rzDI","62db005bae68d37fe24b50da","6617fad957f7c6a12ea16e26","6622ccbf626f3a1e638670ef","image grid","p","","","","","Phylogenetic_Distractor_Nonthreat_target","2500","ongrid","p","8","Phylogenetic","true","experimental"
"","null","html-keyboard-response","327","278265","0.0-13.0-2.38","rslDT8rzDI","62db005bae68d37fe24b50da","6617fad957f7c6a12ea16e26","6622ccbf626f3a1e638670ef","
    <div id=""grid-container"">
        <!-- Grid items will be dynamically added here -->
    </div>    ","null","","","","","","","","","","","",""
"","null","html-keyboard-response","328","278987","0.0-13.0-0.39","rslDT8rzDI","62db005bae68d37fe24b50da","6617fad957f7c6a12ea16e26","6622ccbf626f3a1e638670ef","fixation cross","null","","","","","","","","","","","",""
"","792","html-keyboard-response","329","279779","0.0-13.0-1.39","rslDT8rzDI","62db005bae68d37fe24b50da","6617fad957f7c6a12ea16e26","6622ccbf626f3a1e638670ef","image grid","p","","","","","Phylogenetic_Distractor_Nonthreat_target","2500","ongrid","p","3","Phylogenetic","true","experimental"
"","null","html-keyboard-response","330","279945","0.0-13.0-2.39","rslDT8rzDI","62db005bae68d37fe24b50da","6617fad957f7c6a12ea16e26","6622ccbf626f3a1e638670ef","
    <div id=""grid-container"">
        <!-- Grid items will be dynamically added here -->
    </div>    ","null","","","","","","","","","","","",""
"","12803","html-keyboard-response","331","292953","0.0-14.0","rslDT8rzDI","62db005bae68d37fe24b50da","6617fad957f7c6a12ea16e26","6622ccbf626f3a1e638670ef","break screen"," ","","","","","","","","","","","",""
"","null","html-keyboard-response","332","295470","0.0-15.0-0.0","rslDT8rzDI","62db005bae68d37fe24b50da","6617fad957f7c6a12ea16e26","6622ccbf626f3a1e638670ef","fixation cross","null","","","","","","","","","","","",""
"","null","html-keyboard-response","333","296284","0.0-15.0-1.0","rslDT8rzDI","62db005bae68d37fe24b50da","6617fad957f7c6a12ea16e26","6622ccbf626f3a1e638670ef","
        <div id=""grid-container"">
        <!-- Grid items will be dynamically added here -->
    </div>    ","null","","","","","","","","","","","",""
"","870","html-keyboard-response","334","296354","0.0-15.0-2.0","rslDT8rzDI","62db005bae68d37fe24b50da","6617fad957f7c6a12ea16e26","6622ccbf626f3a1e638670ef","mask grid","q","","","","","Phylogenetic_Distractor_Threat_target","800","onmask","q","2","Phylogenetic","true","experimental"
"","null","html-keyboard-response","335","297073","0.0-15.0-0.1","rslDT8rzDI","62db005bae68d37fe24b50da","6617fad957f7c6a12ea16e26","6622ccbf626f3a1e638670ef","fixation cross","null","","","","","","","","","","","",""
"","617","html-keyboard-response","336","297690","0.0-15.0-1.1","rslDT8rzDI","62db005bae68d37fe24b50da","6617fad957f7c6a12ea16e26","6622ccbf626f3a1e638670ef","image grid","p","","","","","Phylogenetic_Distractor_Nonthreat_target","800","ongrid","p","6","Phylogenetic","true","experimental"
"","null","html-keyboard-response","337","297846","0.0-15.0-2.1","rslDT8rzDI","62db005bae68d37fe24b50da","6617fad957f7c6a12ea16e26","6622ccbf626f3a1e638670ef","
    <div id=""grid-container"">
        <!-- Grid items will be dynamically added here -->
    </div>    ","null","","","","","","","","","","","",""
"","null","html-keyboard-response","338","298558","0.0-15.0-0.2","rslDT8rzDI","62db005bae68d37fe24b50da","6617fad957f7c6a12ea16e26","6622ccbf626f3a1e638670ef","fixation cross","null","","","","","","","","","","","",""
"","618","html-keyboard-response","339","299177","0.0-15.0-1.2","rslDT8rzDI","62db005bae68d37fe24b50da","6617fad957f7c6a12ea16e26","6622ccbf626f3a1e638670ef","image grid","p","","","","","Phylogenetic_Distractor_Nonthreat_target","800","ongrid","p","4","Phylogenetic","true","experimental"
"","null","html-keyboard-response","340","299343","0.0-15.0-2.2","rslDT8rzDI","62db005bae68d37fe24b50da","6617fad957f7c6a12ea16e26","6622ccbf626f3a1e638670ef","
    <div id=""grid-container"">
        <!-- Grid items will be dynamically added here -->
    </div>    ","null","","","","","","","","","","","",""
"","null","html-keyboard-response","341","300057","0.0-15.0-0.3","rslDT8rzDI","62db005bae68d37fe24b50da","6617fad957f7c6a12ea16e26","6622ccbf626f3a1e638670ef","fixation cross","null","","","","","","","","","","","",""
"","555","html-keyboard-response","342","300613","0.0-15.0-1.3","rslDT8rzDI","62db005bae68d37fe24b50da","6617fad957f7c6a12ea16e26","6622ccbf626f3a1e638670ef","image grid","q","","","","","Phylogenetic_Distractor_Threat_target","800","ongrid","q","5","Phylogenetic","true","experimental"
"","null","html-keyboard-response","343","300768","0.0-15.0-2.3","rslDT8rzDI","62db005bae68d37fe24b50da","6617fad957f7c6a12ea16e26","6622ccbf626f3a1e638670ef","
    <div id=""grid-container"">
        <!-- Grid items will be dynamically added here -->
    </div>    ","null","","","","","","","","","","","",""
"","null","html-keyboard-response","344","301488","0.0-15.0-0.4","rslDT8rzDI","62db005bae68d37fe24b50da","6617fad957f7c6a12ea16e26","6622ccbf626f3a1e638670ef","fixation cross","null","","","","","","","","","","","",""
"","700","html-keyboard-response","345","302189","0.0-15.0-1.4","rslDT8rzDI","62db005bae68d37fe24b50da","6617fad957f7c6a12ea16e26","6622ccbf626f3a1e638670ef","image grid","p","","","","","Phylogenetic_Distractor_Nonthreat_target","800","ongrid","p","6","Phylogenetic","true","experimental"
"","null","html-keyboard-response","346","302341","0.0-15.0-2.4","rslDT8rzDI","62db005bae68d37fe24b50da","6617fad957f7c6a12ea16e26","6622ccbf626f3a1e638670ef","
    <div id=""grid-container"">
        <!-- Grid items will be dynamically added here -->
    </div>    ","null","","","","","","","","","","","",""
"","null","html-keyboard-response","347","303054","0.0-15.0-0.5","rslDT8rzDI","62db005bae68d37fe24b50da","6617fad957f7c6a12ea16e26","6622ccbf626f3a1e638670ef","fixation cross","null","","","","","","","","","","","",""
"","641","html-keyboard-response","348","303695","0.0-15.0-1.5","rslDT8rzDI","62db005bae68d37fe24b50da","6617fad957f7c6a12ea16e26","6622ccbf626f3a1e638670ef","image grid","q","","","","","Phylogenetic_Distractor_Threat_target","800","ongrid","q","5","Phylogenetic","true","experimental"
"","null","html-keyboard-response","349","303859","0.0-15.0-2.5","rslDT8rzDI","62db005bae68d37fe24b50da","6617fad957f7c6a12ea16e26","6622ccbf626f3a1e638670ef","
    <div id=""grid-container"">
        <!-- Grid items will be dynamically added here -->
    </div>    ","null","","","","","","","","","","","",""
"","null","html-keyboard-response","350","304569","0.0-15.0-0.6","rslDT8rzDI","62db005bae68d37fe24b50da","6617fad957f7c6a12ea16e26","6622ccbf626f3a1e638670ef","fixation cross","null","","","","","","","","","","","",""
"","660","html-keyboard-response","351","305229","0.0-15.0-1.6","rslDT8rzDI","62db005bae68d37fe24b50da","6617fad957f7c6a12ea16e26","6622ccbf626f3a1e638670ef","image grid","p","","","","","Phylogenetic_Distractor_Nonthreat_target","800","ongrid","p","2","Phylogenetic","true","experimental"
"","null","html-keyboard-response","352","305381","0.0-15.0-2.6","rslDT8rzDI","62db005bae68d37fe24b50da","6617fad957f7c6a12ea16e26","6622ccbf626f3a1e638670ef","
    <div id=""grid-container"">
        <!-- Grid items will be dynamically added here -->
    </div>    ","null","","","","","","","","","","","",""
"","null","html-keyboard-response","353","306105","0.0-15.0-0.7","rslDT8rzDI","62db005bae68d37fe24b50da","6617fad957f7c6a12ea16e26","6622ccbf626f3a1e638670ef","fixation cross","null","","","","","","","","","","","",""
"","502","html-keyboard-response","354","306608","0.0-15.0-1.7","rslDT8rzDI","62db005bae68d37fe24b50da","6617fad957f7c6a12ea16e26","6622ccbf626f3a1e638670ef","image grid","q","","","","","Phylogenetic_Distractor_Threat_target","800","ongrid","q","5","Phylogenetic","true","experimental"
"","null","html-keyboard-response","355","306766","0.0-15.0-2.7","rslDT8rzDI","62db005bae68d37fe24b50da","6617fad957f7c6a12ea16e26","6622ccbf626f3a1e638670ef","
    <div id=""grid-container"">
        <!-- Grid items will be dynamically added here -->
    </div>    ","null","","","","","","","","","","","",""
"","null","html-keyboard-response","356","307493","0.0-15.0-0.8","rslDT8rzDI","62db005bae68d37fe24b50da","6617fad957f7c6a12ea16e26","6622ccbf626f3a1e638670ef","fixation cross","null","","","","","","","","","","","",""
"","534","html-keyboard-response","357","308028","0.0-15.0-1.8","rslDT8rzDI","62db005bae68d37fe24b50da","6617fad957f7c6a12ea16e26","6622ccbf626f3a1e638670ef","image grid","p","","","","","Phylogenetic_Distractor_Nonthreat_target","800","ongrid","p","2","Phylogenetic","true","experimental"
"","null","html-keyboard-response","358","308191","0.0-15.0-2.8","rslDT8rzDI","62db005bae68d37fe24b50da","6617fad957f7c6a12ea16e26","6622ccbf626f3a1e638670ef","
    <div id=""grid-container"">
        <!-- Grid items will be dynamically added here -->
    </div>    ","null","","","","","","","","","","","",""
"","null","html-keyboard-response","359","308905","0.0-15.0-0.9","rslDT8rzDI","62db005bae68d37fe24b50da","6617fad957f7c6a12ea16e26","6622ccbf626f3a1e638670ef","fixation cross","null","","","","","","","","","","","",""
"","787","html-keyboard-response","360","309693","0.0-15.0-1.9","rslDT8rzDI","62db005bae68d37fe24b50da","6617fad957f7c6a12ea16e26","6622ccbf626f3a1e638670ef","image grid","p","","","","","Phylogenetic_Distractor_Nonthreat_target","800","ongrid","p","1","Phylogenetic","true","experimental"
"","null","html-keyboard-response","361","309846","0.0-15.0-2.9","rslDT8rzDI","62db005bae68d37fe24b50da","6617fad957f7c6a12ea16e26","6622ccbf626f3a1e638670ef","
    <div id=""grid-container"">
        <!-- Grid items will be dynamically added here -->
    </div>    ","null","","","","","","","","","","","",""
"","null","html-keyboard-response","362","310570","0.0-15.0-0.10","rslDT8rzDI","62db005bae68d37fe24b50da","6617fad957f7c6a12ea16e26","6622ccbf626f3a1e638670ef","fixation cross","null","","","","","","","","","","","",""
"","639","html-keyboard-response","363","311209","0.0-15.0-1.10","rslDT8rzDI","62db005bae68d37fe24b50da","6617fad957f7c6a12ea16e26","6622ccbf626f3a1e638670ef","image grid","p","","","","","Phylogenetic_Distractor_Nonthreat_target","800","ongrid","p","5","Phylogenetic","true","experimental"
"","null","html-keyboard-response","364","311363","0.0-15.0-2.10","rslDT8rzDI","62db005bae68d37fe24b50da","6617fad957f7c6a12ea16e26","6622ccbf626f3a1e638670ef","
    <div id=""grid-container"">
        <!-- Grid items will be dynamically added here -->
    </div>    ","null","","","","","","","","","","","",""
"","null","html-keyboard-response","365","312079","0.0-15.0-0.11","rslDT8rzDI","62db005bae68d37fe24b50da","6617fad957f7c6a12ea16e26","6622ccbf626f3a1e638670ef","fixation cross","null","","","","","","","","","","","",""
"","null","html-keyboard-response","366","312882","0.0-15.0-1.11","rslDT8rzDI","62db005bae68d37fe24b50da","6617fad957f7c6a12ea16e26","6622ccbf626f3a1e638670ef","
        <div id=""grid-container"">
        <!-- Grid items will be dynamically added here -->
    </div>    ","null","","","","","","","","","","","",""
"","2031","html-keyboard-response","367","314113","0.0-15.0-2.11","rslDT8rzDI","62db005bae68d37fe24b50da","6617fad957f7c6a12ea16e26","6622ccbf626f3a1e638670ef","mask grid","p","","","","","Phylogenetic_Distractor_Nonthreat_target","800","onmask","p","2","Phylogenetic","true","experimental"
"","null","html-keyboard-response","368","314832","0.0-15.0-0.12","rslDT8rzDI","62db005bae68d37fe24b50da","6617fad957f7c6a12ea16e26","6622ccbf626f3a1e638670ef","fixation cross","null","","","","","","","","","","","",""
"","567","html-keyboard-response","369","315399","0.0-15.0-1.12","rslDT8rzDI","62db005bae68d37fe24b50da","6617fad957f7c6a12ea16e26","6622ccbf626f3a1e638670ef","image grid","q","","","","","Phylogenetic_Distractor_Threat_target","800","ongrid","q","2","Phylogenetic","true","experimental"
"","null","html-keyboard-response","370","315558","0.0-15.0-2.12","rslDT8rzDI","62db005bae68d37fe24b50da","6617fad957f7c6a12ea16e26","6622ccbf626f3a1e638670ef","
    <div id=""grid-container"">
        <!-- Grid items will be dynamically added here -->
