"success","rt","trial_type","trial_index","time_elapsed","internal_node_id","unique_identifier","subject_id","study_id","session_id","stimulus","response","timeout","failed_images","failed_audio","failed_video","task","time_manipulation","respondedwhen","correctresponse","targetimagelocation","blocktype","correct","roundtype"
"true","40789","fullscreen","0","41791","0.0-0.0","ITJEZmmnmw","5ae3223938df950001455e66","6617fad957f7c6a12ea16e26","6622cebbc253f2e616097071","","","","","","","","","","","","","",""
"","9943","html-keyboard-response","1","51736","0.0-1.0","ITJEZmmnmw","5ae3223938df950001455e66","6617fad957f7c6a12ea16e26","6622cebbc253f2e616097071","instruction screen 0"," ","","","","","","","","","","","",""
"true","","preload","2","52840","0.0-2.0","ITJEZmmnmw","5ae3223938df950001455e66","6617fad957f7c6a12ea16e26","6622cebbc253f2e616097071","","","false","[]","[]","[]","","","","","","","",""
"","9479","html-keyboard-response","3","62320","0.0-3.0","ITJEZmmnmw","5ae3223938df950001455e66","6617fad957f7c6a12ea16e26","6622cebbc253f2e616097071","instruction screen 1"," ","","","","","","","","","","","",""
"","9056","html-keyboard-response","4","71400","0.0-4.0","ITJEZmmnmw","5ae3223938df950001455e66","6617fad957f7c6a12ea16e26","6622cebbc253f2e616097071","instruction screen 2","q","","","","","","","","","","","",""
"","7925","html-keyboard-response","5","79351","0.0-5.0","ITJEZmmnmw","5ae3223938df950001455e66","6617fad957f7c6a12ea16e26","6622cebbc253f2e616097071","instruction screen 3","p","","","","","","","","","","","",""
"","7360","html-keyboard-response","6","86735","0.0-6.0","ITJEZmmnmw","5ae3223938df950001455e66","6617fad957f7c6a12ea16e26","6622cebbc253f2e616097071","instruction screen 4"," ","","","","","","","","","","","",""
"","7094","html-keyboard-response","7","93855","0.0-7.0","ITJEZmmnmw","5ae3223938df950001455e66","6617fad957f7c6a12ea16e26","6622cebbc253f2e616097071","instruction screen 5"," ","","","","","","","","","","","",""
"","null","html-keyboard-response","8","94391","0.0-8.0","ITJEZmmnmw","5ae3223938df950001455e66","6617fad957f7c6a12ea16e26","6622cebbc253f2e616097071","fixation cross","null","","","","","","","","","","","",""
"","null","html-keyboard-response","9","94906","0.0-9.0-0.0","ITJEZmmnmw","5ae3223938df950001455e66","6617fad957f7c6a12ea16e26","6622cebbc253f2e616097071","fixation cross","null","","","","","","","","","","","",""
"","2397","html-keyboard-response","10","97303","0.0-9.0-1.0","ITJEZmmnmw","5ae3223938df950001455e66","6617fad957f7c6a12ea16e26","6622cebbc253f2e616097071","image grid"," ","","","","","Phylogenetic_Distractor_notarget","3000","ongrid"," ","6","Phylogenetic","true","practice"
"","null","html-keyboard-response","11","97464","0.0-9.0-2.0","ITJEZmmnmw","5ae3223938df950001455e66","6617fad957f7c6a12ea16e26","6622cebbc253f2e616097071","
    <div id=""grid-container"">
        <!-- Grid items will be dynamically added here -->
    </div>    ","null","","","","","","","","","","","",""
"","null","html-keyboard-response","12","98677","0.0-9.0-3.0","ITJEZmmnmw","5ae3223938df950001455e66","6617fad957f7c6a12ea16e26","6622cebbc253f2e616097071","feedback screen","null","","","","","","","","","","","",""
"","null","html-keyboard-response","13","99189","0.0-9.0-0.1","ITJEZmmnmw","5ae3223938df950001455e66","6617fad957f7c6a12ea16e26","6622cebbc253f2e616097071","fixation cross","null","","","","","","","","","","","",""
"","1857","html-keyboard-response","14","101047","0.0-9.0-1.1","ITJEZmmnmw","5ae3223938df950001455e66","6617fad957f7c6a12ea16e26","6622cebbc253f2e616097071","image grid"," ","","","","","Phylogenetic_Distractor_Nonthreat_target","2900","ongrid","p","3","Phylogenetic","false","practice"
"","null","html-keyboard-response","15","101199","0.0-9.0-2.1","ITJEZmmnmw","5ae3223938df950001455e66","6617fad957f7c6a12ea16e26","6622cebbc253f2e616097071","
    <div id=""grid-container"">
        <!-- Grid items will be dynamically added here -->
    </div>    ","null","","","","","","","","","","","",""
"","null","html-keyboard-response","16","102423","0.0-9.0-3.1","ITJEZmmnmw","5ae3223938df950001455e66","6617fad957f7c6a12ea16e26","6622cebbc253f2e616097071","feedback screen","null","","","","","","","","","","","",""
"","null","html-keyboard-response","17","102939","0.0-9.0-0.2","ITJEZmmnmw","5ae3223938df950001455e66","6617fad957f7c6a12ea16e26","6622cebbc253f2e616097071","fixation cross","null","","","","","","","","","","","",""
"","2091","html-keyboard-response","18","105022","0.0-9.0-1.2","ITJEZmmnmw","5ae3223938df950001455e66","6617fad957f7c6a12ea16e26","6622cebbc253f2e616097071","image grid"," ","","","","","Ontogenetic_Distractor_notarget","2800","ongrid"," ","4","Phylogenetic","true","practice"
"","null","html-keyboard-response","19","105174","0.0-9.0-2.2","ITJEZmmnmw","5ae3223938df950001455e66","6617fad957f7c6a12ea16e26","6622cebbc253f2e616097071","
    <div id=""grid-container"">
        <!-- Grid items will be dynamically added here -->
    </div>    ","null","","","","","","","","","","","",""
"","null","html-keyboard-response","20","106397","0.0-9.0-3.2","ITJEZmmnmw","5ae3223938df950001455e66","6617fad957f7c6a12ea16e26","6622cebbc253f2e616097071","feedback screen","null","","","","","","","","","","","",""
"","null","html-keyboard-response","21","106914","0.0-9.0-0.3","ITJEZmmnmw","5ae3223938df950001455e66","6617fad957f7c6a12ea16e26","6622cebbc253f2e616097071","fixation cross","null","","","","","","","","","","","",""
"","2124","html-keyboard-response","22","109038","0.0-9.0-1.3","ITJEZmmnmw","5ae3223938df950001455e66","6617fad957f7c6a12ea16e26","6622cebbc253f2e616097071","image grid","p","","","","","Ontogenetic_Distractor_Nonthreat_target","2700","ongrid","p","9","Phylogenetic","true","practice"
"","null","html-keyboard-response","23","109190","0.0-9.0-2.3","ITJEZmmnmw","5ae3223938df950001455e66","6617fad957f7c6a12ea16e26","6622cebbc253f2e616097071","
    <div id=""grid-container"">
        <!-- Grid items will be dynamically added here -->
    </div>    ","null","","","","","","","","","","","",""
"","null","html-keyboard-response","24","110414","0.0-9.0-3.3","ITJEZmmnmw","5ae3223938df950001455e66","6617fad957f7c6a12ea16e26","6622cebbc253f2e616097071","feedback screen","null","","","","","","","","","","","",""
"","null","html-keyboard-response","25","110931","0.0-9.0-0.4","ITJEZmmnmw","5ae3223938df950001455e66","6617fad957f7c6a12ea16e26","6622cebbc253f2e616097071","fixation cross","null","","","","","","","","","","","",""
"","1691","html-keyboard-response","26","112622","0.0-9.0-1.4","ITJEZmmnmw","5ae3223938df950001455e66","6617fad957f7c6a12ea16e26","6622cebbc253f2e616097071","image grid","p","","","","","Phylogenetic_Distractor_Nonthreat_target","2600","ongrid","p","3","Phylogenetic","true","practice"
"","null","html-keyboard-response","27","112774","0.0-9.0-2.4","ITJEZmmnmw","5ae3223938df950001455e66","6617fad957f7c6a12ea16e26","6622cebbc253f2e616097071","
    <div id=""grid-container"">
        <!-- Grid items will be dynamically added here -->
    </div>    ","null","","","","","","","","","","","",""
"","null","html-keyboard-response","28","113998","0.0-9.0-3.4","ITJEZmmnmw","5ae3223938df950001455e66","6617fad957f7c6a12ea16e26","6622cebbc253f2e616097071","feedback screen","null","","","","","","","","","","","",""
"","null","html-keyboard-response","29","114514","0.0-9.0-0.5","ITJEZmmnmw","5ae3223938df950001455e66","6617fad957f7c6a12ea16e26","6622cebbc253f2e616097071","fixation cross","null","","","","","","","","","","","",""
"","1723","html-keyboard-response","30","116238","0.0-9.0-1.5","ITJEZmmnmw","5ae3223938df950001455e66","6617fad957f7c6a12ea16e26","6622cebbc253f2e616097071","image grid","q","","","","","Ontogenetic_Distractor_Threat_target","2500","ongrid","q","6","Phylogenetic","true","practice"
"","null","html-keyboard-response","31","116391","0.0-9.0-2.5","ITJEZmmnmw","5ae3223938df950001455e66","6617fad957f7c6a12ea16e26","6622cebbc253f2e616097071","
    <div id=""grid-container"">
        <!-- Grid items will be dynamically added here -->
    </div>    ","null","","","","","","","","","","","",""
"","null","html-keyboard-response","32","117614","0.0-9.0-3.5","ITJEZmmnmw","5ae3223938df950001455e66","6617fad957f7c6a12ea16e26","6622cebbc253f2e616097071","feedback screen","null","","","","","","","","","","","",""
"","null","html-keyboard-response","33","118131","0.0-9.0-0.6","ITJEZmmnmw","5ae3223938df950001455e66","6617fad957f7c6a12ea16e26","6622cebbc253f2e616097071","fixation cross","null","","","","","","","","","","","",""
"","1042","html-keyboard-response","34","119174","0.0-9.0-1.6","ITJEZmmnmw","5ae3223938df950001455e66","6617fad957f7c6a12ea16e26","6622cebbc253f2e616097071","image grid","q","","","","","Ontogenetic_Distractor_Threat_target","2400","ongrid","q","6","Phylogenetic","true","practice"
"","null","html-keyboard-response","35","119325","0.0-9.0-2.6","ITJEZmmnmw","5ae3223938df950001455e66","6617fad957f7c6a12ea16e26","6622cebbc253f2e616097071","
    <div id=""grid-container"">
        <!-- Grid items will be dynamically added here -->
    </div>    ","null","","","","","","","","","","","",""
"","null","html-keyboard-response","36","120548","0.0-9.0-3.6","ITJEZmmnmw","5ae3223938df950001455e66","6617fad957f7c6a12ea16e26","6622cebbc253f2e616097071","feedback screen","null","","","","","","","","","","","",""
"","null","html-keyboard-response","37","121065","0.0-9.0-0.7","ITJEZmmnmw","5ae3223938df950001455e66","6617fad957f7c6a12ea16e26","6622cebbc253f2e616097071","fixation cross","null","","","","","","","","","","","",""
"","1925","html-keyboard-response","38","122990","0.0-9.0-1.7","ITJEZmmnmw","5ae3223938df950001455e66","6617fad957f7c6a12ea16e26","6622cebbc253f2e616097071","image grid","q","","","","","Phylogenetic_Distractor_Threat_target","2300","ongrid","q","7","Phylogenetic","true","practice"
"","null","html-keyboard-response","39","123141","0.0-9.0-2.7","ITJEZmmnmw","5ae3223938df950001455e66","6617fad957f7c6a12ea16e26","6622cebbc253f2e616097071","
    <div id=""grid-container"">
        <!-- Grid items will be dynamically added here -->
    </div>    ","null","","","","","","","","","","","",""
"","null","html-keyboard-response","40","124365","0.0-9.0-3.7","ITJEZmmnmw","5ae3223938df950001455e66","6617fad957f7c6a12ea16e26","6622cebbc253f2e616097071","feedback screen","null","","","","","","","","","","","",""
"","null","html-keyboard-response","41","124881","0.0-9.0-0.8","ITJEZmmnmw","5ae3223938df950001455e66","6617fad957f7c6a12ea16e26","6622cebbc253f2e616097071","fixation cross","null","","","","","","","","","","","",""
"","1116","html-keyboard-response","42","125998","0.0-9.0-1.8","ITJEZmmnmw","5ae3223938df950001455e66","6617fad957f7c6a12ea16e26","6622cebbc253f2e616097071","image grid"," ","","","","","Ontogenetic_Distractor_Nonthreat_target","2200","ongrid","p","4","Phylogenetic","false","practice"
"","null","html-keyboard-response","43","126157","0.0-9.0-2.8","ITJEZmmnmw","5ae3223938df950001455e66","6617fad957f7c6a12ea16e26","6622cebbc253f2e616097071","
    <div id=""grid-container"">
        <!-- Grid items will be dynamically added here -->
    </div>    ","null","","","","","","","","","","","",""
"","null","html-keyboard-response","44","127382","0.0-9.0-3.8","ITJEZmmnmw","5ae3223938df950001455e66","6617fad957f7c6a12ea16e26","6622cebbc253f2e616097071","feedback screen","null","","","","","","","","","","","",""
"","null","html-keyboard-response","45","127898","0.0-9.0-0.9","ITJEZmmnmw","5ae3223938df950001455e66","6617fad957f7c6a12ea16e26","6622cebbc253f2e616097071","fixation cross","null","","","","","","","","","","","",""
"","1891","html-keyboard-response","46","129790","0.0-9.0-1.9","ITJEZmmnmw","5ae3223938df950001455e66","6617fad957f7c6a12ea16e26","6622cebbc253f2e616097071","image grid","p","","","","","Phylogenetic_Distractor_Nonthreat_target","2100","ongrid","p","1","Phylogenetic","true","practice"
"","null","html-keyboard-response","47","129943","0.0-9.0-2.9","ITJEZmmnmw","5ae3223938df950001455e66","6617fad957f7c6a12ea16e26","6622cebbc253f2e616097071","
    <div id=""grid-container"">
        <!-- Grid items will be dynamically added here -->
    </div>    ","null","","","","","","","","","","","",""
"","null","html-keyboard-response","48","131165","0.0-9.0-3.9","ITJEZmmnmw","5ae3223938df950001455e66","6617fad957f7c6a12ea16e26","6622cebbc253f2e616097071","feedback screen","null","","","","","","","","","","","",""
"","null","html-keyboard-response","49","131682","0.0-9.0-0.10","ITJEZmmnmw","5ae3223938df950001455e66","6617fad957f7c6a12ea16e26","6622cebbc253f2e616097071","fixation cross","null","","","","","","","","","","","",""
"","1947","html-keyboard-response","50","133630","0.0-9.0-1.10","ITJEZmmnmw","5ae3223938df950001455e66","6617fad957f7c6a12ea16e26","6622cebbc253f2e616097071","image grid"," ","","","","","Phylogenetic_Distractor_notarget","2000","ongrid"," ","2","Phylogenetic","true","practice"
"","null","html-keyboard-response","51","133791","0.0-9.0-2.10","ITJEZmmnmw","5ae3223938df950001455e66","6617fad957f7c6a12ea16e26","6622cebbc253f2e616097071","
    <div id=""grid-container"">
        <!-- Grid items will be dynamically added here -->
    </div>    ","null","","","","","","","","","","","",""
"","null","html-keyboard-response","52","135015","0.0-9.0-3.10","ITJEZmmnmw","5ae3223938df950001455e66","6617fad957f7c6a12ea16e26","6622cebbc253f2e616097071","feedback screen","null","","","","","","","","","","","",""
"","null","html-keyboard-response","53","135532","0.0-9.0-0.11","ITJEZmmnmw","5ae3223938df950001455e66","6617fad957f7c6a12ea16e26","6622cebbc253f2e616097071","fixation cross","null","","","","","","","","","","","",""
"","null","html-keyboard-response","54","137446","0.0-9.0-1.11","ITJEZmmnmw","5ae3223938df950001455e66","6617fad957f7c6a12ea16e26","6622cebbc253f2e616097071","
        <div id=""grid-container"">
        <!-- Grid items will be dynamically added here -->
    </div>    ","null","","","","","","","","","","","",""
"","2268","html-keyboard-response","55","137814","0.0-9.0-2.11","ITJEZmmnmw","5ae3223938df950001455e66","6617fad957f7c6a12ea16e26","6622cebbc253f2e616097071","mask grid","p","","","","","Phylogenetic_Distractor_Nonthreat_target","1900","onmask","p","3","Phylogenetic","true","practice"
"","null","html-keyboard-response","56","139032","0.0-9.0-3.11","ITJEZmmnmw","5ae3223938df950001455e66","6617fad957f7c6a12ea16e26","6622cebbc253f2e616097071","feedback screen","null","","","","","","","","","","","",""
"","null","html-keyboard-response","57","139549","0.0-9.0-0.12","ITJEZmmnmw","5ae3223938df950001455e66","6617fad957f7c6a12ea16e26","6622cebbc253f2e616097071","fixation cross","null","","","","","","","","","","","",""
"","null","html-keyboard-response","58","141364","0.0-9.0-1.12","ITJEZmmnmw","5ae3223938df950001455e66","6617fad957f7c6a12ea16e26","6622cebbc253f2e616097071","
        <div id=""grid-container"">
        <!-- Grid items will be dynamically added here -->
    </div>    ","null","","","","","","","","","","","",""
"","5609","html-keyboard-response","59","145174","0.0-9.0-2.12","ITJEZmmnmw","5ae3223938df950001455e66","6617fad957f7c6a12ea16e26","6622cebbc253f2e616097071","mask grid","q","","","","","Phylogenetic_Distractor_Threat_target","1800","onmask","q","2","Phylogenetic","true","practice"
"","null","html-keyboard-response","60","146400","0.0-9.0-3.12","ITJEZmmnmw","5ae3223938df950001455e66","6617fad957f7c6a12ea16e26","6622cebbc253f2e616097071","feedback screen","null","","","","","","","","","","","",""
"","null","html-keyboard-response","61","146916","0.0-9.0-0.13","ITJEZmmnmw","5ae3223938df950001455e66","6617fad957f7c6a12ea16e26","6622cebbc253f2e616097071","fixation cross","null","","","","","","","","","","","",""
"","1657","html-keyboard-response","62","148573","0.0-9.0-1.13","ITJEZmmnmw","5ae3223938df950001455e66","6617fad957f7c6a12ea16e26","6622cebbc253f2e616097071","image grid"," ","","","","","Ontogenetic_Distractor_notarget","1700","ongrid"," ","6","Phylogenetic","true","practice"
"","null","html-keyboard-response","63","148726","0.0-9.0-2.13","ITJEZmmnmw","5ae3223938df950001455e66","6617fad957f7c6a12ea16e26","6622cebbc253f2e616097071","
    <div id=""grid-container"">
        <!-- Grid items will be dynamically added here -->
    </div>    ","null","","","","","","","","","","","",""
"","null","html-keyboard-response","64","149950","0.0-9.0-3.13","ITJEZmmnmw","5ae3223938df950001455e66","6617fad957f7c6a12ea16e26","6622cebbc253f2e616097071","feedback screen","null","","","","","","","","","","","",""
"","null","html-keyboard-response","65","150467","0.0-9.0-0.14","ITJEZmmnmw","5ae3223938df950001455e66","6617fad957f7c6a12ea16e26","6622cebbc253f2e616097071","fixation cross","null","","","","","","","","","","","",""
"","null","html-keyboard-response","66","152080","0.0-9.0-1.14","ITJEZmmnmw","5ae3223938df950001455e66","6617fad957f7c6a12ea16e26","6622cebbc253f2e616097071","
        <div id=""grid-container"">
        <!-- Grid items will be dynamically added here -->
    </div>    ","null","","","","","","","","","","","",""
"","1829","html-keyboard-response","67","152309","0.0-9.0-2.14","ITJEZmmnmw","5ae3223938df950001455e66","6617fad957f7c6a12ea16e26","6622cebbc253f2e616097071","mask grid","q","","","","","Phylogenetic_Distractor_Threat_target","1600","onmask","q","7","Phylogenetic","true","practice"
"","null","html-keyboard-response","68","153533","0.0-9.0-3.14","ITJEZmmnmw","5ae3223938df950001455e66","6617fad957f7c6a12ea16e26","6622cebbc253f2e616097071","feedback screen","null","","","","","","","","","","","",""
"","null","html-keyboard-response","69","154050","0.0-9.0-0.15","ITJEZmmnmw","5ae3223938df950001455e66","6617fad957f7c6a12ea16e26","6622cebbc253f2e616097071","fixation cross","null","","","","","","","","","","","",""
"","787","html-keyboard-response","70","154837","0.0-9.0-1.15","ITJEZmmnmw","5ae3223938df950001455e66","6617fad957f7c6a12ea16e26","6622cebbc253f2e616097071","image grid","q","","","","","Phylogenetic_Distractor_Threat_target","1500","ongrid","q","5","Phylogenetic","true","practice"
"","null","html-keyboard-response","71","154993","0.0-9.0-2.15","ITJEZmmnmw","5ae3223938df950001455e66","6617fad957f7c6a12ea16e26","6622cebbc253f2e616097071","
    <div id=""grid-container"">
        <!-- Grid items will be dynamically added here -->
    </div>    ","null","","","","","","","","","","","",""
"","null","html-keyboard-response","72","156217","0.0-9.0-3.15","ITJEZmmnmw","5ae3223938df950001455e66","6617fad957f7c6a12ea16e26","6622cebbc253f2e616097071","feedback screen","null","","","","","","","","","","","",""
"","null","html-keyboard-response","73","156734","0.0-9.0-0.16","ITJEZmmnmw","5ae3223938df950001455e66","6617fad957f7c6a12ea16e26","6622cebbc253f2e616097071","fixation cross","null","","","","","","","","","","","",""
"","1079","html-keyboard-response","74","157813","0.0-9.0-1.16","ITJEZmmnmw","5ae3223938df950001455e66","6617fad957f7c6a12ea16e26","6622cebbc253f2e616097071","image grid","q","","","","","Ontogenetic_Distractor_Threat_target","1400","ongrid","q","9","Phylogenetic","true","practice"
"","null","html-keyboard-response","75","157965","0.0-9.0-2.16","ITJEZmmnmw","5ae3223938df950001455e66","6617fad957f7c6a12ea16e26","6622cebbc253f2e616097071","
    <div id=""grid-container"">
        <!-- Grid items will be dynamically added here -->
    </div>    ","null","","","","","","","","","","","",""
"","null","html-keyboard-response","76","159184","0.0-9.0-3.16","ITJEZmmnmw","5ae3223938df950001455e66","6617fad957f7c6a12ea16e26","6622cebbc253f2e616097071","feedback screen","null","","","","","","","","","","","",""
"","null","html-keyboard-response","77","159701","0.0-9.0-0.17","ITJEZmmnmw","5ae3223938df950001455e66","6617fad957f7c6a12ea16e26","6622cebbc253f2e616097071","fixation cross","null","","","","","","","","","","","",""
"","808","html-keyboard-response","78","160509","0.0-9.0-1.17","ITJEZmmnmw","5ae3223938df950001455e66","6617fad957f7c6a12ea16e26","6622cebbc253f2e616097071","image grid","q","","","","","Ontogenetic_Distractor_Threat_target","1300","ongrid","q","6","Phylogenetic","true","practice"
"","null","html-keyboard-response","79","160661","0.0-9.0-2.17","ITJEZmmnmw","5ae3223938df950001455e66","6617fad957f7c6a12ea16e26","6622cebbc253f2e616097071","
    <div id=""grid-container"">
        <!-- Grid items will be dynamically added here -->
    </div>    ","null","","","","","","","","","","","",""
"","null","html-keyboard-response","80","161884","0.0-9.0-3.17","ITJEZmmnmw","5ae3223938df950001455e66","6617fad957f7c6a12ea16e26","6622cebbc253f2e616097071","feedback screen","null","","","","","","","","","","","",""
"","null","html-keyboard-response","81","162401","0.0-9.0-0.18","ITJEZmmnmw","5ae3223938df950001455e66","6617fad957f7c6a12ea16e26","6622cebbc253f2e616097071","fixation cross","null","","","","","","","","","","","",""
"","null","html-keyboard-response","82","163607","0.0-9.0-1.18","ITJEZmmnmw","5ae3223938df950001455e66","6617fad957f7c6a12ea16e26","6622cebbc253f2e616097071","
        <div id=""grid-container"">
        <!-- Grid items will be dynamically added here -->
    </div>    ","null","","","","","","","","","","","",""
"","1574","html-keyboard-response","83","163981","0.0-9.0-2.18","ITJEZmmnmw","5ae3223938df950001455e66","6617fad957f7c6a12ea16e26","6622cebbc253f2e616097071","mask grid","p","","","","","Ontogenetic_Distractor_Nonthreat_target","1200","onmask","p","7","Phylogenetic","true","practice"
"","null","html-keyboard-response","84","165210","0.0-9.0-3.18","ITJEZmmnmw","5ae3223938df950001455e66","6617fad957f7c6a12ea16e26","6622cebbc253f2e616097071","feedback screen","null","","","","","","","","","","","",""
"","null","html-keyboard-response","85","165727","0.0-9.0-0.19","ITJEZmmnmw","5ae3223938df950001455e66","6617fad957f7c6a12ea16e26","6622cebbc253f2e616097071","fixation cross","null","","","","","","","","","","","",""
"","695","html-keyboard-response","86","166422","0.0-9.0-1.19","ITJEZmmnmw","5ae3223938df950001455e66","6617fad957f7c6a12ea16e26","6622cebbc253f2e616097071","image grid","p","","","","","Ontogenetic_Distractor_Nonthreat_target","1100","ongrid","p","6","Phylogenetic","true","practice"
"","null","html-keyboard-response","87","166586","0.0-9.0-2.19","ITJEZmmnmw","5ae3223938df950001455e66","6617fad957f7c6a12ea16e26","6622cebbc253f2e616097071","
    <div id=""grid-container"">
        <!-- Grid items will be dynamically added here -->
    </div>    ","null","","","","","","","","","","","",""
"","null","html-keyboard-response","88","167810","0.0-9.0-3.19","ITJEZmmnmw","5ae3223938df950001455e66","6617fad957f7c6a12ea16e26","6622cebbc253f2e616097071","feedback screen","null","","","","","","","","","","","",""
"","5321","html-keyboard-response","89","173159","0.0-10.0","ITJEZmmnmw","5ae3223938df950001455e66","6617fad957f7c6a12ea16e26","6622cebbc253f2e616097071","pre-experimental_briefing"," ","","","","","","","","","","","",""
"","null","html-keyboard-response","90","175695","0.0-11.0-0.0","ITJEZmmnmw","5ae3223938df950001455e66","6617fad957f7c6a12ea16e26","6622cebbc253f2e616097071","fixation cross","null","","","","","","","","","","","",""
"","1423","html-keyboard-response","91","177118","0.0-11.0-1.0","ITJEZmmnmw","5ae3223938df950001455e66","6617fad957f7c6a12ea16e26","6622cebbc253f2e616097071","image grid","q","","","","","Phylogenetic_Distractor_Threat_target","2500","ongrid","q","7","Phylogenetic","true","experimental"
"","null","html-keyboard-response","92","177270","0.0-11.0-2.0","ITJEZmmnmw","5ae3223938df950001455e66","6617fad957f7c6a12ea16e26","6622cebbc253f2e616097071","
    <div id=""grid-container"">
        <!-- Grid items will be dynamically added here -->
    </div>    ","null","","","","","","","","","","","",""
"","null","html-keyboard-response","93","177994","0.0-11.0-0.1","ITJEZmmnmw","5ae3223938df950001455e66","6617fad957f7c6a12ea16e26","6622cebbc253f2e616097071","fixation cross","null","","","","","","","","","","","",""
"","1668","html-keyboard-response","94","179662","0.0-11.0-1.1","ITJEZmmnmw","5ae3223938df950001455e66","6617fad957f7c6a12ea16e26","6622cebbc253f2e616097071","image grid","p","","","","","Phylogenetic_Distractor_Nonthreat_target","2500","ongrid","p","8","Phylogenetic","true","experimental"
"","null","html-keyboard-response","95","179820","0.0-11.0-2.1","ITJEZmmnmw","5ae3223938df950001455e66","6617fad957f7c6a12ea16e26","6622cebbc253f2e616097071","
    <div id=""grid-container"">
        <!-- Grid items will be dynamically added here -->
    </div>    ","null","","","","","","","","","","","",""
"","null","html-keyboard-response","96","180544","0.0-11.0-0.2","ITJEZmmnmw","5ae3223938df950001455e66","6617fad957f7c6a12ea16e26","6622cebbc253f2e616097071","fixation cross","null","","","","","","","","","","","",""
"","1629","html-keyboard-response","97","182174","0.0-11.0-1.2","ITJEZmmnmw","5ae3223938df950001455e66","6617fad957f7c6a12ea16e26","6622cebbc253f2e616097071","image grid","p","","","","","Phylogenetic_Distractor_Nonthreat_target","2500","ongrid","p","8","Phylogenetic","true","experimental"
"","null","html-keyboard-response","98","182338","0.0-11.0-2.2","ITJEZmmnmw","5ae3223938df950001455e66","6617fad957f7c6a12ea16e26","6622cebbc253f2e616097071","
    <div id=""grid-container"">
        <!-- Grid items will be dynamically added here -->
    </div>    ","null","","","","","","","","","","","",""
"","null","html-keyboard-response","99","183061","0.0-11.0-0.3","ITJEZmmnmw","5ae3223938df950001455e66","6617fad957f7c6a12ea16e26","6622cebbc253f2e616097071","fixation cross","null","","","","","","","","","","","",""
"","1969","html-keyboard-response","100","185030","0.0-11.0-1.3","ITJEZmmnmw","5ae3223938df950001455e66","6617fad957f7c6a12ea16e26","6622cebbc253f2e616097071","image grid","q","","","","","Phylogenetic_Distractor_Nonthreat_target","2500","ongrid","p","2","Phylogenetic","false","experimental"
"","null","html-keyboard-response","101","185187","0.0-11.0-2.3","ITJEZmmnmw","5ae3223938df950001455e66","6617fad957f7c6a12ea16e26","6622cebbc253f2e616097071","
    <div id=""grid-container"">
        <!-- Grid items will be dynamically added here -->
    </div>    ","null","","","","","","","","","","","",""
"","null","html-keyboard-response","102","185911","0.0-11.0-0.4","ITJEZmmnmw","5ae3223938df950001455e66","6617fad957f7c6a12ea16e26","6622cebbc253f2e616097071","fixation cross","null","","","","","","","","","","","",""
"","1766","html-keyboard-response","103","187678","0.0-11.0-1.4","ITJEZmmnmw","5ae3223938df950001455e66","6617fad957f7c6a12ea16e26","6622cebbc253f2e616097071","image grid","p","","","","","Phylogenetic_Distractor_Nonthreat_target","2500","ongrid","p","8","Phylogenetic","true","experimental"
"","null","html-keyboard-response","104","187837","0.0-11.0-2.4","ITJEZmmnmw","5ae3223938df950001455e66","6617fad957f7c6a12ea16e26","6622cebbc253f2e616097071","
    <div id=""grid-container"">
        <!-- Grid items will be dynamically added here -->
    </div>    ","null","","","","","","","","","","","",""
"","null","html-keyboard-response","105","188562","0.0-11.0-0.5","ITJEZmmnmw","5ae3223938df950001455e66","6617fad957f7c6a12ea16e26","6622cebbc253f2e616097071","fixation cross","null","","","","","","","","","","","",""
"","1324","html-keyboard-response","106","189886","0.0-11.0-1.5","ITJEZmmnmw","5ae3223938df950001455e66","6617fad957f7c6a12ea16e26","6622cebbc253f2e616097071","image grid","q","","","","","Phylogenetic_Distractor_Threat_target","2500","ongrid","q","1","Phylogenetic","true","experimental"
"","null","html-keyboard-response","107","190038","0.0-11.0-2.5","ITJEZmmnmw","5ae3223938df950001455e66","6617fad957f7c6a12ea16e26","6622cebbc253f2e616097071","
    <div id=""grid-container"">
        <!-- Grid items will be dynamically added here -->
    </div>    ","null","","","","","","","","","","","",""
"","null","html-keyboard-response","108","190762","0.0-11.0-0.6","ITJEZmmnmw","5ae3223938df950001455e66","6617fad957f7c6a12ea16e26","6622cebbc253f2e616097071","fixation cross","null","","","","","","","","","","","",""
"","1420","html-keyboard-response","109","192182","0.0-11.0-1.6","ITJEZmmnmw","5ae3223938df950001455e66","6617fad957f7c6a12ea16e26","6622cebbc253f2e616097071","image grid","p","","","","","Phylogenetic_Distractor_Nonthreat_target","2500","ongrid","p","2","Phylogenetic","true","experimental"
"","null","html-keyboard-response","110","192338","0.0-11.0-2.6","ITJEZmmnmw","5ae3223938df950001455e66","6617fad957f7c6a12ea16e26","6622cebbc253f2e616097071","
    <div id=""grid-container"">
        <!-- Grid items will be dynamically added here -->
    </div>    ","null","","","","","","","","","","","",""
"","null","html-keyboard-response","111","193062","0.0-11.0-0.7","ITJEZmmnmw","5ae3223938df950001455e66","6617fad957f7c6a12ea16e26","6622cebbc253f2e616097071","fixation cross","null","","","","","","","","","","","",""
"","2008","html-keyboard-response","112","195070","0.0-11.0-1.7","ITJEZmmnmw","5ae3223938df950001455e66","6617fad957f7c6a12ea16e26","6622cebbc253f2e616097071","image grid","p","","","","","Phylogenetic_Distractor_Nonthreat_target","2500","ongrid","p","3","Phylogenetic","true","experimental"
"","null","html-keyboard-response","113","195222","0.0-11.0-2.7","ITJEZmmnmw","5ae3223938df950001455e66","6617fad957f7c6a12ea16e26","6622cebbc253f2e616097071","
    <div id=""grid-container"">
        <!-- Grid items will be dynamically added here -->
    </div>    ","null","","","","","","","","","","","",""
"","null","html-keyboard-response","114","195945","0.0-11.0-0.8","ITJEZmmnmw","5ae3223938df950001455e66","6617fad957f7c6a12ea16e26","6622cebbc253f2e616097071","fixation cross","null","","","","","","","","","","","",""
"","null","html-keyboard-response","115","198448","0.0-11.0-1.8","ITJEZmmnmw","5ae3223938df950001455e66","6617fad957f7c6a12ea16e26","6622cebbc253f2e616097071","
        <div id=""grid-container"">
        <!-- Grid items will be dynamically added here -->
    </div>    ","null","","","","","","","","","","","",""
"","3026","html-keyboard-response","116","198974","0.0-11.0-2.8","ITJEZmmnmw","5ae3223938df950001455e66","6617fad957f7c6a12ea16e26","6622cebbc253f2e616097071","mask grid"," ","","","","","Phylogenetic_Distractor_notarget","2500","onmask"," ","7","Phylogenetic","true","experimental"
"","null","html-keyboard-response","117","199696","0.0-11.0-0.9","ITJEZmmnmw","5ae3223938df950001455e66","6617fad957f7c6a12ea16e26","6622cebbc253f2e616097071","fixation cross","null","","","","","","","","","","","",""
"","1742","html-keyboard-response","118","201438","0.0-11.0-1.9","ITJEZmmnmw","5ae3223938df950001455e66","6617fad957f7c6a12ea16e26","6622cebbc253f2e616097071","image grid","q","","","","","Phylogenetic_Distractor_Threat_target","2500","ongrid","q","3","Phylogenetic","true","experimental"
"","null","html-keyboard-response","119","201589","0.0-11.0-2.9","ITJEZmmnmw","5ae3223938df950001455e66","6617fad957f7c6a12ea16e26","6622cebbc253f2e616097071","
    <div id=""grid-container"">
        <!-- Grid items will be dynamically added here -->
    </div>    ","null","","","","","","","","","","","",""
"","null","html-keyboard-response","120","202313","0.0-11.0-0.10","ITJEZmmnmw","5ae3223938df950001455e66","6617fad957f7c6a12ea16e26","6622cebbc253f2e616097071","fixation cross","null","","","","","","","","","","","",""
"","2069","html-keyboard-response","121","204382","0.0-11.0-1.10","ITJEZmmnmw","5ae3223938df950001455e66","6617fad957f7c6a12ea16e26","6622cebbc253f2e616097071","image grid","p","","","","","Phylogenetic_Distractor_Nonthreat_target","2500","ongrid","p","7","Phylogenetic","true","experimental"
"","null","html-keyboard-response","122","204539","0.0-11.0-2.10","ITJEZmmnmw","5ae3223938df950001455e66","6617fad957f7c6a12ea16e26","6622cebbc253f2e616097071","
    <div id=""grid-container"">
        <!-- Grid items will be dynamically added here -->
    </div>    ","null","","","","","","","","","","","",""
"","null","html-keyboard-response","123","205263","0.0-11.0-0.11","ITJEZmmnmw","5ae3223938df950001455e66","6617fad957f7c6a12ea16e26","6622cebbc253f2e616097071","fixation cross","null","","","","","","","","","","","",""
"","2183","html-keyboard-response","124","207446","0.0-11.0-1.11","ITJEZmmnmw","5ae3223938df950001455e66","6617fad957f7c6a12ea16e26","6622cebbc253f2e616097071","image grid","q","","","","","Phylogenetic_Distractor_Threat_target","2500","ongrid","q","8","Phylogenetic","true","experimental"
"","null","html-keyboard-response","125","207605","0.0-11.0-2.11","ITJEZmmnmw","5ae3223938df950001455e66","6617fad957f7c6a12ea16e26","6622cebbc253f2e616097071","
    <div id=""grid-container"">
        <!-- Grid items will be dynamically added here -->
    </div>    ","null","","","","","","","","","","","",""
"","null","html-keyboard-response","126","208330","0.0-11.0-0.12","ITJEZmmnmw","5ae3223938df950001455e66","6617fad957f7c6a12ea16e26","6622cebbc253f2e616097071","fixation cross","null","","","","","","","","","","","",""
"","1172","html-keyboard-response","127","209502","0.0-11.0-1.12","ITJEZmmnmw","5ae3223938df950001455e66","6617fad957f7c6a12ea16e26","6622cebbc253f2e616097071","image grid","q","","","","","Phylogenetic_Distractor_Threat_target","2500","ongrid","q","8","Phylogenetic","true","experimental"
"","null","html-keyboard-response","128","209656","0.0-11.0-2.12","ITJEZmmnmw","5ae3223938df950001455e66","6617fad957f7c6a12ea16e26","6622cebbc253f2e616097071","
    <div id=""grid-container"">
        <!-- Grid items will be dynamically added here -->
    </div>    ","null","","","","","","","","","","","",""
"","null","html-keyboard-response","129","210380","0.0-11.0-0.13","ITJEZmmnmw","5ae3223938df950001455e66","6617fad957f7c6a12ea16e26","6622cebbc253f2e616097071","fixation cross","null","","","","","","","","","","","",""
"","1458","html-keyboard-response","130","211838","0.0-11.0-1.13","ITJEZmmnmw","5ae3223938df950001455e66","6617fad957f7c6a12ea16e26","6622cebbc253f2e616097071","image grid","p","","","","","Phylogenetic_Distractor_Nonthreat_target","2500","ongrid","p","9","Phylogenetic","true","experimental"
"","null","html-keyboard-response","131","211990","0.0-11.0-2.13","ITJEZmmnmw","5ae3223938df950001455e66","6617fad957f7c6a12ea16e26","6622cebbc253f2e616097071","
    <div id=""grid-container"">
        <!-- Grid items will be dynamically added here -->
    </div>    ","null","","","","","","","","","","","",""
"","null","html-keyboard-response","132","212713","0.0-11.0-0.14","ITJEZmmnmw","5ae3223938df950001455e66","6617fad957f7c6a12ea16e26","6622cebbc253f2e616097071","fixation cross","null","","","","","","","","","","","",""
"","1436","html-keyboard-response","133","214150","0.0-11.0-1.14","ITJEZmmnmw","5ae3223938df950001455e66","6617fad957f7c6a12ea16e26","6622cebbc253f2e616097071","image grid"," ","","","","","Phylogenetic_Distractor_notarget","2500","ongrid"," ","5","Phylogenetic","true","experimental"
"","null","html-keyboard-response","134","214306","0.0-11.0-2.14","ITJEZmmnmw","5ae3223938df950001455e66","6617fad957f7c6a12ea16e26","6622cebbc253f2e616097071","
    <div id=""grid-container"">
        <!-- Grid items will be dynamically added here -->
    </div>    ","null","","","","","","","","","","","",""
"","null","html-keyboard-response","135","215030","0.0-11.0-0.15","ITJEZmmnmw","5ae3223938df950001455e66","6617fad957f7c6a12ea16e26","6622cebbc253f2e616097071","fixation cross","null","","","","","","","","","","","",""
"","904","html-keyboard-response","136","215934","0.0-11.0-1.15","ITJEZmmnmw","5ae3223938df950001455e66","6617fad957f7c6a12ea16e26","6622cebbc253f2e616097071","image grid","q","","","","","Phylogenetic_Distractor_Threat_target","2500","ongrid","q","6","Phylogenetic","true","experimental"
"","null","html-keyboard-response","137","216089","0.0-11.0-2.15","ITJEZmmnmw","5ae3223938df950001455e66","6617fad957f7c6a12ea16e26","6622cebbc253f2e616097071","
    <div id=""grid-container"">
        <!-- Grid items will be dynamically added here -->
    </div>    ","null","","","","","","","","","","","",""
"","null","html-keyboard-response","138","216814","0.0-11.0-0.16","ITJEZmmnmw","5ae3223938df950001455e66","6617fad957f7c6a12ea16e26","6622cebbc253f2e616097071","fixation cross","null","","","","","","","","","","","",""
"","1320","html-keyboard-response","139","218134","0.0-11.0-1.16","ITJEZmmnmw","5ae3223938df950001455e66","6617fad957f7c6a12ea16e26","6622cebbc253f2e616097071","image grid","p","","","","","Phylogenetic_Distractor_Nonthreat_target","2500","ongrid","p","4","Phylogenetic","true","experimental"
"","null","html-keyboard-response","140","218289","0.0-11.0-2.16","ITJEZmmnmw","5ae3223938df950001455e66","6617fad957f7c6a12ea16e26","6622cebbc253f2e616097071","
    <div id=""grid-container"">
        <!-- Grid items will be dynamically added here -->
    </div>    ","null","","","","","","","","","","","",""
"","null","html-keyboard-response","141","219014","0.0-11.0-0.17","ITJEZmmnmw","5ae3223938df950001455e66","6617fad957f7c6a12ea16e26","6622cebbc253f2e616097071","fixation cross","null","","","","","","","","","","","",""
"","1376","html-keyboard-response","142","220390","0.0-11.0-1.17","ITJEZmmnmw","5ae3223938df950001455e66","6617fad957f7c6a12ea16e26","6622cebbc253f2e616097071","image grid","p","","","","","Phylogenetic_Distractor_Nonthreat_target","2500","ongrid","p","1","Phylogenetic","true","experimental"
"","null","html-keyboard-response","143","220556","0.0-11.0-2.17","ITJEZmmnmw","5ae3223938df950001455e66","6617fad957f7c6a12ea16e26","6622cebbc253f2e616097071","
    <div id=""grid-container"">
        <!-- Grid items will be dynamically added here -->
    </div>    ","null","","","","","","","","","","","",""
"","null","html-keyboard-response","144","221281","0.0-11.0-0.18","ITJEZmmnmw","5ae3223938df950001455e66","6617fad957f7c6a12ea16e26","6622cebbc253f2e616097071","fixation cross","null","","","","","","","","","","","",""
"","1141","html-keyboard-response","145","222422","0.0-11.0-1.18","ITJEZmmnmw","5ae3223938df950001455e66","6617fad957f7c6a12ea16e26","6622cebbc253f2e616097071","image grid","q","","","","","Phylogenetic_Distractor_Threat_target","2500","ongrid","q","2","Phylogenetic","true","experimental"
"","null","html-keyboard-response","146","222574","0.0-11.0-2.18","ITJEZmmnmw","5ae3223938df950001455e66","6617fad957f7c6a12ea16e26","6622cebbc253f2e616097071","
    <div id=""grid-container"">
        <!-- Grid items will be dynamically added here -->
    </div>    ","null","","","","","","","","","","","",""
"","null","html-keyboard-response","147","223297","0.0-11.0-0.19","ITJEZmmnmw","5ae3223938df950001455e66","6617fad957f7c6a12ea16e26","6622cebbc253f2e616097071","fixation cross","null","","","","","","","","","","","",""
"","988","html-keyboard-response","148","224286","0.0-11.0-1.19","ITJEZmmnmw","5ae3223938df950001455e66","6617fad957f7c6a12ea16e26","6622cebbc253f2e616097071","image grid","q","","","","","Phylogenetic_Distractor_Threat_target","2500","ongrid","q","8","Phylogenetic","true","experimental"
"","null","html-keyboard-response","149","224440","0.0-11.0-2.19","ITJEZmmnmw","5ae3223938df950001455e66","6617fad957f7c6a12ea16e26","6622cebbc253f2e616097071","
    <div id=""grid-container"">
        <!-- Grid items will be dynamically added here -->
    </div>    ","null","","","","","","","","","","","",""
"","null","html-keyboard-response","150","225164","0.0-11.0-0.20","ITJEZmmnmw","5ae3223938df950001455e66","6617fad957f7c6a12ea16e26","6622cebbc253f2e616097071","fixation cross","null","","","","","","","","","","","",""
"","921","html-keyboard-response","151","226080","0.0-11.0-1.20","ITJEZmmnmw","5ae3223938df950001455e66","6617fad957f7c6a12ea16e26","6622cebbc253f2e616097071","image grid","q","","","","","Phylogenetic_Distractor_Threat_target","2500","ongrid","q","5","Phylogenetic","true","experimental"
"","null","html-keyboard-response","152","226234","0.0-11.0-2.20","ITJEZmmnmw","5ae3223938df950001455e66","6617fad957f7c6a12ea16e26","6622cebbc253f2e616097071","
    <div id=""grid-container"">
        <!-- Grid items will be dynamically added here -->
    </div>    ","null","","","","","","","","","","","",""
"","null","html-keyboard-response","153","226959","0.0-11.0-0.21","ITJEZmmnmw","5ae3223938df950001455e66","6617fad957f7c6a12ea16e26","6622cebbc253f2e616097071","fixation cross","null","","","","","","","","","","","",""
"","993","html-keyboard-response","154","227952","0.0-11.0-1.21","ITJEZmmnmw","5ae3223938df950001455e66","6617fad957f7c6a12ea16e26","6622cebbc253f2e616097071","image grid","q","","","","","Phylogenetic_Distractor_Threat_target","2500","ongrid","q","1","Phylogenetic","true","experimental"
"","null","html-keyboard-response","155","228118","0.0-11.0-2.21","ITJEZmmnmw","5ae3223938df950001455e66","6617fad957f7c6a12ea16e26","6622cebbc253f2e616097071","
    <div id=""grid-container"">
        <!-- Grid items will be dynamically added here -->
    </div>    ","null","","","","","","","","","","","",""
"","null","html-keyboard-response","156","228842","0.0-11.0-0.22","ITJEZmmnmw","5ae3223938df950001455e66","6617fad957f7c6a12ea16e26","6622cebbc253f2e616097071","fixation cross","null","","","","","","","","","","","",""
"","1214","html-keyboard-response","157","230056","0.0-11.0-1.22","ITJEZmmnmw","5ae3223938df950001455e66","6617fad957f7c6a12ea16e26","6622cebbc253f2e616097071","image grid","p","","","","","Phylogenetic_Distractor_Nonthreat_target","2500","ongrid","p","3","Phylogenetic","true","experimental"
"","null","html-keyboard-response","158","230218","0.0-11.0-2.22","ITJEZmmnmw","5ae3223938df950001455e66","6617fad957f7c6a12ea16e26","6622cebbc253f2e616097071","
    <div id=""grid-container"">
        <!-- Grid items will be dynamically added here -->
    </div>    ","null","","","","","","","","","","","",""
"","null","html-keyboard-response","159","230942","0.0-11.0-0.23","ITJEZmmnmw","5ae3223938df950001455e66","6617fad957f7c6a12ea16e26","6622cebbc253f2e616097071","fixation cross","null","","","","","","","","","","","",""
"","1129","html-keyboard-response","160","232072","0.0-11.0-1.23","ITJEZmmnmw","5ae3223938df950001455e66","6617fad957f7c6a12ea16e26","6622cebbc253f2e616097071","image grid","q","","","","","Phylogenetic_Distractor_Threat_target","2500","ongrid","q","3","Phylogenetic","true","experimental"
"","null","html-keyboard-response","161","232236","0.0-11.0-2.23","ITJEZmmnmw","5ae3223938df950001455e66","6617fad957f7c6a12ea16e26","6622cebbc253f2e616097071","
    <div id=""grid-container"">
        <!-- Grid items will be dynamically added here -->
    </div>    ","null","","","","","","","","","","","",""
"","null","html-keyboard-response","162","232959","0.0-11.0-0.24","ITJEZmmnmw","5ae3223938df950001455e66","6617fad957f7c6a12ea16e26","6622cebbc253f2e616097071","fixation cross","null","","","","","","","","","","","",""
"","2177","html-keyboard-response","163","235136","0.0-11.0-1.24","ITJEZmmnmw","5ae3223938df950001455e66","6617fad957f7c6a12ea16e26","6622cebbc253f2e616097071","image grid","p","","","","","Phylogenetic_Distractor_Nonthreat_target","2500","ongrid","p","9","Phylogenetic","true","experimental"
"","null","html-keyboard-response","164","235301","0.0-11.0-2.24","ITJEZmmnmw","5ae3223938df950001455e66","6617fad957f7c6a12ea16e26","6622cebbc253f2e616097071","
    <div id=""grid-container"">
        <!-- Grid items will be dynamically added here -->
    </div>    ","null","","","","","","","","","","","",""
"","null","html-keyboard-response","165","236026","0.0-11.0-0.25","ITJEZmmnmw","5ae3223938df950001455e66","6617fad957f7c6a12ea16e26","6622cebbc253f2e616097071","fixation cross","null","","","","","","","","","","","",""
"","null","html-keyboard-response","166","238528","0.0-11.0-1.25","ITJEZmmnmw","5ae3223938df950001455e66","6617fad957f7c6a12ea16e26","6622cebbc253f2e616097071","
        <div id=""grid-container"">
        <!-- Grid items will be dynamically added here -->
    </div>    ","null","","","","","","","","","","","",""
"","3355","html-keyboard-response","167","239384","0.0-11.0-2.25","ITJEZmmnmw","5ae3223938df950001455e66","6617fad957f7c6a12ea16e26","6622cebbc253f2e616097071","mask grid","p","","","","","Phylogenetic_Distractor_Nonthreat_target","2500","onmask","p","4","Phylogenetic","true","experimental"
"","null","html-keyboard-response","168","240109","0.0-11.0-0.26","ITJEZmmnmw","5ae3223938df950001455e66","6617fad957f7c6a12ea16e26","6622cebbc253f2e616097071","fixation cross","null","","","","","","","","","","","",""
"","1330","html-keyboard-response","169","241440","0.0-11.0-1.26","ITJEZmmnmw","5ae3223938df950001455e66","6617fad957f7c6a12ea16e26","6622cebbc253f2e616097071","image grid","p","","","","","Phylogenetic_Distractor_Nonthreat_target","2500","ongrid","p","4","Phylogenetic","true","experimental"
"","null","html-keyboard-response","170","241602","0.0-11.0-2.26","ITJEZmmnmw","5ae3223938df950001455e66","6617fad957f7c6a12ea16e26","6622cebbc253f2e616097071","
    <div id=""grid-container"">
        <!-- Grid items will be dynamically added here -->
    </div>    ","null","","","","","","","","","","","",""
"","null","html-keyboard-response","171","242326","0.0-11.0-0.27","ITJEZmmnmw","5ae3223938df950001455e66","6617fad957f7c6a12ea16e26","6622cebbc253f2e616097071","fixation cross","null","","","","","","","","","","","",""
"","1097","html-keyboard-response","172","243424","0.0-11.0-1.27","ITJEZmmnmw","5ae3223938df950001455e66","6617fad957f7c6a12ea16e26","6622cebbc253f2e616097071","image grid","q","","","","","Phylogenetic_Distractor_Threat_target","2500","ongrid","q","8","Phylogenetic","true","experimental"
"","null","html-keyboard-response","173","243585","0.0-11.0-2.27","ITJEZmmnmw","5ae3223938df950001455e66","6617fad957f7c6a12ea16e26","6622cebbc253f2e616097071","
    <div id=""grid-container"">
        <!-- Grid items will be dynamically added here -->
    </div>    ","null","","","","","","","","","","","",""
"","null","html-keyboard-response","174","244310","0.0-11.0-0.28","ITJEZmmnmw","5ae3223938df950001455e66","6617fad957f7c6a12ea16e26","6622cebbc253f2e616097071","fixation cross","null","","","","","","","","","","","",""
"","1778","html-keyboard-response","175","246088","0.0-11.0-1.28","ITJEZmmnmw","5ae3223938df950001455e66","6617fad957f7c6a12ea16e26","6622cebbc253f2e616097071","image grid"," ","","","","","Phylogenetic_Distractor_notarget","2500","ongrid"," ","4","Phylogenetic","true","experimental"
"","null","html-keyboard-response","176","246252","0.0-11.0-2.28","ITJEZmmnmw","5ae3223938df950001455e66","6617fad957f7c6a12ea16e26","6622cebbc253f2e616097071","
    <div id=""grid-container"">
        <!-- Grid items will be dynamically added here -->
    </div>    ","null","","","","","","","","","","","",""
"","null","html-keyboard-response","177","246977","0.0-11.0-0.29","ITJEZmmnmw","5ae3223938df950001455e66","6617fad957f7c6a12ea16e26","6622cebbc253f2e616097071","fixation cross","null","","","","","","","","","","","",""
"","2351","html-keyboard-response","178","249328","0.0-11.0-1.29","ITJEZmmnmw","5ae3223938df950001455e66","6617fad957f7c6a12ea16e26","6622cebbc253f2e616097071","image grid","p","","","","","Phylogenetic_Distractor_Nonthreat_target","2500","ongrid","p","2","Phylogenetic","true","experimental"
"","null","html-keyboard-response","179","249486","0.0-11.0-2.29","ITJEZmmnmw","5ae3223938df950001455e66","6617fad957f7c6a12ea16e26","6622cebbc253f2e616097071","
    <div id=""grid-container"">
        <!-- Grid items will be dynamically added here -->
    </div>    ","null","","","","","","","","","","","",""
"","null","html-keyboard-response","180","250210","0.0-11.0-0.30","ITJEZmmnmw","5ae3223938df950001455e66","6617fad957f7c6a12ea16e26","6622cebbc253f2e616097071","fixation cross","null","","","","","","","","","","","",""
"","1750","html-keyboard-response","181","251960","0.0-11.0-1.30","ITJEZmmnmw","5ae3223938df950001455e66","6617fad957f7c6a12ea16e26","6622cebbc253f2e616097071","image grid","q","","","","","Phylogenetic_Distractor_Threat_target","2500","ongrid","q","9","Phylogenetic","true","experimental"
"","null","html-keyboard-response","182","252119","0.0-11.0-2.30","ITJEZmmnmw","5ae3223938df950001455e66","6617fad957f7c6a12ea16e26","6622cebbc253f2e616097071","
    <div id=""grid-container"">
        <!-- Grid items will be dynamically added here -->
    </div>    ","null","","","","","","","","","","","",""
"","null","html-keyboard-response","183","252844","0.0-11.0-0.31","ITJEZmmnmw","5ae3223938df950001455e66","6617fad957f7c6a12ea16e26","6622cebbc253f2e616097071","fixation cross","null","","","","","","","","","","","",""
"","null","html-keyboard-response","184","255346","0.0-11.0-1.31","ITJEZmmnmw","5ae3223938df950001455e66","6617fad957f7c6a12ea16e26","6622cebbc253f2e616097071","
        <div id=""grid-container"">
        <!-- Grid items will be dynamically added here -->
    </div>    ","null","","","","","","","","","","","",""
"","3705","html-keyboard-response","185","256552","0.0-11.0-2.31","ITJEZmmnmw","5ae3223938df950001455e66","6617fad957f7c6a12ea16e26","6622cebbc253f2e616097071","mask grid"," ","","","","","Phylogenetic_Distractor_notarget","2500","onmask"," ","5","Phylogenetic","true","experimental"
"","null","html-keyboard-response","186","257277","0.0-11.0-0.32","ITJEZmmnmw","5ae3223938df950001455e66","6617fad957f7c6a12ea16e26","6622cebbc253f2e616097071","fixation cross","null","","","","","","","","","","","",""
"","1194","html-keyboard-response","187","258472","0.0-11.0-1.32","ITJEZmmnmw","5ae3223938df950001455e66","6617fad957f7c6a12ea16e26","6622cebbc253f2e616097071","image grid","q","","","","","Phylogenetic_Distractor_Threat_target","2500","ongrid","q","3","Phylogenetic","true","experimental"
"","null","html-keyboard-response","188","258636","0.0-11.0-2.32","ITJEZmmnmw","5ae3223938df950001455e66","6617fad957f7c6a12ea16e26","6622cebbc253f2e616097071","
    <div id=""grid-container"">
        <!-- Grid items will be dynamically added here -->
    </div>    ","null","","","","","","","","","","","",""
"","null","html-keyboard-response","189","259361","0.0-11.0-0.33","ITJEZmmnmw","5ae3223938df950001455e66","6617fad957f7c6a12ea16e26","6622cebbc253f2e616097071","fixation cross","null","","","","","","","","","","","",""
"","759","html-keyboard-response","190","260120","0.0-11.0-1.33","ITJEZmmnmw","5ae3223938df950001455e66","6617fad957f7c6a12ea16e26","6622cebbc253f2e616097071","image grid","q","","","","","Phylogenetic_Distractor_Threat_target","2500","ongrid","q","4","Phylogenetic","true","experimental"
"","null","html-keyboard-response","191","260271","0.0-11.0-2.33","ITJEZmmnmw","5ae3223938df950001455e66","6617fad957f7c6a12ea16e26","6622cebbc253f2e616097071","
    <div id=""grid-container"">
        <!-- Grid items will be dynamically added here -->
    </div>    ","null","","","","","","","","","","","",""
"","null","html-keyboard-response","192","260994","0.0-11.0-0.34","ITJEZmmnmw","5ae3223938df950001455e66","6617fad957f7c6a12ea16e26","6622cebbc253f2e616097071","fixation cross","null","","","","","","","","","","","",""
"","958","html-keyboard-response","193","261952","0.0-11.0-1.34","ITJEZmmnmw","5ae3223938df950001455e66","6617fad957f7c6a12ea16e26","6622cebbc253f2e616097071","image grid","p","","","","","Phylogenetic_Distractor_Nonthreat_target","2500","ongrid","p","9","Phylogenetic","true","experimental"
"","null","html-keyboard-response","194","262104","0.0-11.0-2.34","ITJEZmmnmw","5ae3223938df950001455e66","6617fad957f7c6a12ea16e26","6622cebbc253f2e616097071","
    <div id=""grid-container"">
        <!-- Grid items will be dynamically added here -->
    </div>    ","null","","","","","","","","","","","",""
"","null","html-keyboard-response","195","262829","0.0-11.0-0.35","ITJEZmmnmw","5ae3223938df950001455e66","6617fad957f7c6a12ea16e26","6622cebbc253f2e616097071","fixation cross","null","","","","","","","","","","","",""
"","690","html-keyboard-response","196","263520","0.0-11.0-1.35","ITJEZmmnmw","5ae3223938df950001455e66","6617fad957f7c6a12ea16e26","6622cebbc253f2e616097071","image grid","q","","","","","Phylogenetic_Distractor_Threat_target","2500","ongrid","q","8","Phylogenetic","true","experimental"
"","null","html-keyboard-response","197","263672","0.0-11.0-2.35","ITJEZmmnmw","5ae3223938df950001455e66","6617fad957f7c6a12ea16e26","6622cebbc253f2e616097071","
    <div id=""grid-container"">
        <!-- Grid items will be dynamically added here -->
    </div>    ","null","","","","","","","","","","","",""
"","null","html-keyboard-response","198","264394","0.0-11.0-0.36","ITJEZmmnmw","5ae3223938df950001455e66","6617fad957f7c6a12ea16e26","6622cebbc253f2e616097071","fixation cross","null","","","","","","","","","","","",""
"","1549","html-keyboard-response","199","265944","0.0-11.0-1.36","ITJEZmmnmw","5ae3223938df950001455e66","6617fad957f7c6a12ea16e26","6622cebbc253f2e616097071","image grid","p","","","","","Phylogenetic_Distractor_Nonthreat_target","2500","ongrid","p","1","Phylogenetic","true","experimental"
"","null","html-keyboard-response","200","266104","0.0-11.0-2.36","ITJEZmmnmw","5ae3223938df950001455e66","6617fad957f7c6a12ea16e26","6622cebbc253f2e616097071","
    <div id=""grid-container"">
        <!-- Grid items will be dynamically added here -->
    </div>    ","null","","","","","","","","","","","",""
"","null","html-keyboard-response","201","266828","0.0-11.0-0.37","ITJEZmmnmw","5ae3223938df950001455e66","6617fad957f7c6a12ea16e26","6622cebbc253f2e616097071","fixation cross","null","","","","","","","","","","","",""
"","916","html-keyboard-response","202","267744","0.0-11.0-1.37","ITJEZmmnmw","5ae3223938df950001455e66","6617fad957f7c6a12ea16e26","6622cebbc253f2e616097071","image grid","q","","","","","Phylogenetic_Distractor_Threat_target","2500","ongrid","q","8","Phylogenetic","true","experimental"
"","null","html-keyboard-response","203","267904","0.0-11.0-2.37","ITJEZmmnmw","5ae3223938df950001455e66","6617fad957f7c6a12ea16e26","6622cebbc253f2e616097071","
    <div id=""grid-container"">
        <!-- Grid items will be dynamically added here -->
    </div>    ","null","","","","","","","","","","","",""
"","null","html-keyboard-response","204","268628","0.0-11.0-0.38","ITJEZmmnmw","5ae3223938df950001455e66","6617fad957f7c6a12ea16e26","6622cebbc253f2e616097071","fixation cross","null","","","","","","","","","","","",""
"","739","html-keyboard-response","205","269368","0.0-11.0-1.38","ITJEZmmnmw","5ae3223938df950001455e66","6617fad957f7c6a12ea16e26","6622cebbc253f2e616097071","image grid","q","","","","","Phylogenetic_Distractor_Threat_target","2500","ongrid","q","5","Phylogenetic","true","experimental"
"","null","html-keyboard-response","206","269521","0.0-11.0-2.38","ITJEZmmnmw","5ae3223938df950001455e66","6617fad957f7c6a12ea16e26","6622cebbc253f2e616097071","
    <div id=""grid-container"">
        <!-- Grid items will be dynamically added here -->
    </div>    ","null","","","","","","","","","","","",""
"","null","html-keyboard-response","207","270245","0.0-11.0-0.39","ITJEZmmnmw","5ae3223938df950001455e66","6617fad957f7c6a12ea16e26","6622cebbc253f2e616097071","fixation cross","null","","","","","","","","","","","",""
"","null","html-keyboard-response","208","272760","0.0-11.0-1.39","ITJEZmmnmw","5ae3223938df950001455e66","6617fad957f7c6a12ea16e26","6622cebbc253f2e616097071","
        <div id=""grid-container"">
        <!-- Grid items will be dynamically added here -->
    </div>    ","null","","","","","","","","","","","",""
"","2859","html-keyboard-response","209","273120","0.0-11.0-2.39","ITJEZmmnmw","5ae3223938df950001455e66","6617fad957f7c6a12ea16e26","6622cebbc253f2e616097071","mask grid","p","","","","","Phylogenetic_Distractor_Nonthreat_target","2500","onmask","p","4","Phylogenetic","true","experimental"
"","1831","html-keyboard-response","210","275184","0.0-12.0","ITJEZmmnmw","5ae3223938df950001455e66","6617fad957f7c6a12ea16e26","6622cebbc253f2e616097071","break screen"," ","","","","","","","","","","","",""
"","null","html-keyboard-response","211","277696","0.0-13.0-0.0","ITJEZmmnmw","5ae3223938df950001455e66","6617fad957f7c6a12ea16e26","6622cebbc253f2e616097071","fixation cross","null","","","","","","","","","","","",""
"","null","html-keyboard-response","212","278511","0.0-13.0-1.0","ITJEZmmnmw","5ae3223938df950001455e66","6617fad957f7c6a12ea16e26","6622cebbc253f2e616097071","
        <div id=""grid-container"">
        <!-- Grid items will be dynamically added here -->
    </div>    ","null","","","","","","","","","","","",""
"","2817","html-keyboard-response","213","280528","0.0-13.0-2.0","ITJEZmmnmw","5ae3223938df950001455e66","6617fad957f7c6a12ea16e26","6622cebbc253f2e616097071","mask grid"," ","","","","","Ontogenetic_Distractor_notarget","800","onmask"," ","5","Ontogenetic","true","experimental"
"","null","html-keyboard-response","214","281246","0.0-13.0-0.1","ITJEZmmnmw","5ae3223938df950001455e66","6617fad957f7c6a12ea16e26","6622cebbc253f2e616097071","fixation cross","null","","","","","","","","","","","",""
"","null","html-keyboard-response","215","282061","0.0-13.0-1.1","ITJEZmmnmw","5ae3223938df950001455e66","6617fad957f7c6a12ea16e26","6622cebbc253f2e616097071","
        <div id=""grid-container"">
        <!-- Grid items will be dynamically added here -->
    </div>    ","null","","","","","","","","","","","",""
"","1298","html-keyboard-response","216","282560","0.0-13.0-2.1","ITJEZmmnmw","5ae3223938df950001455e66","6617fad957f7c6a12ea16e26","6622cebbc253f2e616097071","mask grid"," ","","","","","Ontogenetic_Distractor_notarget","800","onmask"," ","4","Ontogenetic","true","experimental"
"","null","html-keyboard-response","217","283279","0.0-13.0-0.2","ITJEZmmnmw","5ae3223938df950001455e66","6617fad957f7c6a12ea16e26","6622cebbc253f2e616097071","fixation cross","null","","","","","","","","","","","",""
"","null","html-keyboard-response","218","284082","0.0-13.0-1.2","ITJEZmmnmw","5ae3223938df950001455e66","6617fad957f7c6a12ea16e26","6622cebbc253f2e616097071","
        <div id=""grid-container"">
        <!-- Grid items will be dynamically added here -->
    </div>    ","null","","","","","","","","","","","",""
"","1173","html-keyboard-response","219","284456","0.0-13.0-2.2","ITJEZmmnmw","5ae3223938df950001455e66","6617fad957f7c6a12ea16e26","6622cebbc253f2e616097071","mask grid","q","","","","","Ontogenetic_Distractor_Threat_target","800","onmask","q","8","Ontogenetic","true","experimental"
"","null","html-keyboard-response","220","285179","0.0-13.0-0.3","ITJEZmmnmw","5ae3223938df950001455e66","6617fad957f7c6a12ea16e26","6622cebbc253f2e616097071","fixation cross","null","","","","","","","","","","","",""
"","null","html-keyboard-response","221","285994","0.0-13.0-1.3","ITJEZmmnmw","5ae3223938df950001455e66","6617fad957f7c6a12ea16e26","6622cebbc253f2e616097071","
        <div id=""grid-container"">
        <!-- Grid items will be dynamically added here -->
    </div>    ","null","","","","","","","","","","","",""
"","1133","html-keyboard-response","222","286334","0.0-13.0-2.3","ITJEZmmnmw","5ae3223938df950001455e66","6617fad957f7c6a12ea16e26","6622cebbc253f2e616097071","mask grid","p","","","","","Ontogenetic_Distractor_Nonthreat_target","800","onmask","p","1","Ontogenetic","true","experimental"
"","null","html-keyboard-response","223","287052","0.0-13.0-0.4","ITJEZmmnmw","5ae3223938df950001455e66","6617fad957f7c6a12ea16e26","6622cebbc253f2e616097071","fixation cross","null","","","","","","","","","","","",""
"","null","html-keyboard-response","224","287867","0.0-13.0-1.4","ITJEZmmnmw","5ae3223938df950001455e66","6617fad957f7c6a12ea16e26","6622cebbc253f2e616097071","
        <div id=""grid-container"">
        <!-- Grid items will be dynamically added here -->
    </div>    ","null","","","","","","","","","","","",""
"","2050","html-keyboard-response","225","289117","0.0-13.0-2.4","ITJEZmmnmw","5ae3223938df950001455e66","6617fad957f7c6a12ea16e26","6622cebbc253f2e616097071","mask grid","p","","","","","Ontogenetic_Distractor_Nonthreat_target","800","onmask","p","2","Ontogenetic","true","experimental"
"","null","html-keyboard-response","226","289835","0.0-13.0-0.5","ITJEZmmnmw","5ae3223938df950001455e66","6617fad957f7c6a12ea16e26","6622cebbc253f2e616097071","fixation cross","null","","","","","","","","","","","",""
"","null","html-keyboard-response","227","290638","0.0-13.0-1.5","ITJEZmmnmw","5ae3223938df950001455e66","6617fad957f7c6a12ea16e26","6622cebbc253f2e616097071","
        <div id=""grid-container"">
        <!-- Grid items will be dynamically added here -->
    </div>    ","null","","","","","","","","","","","",""
"","1791","html-keyboard-response","228","291629","0.0-13.0-2.5","ITJEZmmnmw","5ae3223938df950001455e66","6617fad957f7c6a12ea16e26","6622cebbc253f2e616097071","mask grid"," ","","","","","Ontogenetic_Distractor_Threat_target","800","onmask","q","6","Ontogenetic","false","experimental"
"","null","html-keyboard-response","229","292352","0.0-13.0-0.6","ITJEZmmnmw","5ae3223938df950001455e66","6617fad957f7c6a12ea16e26","6622cebbc253f2e616097071","fixation cross","null","","","","","","","","","","","",""
"","null","html-keyboard-response","230","293167","0.0-13.0-1.6","ITJEZmmnmw","5ae3223938df950001455e66","6617fad957f7c6a12ea16e26","6622cebbc253f2e616097071","
        <div id=""grid-container"">
        <!-- Grid items will be dynamically added here -->
    </div>    ","null","","","","","","","","","","","",""
"","1174","html-keyboard-response","231","293541","0.0-13.0-2.6","ITJEZmmnmw","5ae3223938df950001455e66","6617fad957f7c6a12ea16e26","6622cebbc253f2e616097071","mask grid","p","","","","","Ontogenetic_Distractor_Nonthreat_target","800","onmask","p","8","Ontogenetic","true","experimental"
"","null","html-keyboard-response","232","294269","0.0-13.0-0.7","ITJEZmmnmw","5ae3223938df950001455e66","6617fad957f7c6a12ea16e26","6622cebbc253f2e616097071","fixation cross","null","","","","","","","","","","","",""
"","null","html-keyboard-response","233","295076","0.0-13.0-1.7","ITJEZmmnmw","5ae3223938df950001455e66","6617fad957f7c6a12ea16e26","6622cebbc253f2e616097071","
        <div id=""grid-container"">
        <!-- Grid items will be dynamically added here -->
    </div>    ","null","","","","","","","","","","","",""
"","1185","html-keyboard-response","234","295461","0.0-13.0-2.7","ITJEZmmnmw","5ae3223938df950001455e66","6617fad957f7c6a12ea16e26","6622cebbc253f2e616097071","mask grid","q","","","","","Ontogenetic_Distractor_Threat_target","800","onmask","q","8","Ontogenetic","true","experimental"
"","null","html-keyboard-response","235","296186","0.0-13.0-0.8","ITJEZmmnmw","5ae3223938df950001455e66","6617fad957f7c6a12ea16e26","6622cebbc253f2e616097071","fixation cross","null","","","","","","","","","","","",""
"","null","html-keyboard-response","236","297001","0.0-13.0-1.8","ITJEZmmnmw","5ae3223938df950001455e66","6617fad957f7c6a12ea16e26","6622cebbc253f2e616097071","
        <div id=""grid-container"">
        <!-- Grid items will be dynamically added here -->
    </div>    ","null","","","","","","","","","","","",""
"","1804","html-keyboard-response","237","298006","0.0-13.0-2.8","ITJEZmmnmw","5ae3223938df950001455e66","6617fad957f7c6a12ea16e26","6622cebbc253f2e616097071","mask grid","p","","","","","Ontogenetic_Distractor_Nonthreat_target","800","onmask","p","9","Ontogenetic","true","experimental"
"","null","html-keyboard-response","238","298719","0.0-13.0-0.9","ITJEZmmnmw","5ae3223938df950001455e66","6617fad957f7c6a12ea16e26","6622cebbc253f2e616097071","fixation cross","null","","","","","","","","","","","",""
"","null","html-keyboard-response","239","299522","0.0-13.0-1.9","ITJEZmmnmw","5ae3223938df950001455e66","6617fad957f7c6a12ea16e26","6622cebbc253f2e616097071","
        <div id=""grid-container"">
        <!-- Grid items will be dynamically added here -->
    </div>    ","null","","","","","","","","","","","",""
"","1107","html-keyboard-response","240","299829","0.0-13.0-2.9","ITJEZmmnmw","5ae3223938df950001455e66","6617fad957f7c6a12ea16e26","6622cebbc253f2e616097071","mask grid","q","","","","","Ontogenetic_Distractor_Threat_target","800","onmask","q","6","Ontogenetic","true","experimental"
"","null","html-keyboard-response","241","300553","0.0-13.0-0.10","ITJEZmmnmw","5ae3223938df950001455e66","6617fad957f7c6a12ea16e26","6622cebbc253f2e616097071","fixation cross","null","","","","","","","","","","","",""
"","null","html-keyboard-response","242","301368","0.0-13.0-1.10","ITJEZmmnmw","5ae3223938df950001455e66","6617fad957f7c6a12ea16e26","6622cebbc253f2e616097071","
        <div id=""grid-container"">
        <!-- Grid items will be dynamically added here -->
    </div>    ","null","","","","","","","","","","","",""
"","1117","html-keyboard-response","243","301685","0.0-13.0-2.10","ITJEZmmnmw","5ae3223938df950001455e66","6617fad957f7c6a12ea16e26","6622cebbc253f2e616097071","mask grid","p","","","","","Ontogenetic_Distractor_Nonthreat_target","800","onmask","p","4","Ontogenetic","true","experimental"
"","null","html-keyboard-response","244","302403","0.0-13.0-0.11","ITJEZmmnmw","5ae3223938df950001455e66","6617fad957f7c6a12ea16e26","6622cebbc253f2e616097071","fixation cross","null","","","","","","","","","","","",""
"","794","html-keyboard-response","245","303197","0.0-13.0-1.11","ITJEZmmnmw","5ae3223938df950001455e66","6617fad957f7c6a12ea16e26","6622cebbc253f2e616097071","image grid","p","","","","","Ontogenetic_Distractor_Nonthreat_target","800","ongrid","p","5","Ontogenetic","true","experimental"
"","null","html-keyboard-response","246","303362","0.0-13.0-2.11","ITJEZmmnmw","5ae3223938df950001455e66","6617fad957f7c6a12ea16e26","6622cebbc253f2e616097071","
    <div id=""grid-container"">
        <!-- Grid items will be dynamically added here -->
    </div>    ","null","","","","","","","","","","","",""
"","null","html-keyboard-response","247","304086","0.0-13.0-0.12","ITJEZmmnmw","5ae3223938df950001455e66","6617fad957f7c6a12ea16e26","6622cebbc253f2e616097071","fixation cross","null","","","","","","","","","","","",""
"","null","html-keyboard-response","248","304902","0.0-13.0-1.12","ITJEZmmnmw","5ae3223938df950001455e66","6617fad957f7c6a12ea16e26","6622cebbc253f2e616097071","
        <div id=""grid-container"">
        <!-- Grid items will be dynamically added here -->
    </div>    ","null","","","","","","","","","","","",""
"","1535","html-keyboard-response","249","305637","0.0-13.0-2.12","ITJEZmmnmw","5ae3223938df950001455e66","6617fad957f7c6a12ea16e26","6622cebbc253f2e616097071","mask grid"," ","","","","","Ontogenetic_Distractor_notarget","800","onmask"," ","1","Ontogenetic","true","experimental"
"","null","html-keyboard-response","250","306353","0.0-13.0-0.13","ITJEZmmnmw","5ae3223938df950001455e66","6617fad957f7c6a12ea16e26","6622cebbc253f2e616097071","fixation cross","null","","","","","","","","","","","",""
"","null","html-keyboard-response","251","307168","0.0-13.0-1.13","ITJEZmmnmw","5ae3223938df950001455e66","6617fad957f7c6a12ea16e26","6622cebbc253f2e616097071","
        <div id=""grid-container"">
        <!-- Grid items will be dynamically added here -->
    </div>    ","null","","","","","","","","","","","",""
"","829","html-keyboard-response","252","307197","0.0-13.0-2.13","ITJEZmmnmw","5ae3223938df950001455e66","6617fad957f7c6a12ea16e26","6622cebbc253f2e616097071","mask grid","p","","","","","Ontogenetic_Distractor_Nonthreat_target","800","onmask","p","4","Ontogenetic","true","experimental"
"","null","html-keyboard-response","253","307920","0.0-13.0-0.14","ITJEZmmnmw","5ae3223938df950001455e66","6617fad957f7c6a12ea16e26","6622cebbc253f2e616097071","fixation cross","null","","","","","","","","","","","",""
"","701","html-keyboard-response","254","308621","0.0-13.0-1.14","ITJEZmmnmw","5ae3223938df950001455e66","6617fad957f7c6a12ea16e26","6622cebbc253f2e616097071","image grid","p","","","","","Ontogenetic_Distractor_Nonthreat_target","800","ongrid","p","2","Ontogenetic","true","experimental"
"","null","html-keyboard-response","255","308773","0.0-13.0-2.14","ITJEZmmnmw","5ae3223938df950001455e66","6617fad957f7c6a12ea16e26","6622cebbc253f2e616097071","
    <div id=""grid-container"">
        <!-- Grid items will be dynamically added here -->
    </div>    ","null","","","","","","","","","","","",""
"","null","html-keyboard-response","256","309487","0.0-13.0-0.15","ITJEZmmnmw","5ae3223938df950001455e66","6617fad957f7c6a12ea16e26","6622cebbc253f2e616097071","fixation cross","null","","","","","","","","","","","",""
"","null","html-keyboard-response","257","310302","0.0-13.0-1.15","ITJEZmmnmw","5ae3223938df950001455e66","6617fad957f7c6a12ea16e26","6622cebbc253f2e616097071","
        <div id=""grid-container"">
        <!-- Grid items will be dynamically added here -->
    </div>    ","null","","","","","","","","","","","",""
"","1463","html-keyboard-response","258","310965","0.0-13.0-2.15","ITJEZmmnmw","5ae3223938df950001455e66","6617fad957f7c6a12ea16e26","6622cebbc253f2e616097071","mask grid","p","","","","","Ontogenetic_Distractor_Nonthreat_target","800","onmask","p","9","Ontogenetic","true","experimental"
"","null","html-keyboard-response","259","311687","0.0-13.0-0.16","ITJEZmmnmw","5ae3223938df950001455e66","6617fad957f7c6a12ea16e26","6622cebbc253f2e616097071","fixation cross","null","","","","","","","","","","","",""
"","null","html-keyboard-response","260","312502","0.0-13.0-1.16","ITJEZmmnmw","5ae3223938df950001455e66","6617fad957f7c6a12ea16e26","6622cebbc253f2e616097071","
        <div id=""grid-container"">
        <!-- Grid items will be dynamically added here -->
    </div>    ","null","","","","","","","","","","","",""
"","895","html-keyboard-response","261","312597","0.0-13.0-2.16","ITJEZmmnmw","5ae3223938df950001455e66","6617fad957f7c6a12ea16e26","6622cebbc253f2e616097071","mask grid","p","","","","","Ontogenetic_Distractor_Nonthreat_target","800","onmask","p","9","Ontogenetic","true","experimental"
"","null","html-keyboard-response","262","313320","0.0-13.0-0.17","ITJEZmmnmw","5ae3223938df950001455e66","6617fad957f7c6a12ea16e26","6622cebbc253f2e616097071","fixation cross","null","","","","","","","","","","","",""
"","null","html-keyboard-response","263","314136","0.0-13.0-1.17","ITJEZmmnmw","5ae3223938df950001455e66","6617fad957f7c6a12ea16e26","6622cebbc253f2e616097071","
        <div id=""grid-container"">
        <!-- Grid items will be dynamically added here -->
    </div>    ","null","","","","","","","","","","","",""
"","1485","html-keyboard-response","264","314821","0.0-13.0-2.17","ITJEZmmnmw","5ae3223938df950001455e66","6617fad957f7c6a12ea16e26","6622cebbc253f2e616097071","mask grid"," ","","","","","Ontogenetic_Distractor_notarget","800","onmask"," ","1","Ontogenetic","true","experimental"
"","null","html-keyboard-response","265","315537","0.0-13.0-0.18","ITJEZmmnmw","5ae3223938df950001455e66","6617fad957f7c6a12ea16e26","6622cebbc253f2e616097071","fixation cross","null","","","","","","","","","","","",""
"","null","html-keyboard-response","266","316349","0.0-13.0-1.18","ITJEZmmnmw","5ae3223938df950001455e66","6617fad957f7c6a12ea16e26","6622cebbc253f2e616097071","
        <div id=""grid-container"">
        <!-- Grid items will be dynamically added here -->
    </div>    ","null","","","","","","","","","","","",""
"","816","html-keyboard-response","267","316365","0.0-13.0-2.18","ITJEZmmnmw","5ae3223938df950001455e66","6617fad957f7c6a12ea16e26","6622cebbc253f2e616097071","mask grid","q","","","","","Ontogenetic_Distractor_Threat_target","800","onmask","q","7","Ontogenetic","true","experimental"
"","null","html-keyboard-response","268","317087","0.0-13.0-0.19","ITJEZmmnmw","5ae3223938df950001455e66","6617fad957f7c6a12ea16e26","6622cebbc253f2e616097071","fixation cross","null","","","","","","","","","","","",""
"","null","html-keyboard-response","269","317889","0.0-13.0-1.19","ITJEZmmnmw","5ae3223938df950001455e66","6617fad957f7c6a12ea16e26","6622cebbc253f2e616097071","
        <div id=""grid-container"">
        <!-- Grid items will be dynamically added here -->
    </div>    ","null","","","","","","","","","","","",""
"","900","html-keyboard-response","270","317989","0.0-13.0-2.19","ITJEZmmnmw","5ae3223938df950001455e66","6617fad957f7c6a12ea16e26","6622cebbc253f2e616097071","mask grid","q","","","","","Ontogenetic_Distractor_Threat_target","800","onmask","q","5","Ontogenetic","true","experimental"
"","null","html-keyboard-response","271","318704","0.0-13.0-0.20","ITJEZmmnmw","5ae3223938df950001455e66","6617fad957f7c6a12ea16e26","6622cebbc253f2e616097071","fixation cross","null","","","","","","","","","","","",""
"","null","html-keyboard-response","272","319507","0.0-13.0-1.20","ITJEZmmnmw","5ae3223938df950001455e66","6617fad957f7c6a12ea16e26","6622cebbc253f2e616097071","
        <div id=""grid-container"">
        <!-- Grid items will be dynamically added here -->
    </div>    ","null","","","","","","","","","","","",""
"","834","html-keyboard-response","273","319541","0.0-13.0-2.20","ITJEZmmnmw","5ae3223938df950001455e66","6617fad957f7c6a12ea16e26","6622cebbc253f2e616097071","mask grid","q","","","","","Ontogenetic_Distractor_Threat_target","800","onmask","q","3","Ontogenetic","true","experimental"
"","null","html-keyboard-response","274","320271","0.0-13.0-0.21","ITJEZmmnmw","5ae3223938df950001455e66","6617fad957f7c6a12ea16e26","6622cebbc253f2e616097071","fixation cross","null","","","","","","","","","","","",""
"","null","html-keyboard-response","275","321086","0.0-13.0-1.21","ITJEZmmnmw","5ae3223938df950001455e66","6617fad957f7c6a12ea16e26","6622cebbc253f2e616097071","
        <div id=""grid-container"">
        <!-- Grid items will be dynamically added here -->
    </div>    ","null","","","","","","","","","","","",""
"","1399","html-keyboard-response","276","321685","0.0-13.0-2.21","ITJEZmmnmw","5ae3223938df950001455e66","6617fad957f7c6a12ea16e26","6622cebbc253f2e616097071","mask grid","p","","","","","Ontogenetic_Distractor_Nonthreat_target","800","onmask","p","9","Ontogenetic","true","experimental"
"","null","html-keyboard-response","277","322404","0.0-13.0-0.22","ITJEZmmnmw","5ae3223938df950001455e66","6617fad957f7c6a12ea16e26","6622cebbc253f2e616097071","fixation cross","null","","","","","","","","","","","",""
"","null","html-keyboard-response","278","323213","0.0-13.0-1.22","ITJEZmmnmw","5ae3223938df950001455e66","6617fad957f7c6a12ea16e26","6622cebbc253f2e616097071","
        <div id=""grid-container"">
        <!-- Grid items will be dynamically added here -->
    </div>    ","null","","","","","","","","","","","",""
"","1208","html-keyboard-response","279","323621","0.0-13.0-2.22","ITJEZmmnmw","5ae3223938df950001455e66","6617fad957f7c6a12ea16e26","6622cebbc253f2e616097071","mask grid","p","","","","","Ontogenetic_Distractor_Nonthreat_target","800","onmask","p","7","Ontogenetic","true","experimental"
"","null","html-keyboard-response","280","324338","0.0-13.0-0.23","ITJEZmmnmw","5ae3223938df950001455e66","6617fad957f7c6a12ea16e26","6622cebbc253f2e616097071","fixation cross","null","","","","","","","","","","","",""
"","null","html-keyboard-response","281","325153","0.0-13.0-1.23","ITJEZmmnmw","5ae3223938df950001455e66","6617fad957f7c6a12ea16e26","6622cebbc253f2e616097071","
        <div id=""grid-container"">
        <!-- Grid items will be dynamically added here -->
    </div>    ","null","","","","","","","","","","","",""
"","1316","html-keyboard-response","282","325669","0.0-13.0-2.23","ITJEZmmnmw","5ae3223938df950001455e66","6617fad957f7c6a12ea16e26","6622cebbc253f2e616097071","mask grid","p","","","","","Ontogenetic_Distractor_Nonthreat_target","800","onmask","p","4","Ontogenetic","true","experimental"
"","null","html-keyboard-response","283","326388","0.0-13.0-0.24","ITJEZmmnmw","5ae3223938df950001455e66","6617fad957f7c6a12ea16e26","6622cebbc253f2e616097071","fixation cross","null","","","","","","","","","","","",""
"","null","html-keyboard-response","284","327192","0.0-13.0-1.24","ITJEZmmnmw","5ae3223938df950001455e66","6617fad957f7c6a12ea16e26","6622cebbc253f2e616097071","
        <div id=""grid-container"">
        <!-- Grid items will be dynamically added here -->
    </div>    ","null","","","","","","","","","","","",""
"","2197","html-keyboard-response","285","328589","0.0-13.0-2.24","ITJEZmmnmw","5ae3223938df950001455e66","6617fad957f7c6a12ea16e26","6622cebbc253f2e616097071","mask grid"," ","","","","","Ontogenetic_Distractor_Threat_target","800","onmask","q","7","Ontogenetic","false","experimental"
"","null","html-keyboard-response","286","329305","0.0-13.0-0.25","ITJEZmmnmw","5ae3223938df950001455e66","6617fad957f7c6a12ea16e26","6622cebbc253f2e616097071","fixation cross","null","","","","","","","","","","","",""
"","null","html-keyboard-response","287","330108","0.0-13.0-1.25","ITJEZmmnmw","5ae3223938df950001455e66","6617fad957f7c6a12ea16e26","6622cebbc253f2e616097071","
        <div id=""grid-container"">
        <!-- Grid items will be dynamically added here -->
    </div>    ","null","","","","","","","","","","","",""
"","1266","html-keyboard-response","288","330574","0.0-13.0-2.25","ITJEZmmnmw","5ae3223938df950001455e66","6617fad957f7c6a12ea16e26","6622cebbc253f2e616097071","mask grid","q","","","","","Ontogenetic_Distractor_Threat_target","800","onmask","q","2","Ontogenetic","true","experimental"
"","null","html-keyboard-response","289","331288","0.0-13.0-0.26","ITJEZmmnmw","5ae3223938df950001455e66","6617fad957f7c6a12ea16e26","6622cebbc253f2e616097071","fixation cross","null","","","","","","","","","","","",""
"","805","html-keyboard-response","290","332093","0.0-13.0-1.26","ITJEZmmnmw","5ae3223938df950001455e66","6617fad957f7c6a12ea16e26","6622cebbc253f2e616097071","image grid","q","","","","","Ontogenetic_Distractor_Threat_target","800","ongrid","q","6","Ontogenetic","true","experimental"
"","null","html-keyboard-response","291","332247","0.0-13.0-2.26","ITJEZmmnmw","5ae3223938df950001455e66","6617fad957f7c6a12ea16e26","6622cebbc253f2e616097071","
    <div id=""grid-container"">
        <!-- Grid items will be dynamically added here -->
    </div>    ","null","","","","","","","","","","","",""
"","null","html-keyboard-response","292","332972","0.0-13.0-0.27","ITJEZmmnmw","5ae3223938df950001455e66","6617fad957f7c6a12ea16e26","6622cebbc253f2e616097071","fixation cross","null","","","","","","","","","","","",""
"","null","html-keyboard-response","293","333774","0.0-13.0-1.27","ITJEZmmnmw","5ae3223938df950001455e66","6617fad957f7c6a12ea16e26","6622cebbc253f2e616097071","
        <div id=""grid-container"">
        <!-- Grid items will be dynamically added here -->
    </div>    ","null","","","","","","","","","","","",""
"","1670","html-keyboard-response","294","334645","0.0-13.0-2.27","ITJEZmmnmw","5ae3223938df950001455e66","6617fad957f7c6a12ea16e26","6622cebbc253f2e616097071","mask grid"," ","","","","","Ontogenetic_Distractor_Threat_target","800","onmask","q","1","Ontogenetic","false","experimental"
"","null","html-keyboard-response","295","335372","0.0-13.0-0.28","ITJEZmmnmw","5ae3223938df950001455e66","6617fad957f7c6a12ea16e26","6622cebbc253f2e616097071","fixation cross","null","","","","","","","","","","","",""
"","null","html-keyboard-response","296","336187","0.0-13.0-1.28","ITJEZmmnmw","5ae3223938df950001455e66","6617fad957f7c6a12ea16e26","6622cebbc253f2e616097071","
        <div id=""grid-container"">
        <!-- Grid items will be dynamically added here -->
    </div>    ","null","","","","","","","","","","","",""
"","930","html-keyboard-response","297","336317","0.0-13.0-2.28","ITJEZmmnmw","5ae3223938df950001455e66","6617fad957f7c6a12ea16e26","6622cebbc253f2e616097071","mask grid","p","","","","","Ontogenetic_Distractor_Nonthreat_target","800","onmask","p","8","Ontogenetic","true","experimental"
"","null","html-keyboard-response","298","337038","0.0-13.0-0.29","ITJEZmmnmw","5ae3223938df950001455e66","6617fad957f7c6a12ea16e26","6622cebbc253f2e616097071","fixation cross","null","","","","","","","","","","","",""
"","null","html-keyboard-response","299","337854","0.0-13.0-1.29","ITJEZmmnmw","5ae3223938df950001455e66","6617fad957f7c6a12ea16e26","6622cebbc253f2e616097071","
        <div id=""grid-container"">
        <!-- Grid items will be dynamically added here -->
    </div>    ","null","","","","","","","","","","","",""
"","1279","html-keyboard-response","300","338333","0.0-13.0-2.29","ITJEZmmnmw","5ae3223938df950001455e66","6617fad957f7c6a12ea16e26","6622cebbc253f2e616097071","mask grid","p","","","","","Ontogenetic_Distractor_Nonthreat_target","800","onmask","p","1","Ontogenetic","true","experimental"
"","null","html-keyboard-response","301","339055","0.0-13.0-0.30","ITJEZmmnmw","5ae3223938df950001455e66","6617fad957f7c6a12ea16e26","6622cebbc253f2e616097071","fixation cross","null","","","","","","","","","","","",""
"","null","html-keyboard-response","302","339858","0.0-13.0-1.30","ITJEZmmnmw","5ae3223938df950001455e66","6617fad957f7c6a12ea16e26","6622cebbc253f2e616097071","
        <div id=""grid-container"">
        <!-- Grid items will be dynamically added here -->
    </div>    ","null","","","","","","","","","","","",""
"","827","html-keyboard-response","303","339885","0.0-13.0-2.30","ITJEZmmnmw","5ae3223938df950001455e66","6617fad957f7c6a12ea16e26","6622cebbc253f2e616097071","mask grid","q","","","","","Ontogenetic_Distractor_Threat_target","800","onmask","q","1","Ontogenetic","true","experimental"
"","null","html-keyboard-response","304","340605","0.0-13.0-0.31","ITJEZmmnmw","5ae3223938df950001455e66","6617fad957f7c6a12ea16e26","6622cebbc253f2e616097071","fixation cross","null","","","","","","","","","","","",""
"","655","html-keyboard-response","305","341261","0.0-13.0-1.31","ITJEZmmnmw","5ae3223938df950001455e66","6617fad957f7c6a12ea16e26","6622cebbc253f2e616097071","image grid","q","","","","","Ontogenetic_Distractor_Threat_target","800","ongrid","q","9","Ontogenetic","true","experimental"
"","null","html-keyboard-response","306","341413","0.0-13.0-2.31","ITJEZmmnmw","5ae3223938df950001455e66","6617fad957f7c6a12ea16e26","6622cebbc253f2e616097071","
    <div id=""grid-container"">
        <!-- Grid items will be dynamically added here -->
    </div>    ","null","","","","","","","","","","","",""
"","null","html-keyboard-response","307","342139","0.0-13.0-0.32","ITJEZmmnmw","5ae3223938df950001455e66","6617fad957f7c6a12ea16e26","6622cebbc253f2e616097071","fixation cross","null","","","","","","","","","","","",""
"","null","html-keyboard-response","308","342945","0.0-13.0-1.32","ITJEZmmnmw","5ae3223938df950001455e66","6617fad957f7c6a12ea16e26","6622cebbc253f2e616097071","
        <div id=""grid-container"">
        <!-- Grid items will be dynamically added here -->
    </div>    ","null","","","","","","","","","","","",""
"","1284","html-keyboard-response","309","343429","0.0-13.0-2.32","ITJEZmmnmw","5ae3223938df950001455e66","6617fad957f7c6a12ea16e26","6622cebbc253f2e616097071","mask grid","p","","","","","Ontogenetic_Distractor_Nonthreat_target","800","onmask","p","2","Ontogenetic","true","experimental"
"","null","html-keyboard-response","310","344156","0.0-13.0-0.33","ITJEZmmnmw","5ae3223938df950001455e66","6617fad957f7c6a12ea16e26","6622cebbc253f2e616097071","fixation cross","null","","","","","","","","","","","",""
"","null","html-keyboard-response","311","344958","0.0-13.0-1.33","ITJEZmmnmw","5ae3223938df950001455e66","6617fad957f7c6a12ea16e26","6622cebbc253f2e616097071","
        <div id=""grid-container"">
        <!-- Grid items will be dynamically added here -->
    </div>    ","null","","","","","","","","","","","",""
"","800","html-keyboard-response","312","349968","0.0-13.0-2.33","ITJEZmmnmw","5ae3223938df950001455e66","6617fad957f7c6a12ea16e26","6622cebbc253f2e616097071","mask grid","null","","","","","Ontogenetic_Distractor_Threat_target","800","onmask","q","7","Ontogenetic","false","experimental"
"","null","html-keyboard-response","313","350690","0.0-13.0-0.34","ITJEZmmnmw","5ae3223938df950001455e66","6617fad957f7c6a12ea16e26","6622cebbc253f2e616097071","fixation cross","null","","","","","","","","","","","",""
"","null","html-keyboard-response","314","351492","0.0-13.0-1.34","ITJEZmmnmw","5ae3223938df950001455e66","6617fad957f7c6a12ea16e26","6622cebbc253f2e616097071","
        <div id=""grid-container"">
        <!-- Grid items will be dynamically added here -->
    </div>    ","null","","","","","","","","","","","",""
"","1065","html-keyboard-response","315","351757","0.0-13.0-2.34","ITJEZmmnmw","5ae3223938df950001455e66","6617fad957f7c6a12ea16e26","6622cebbc253f2e616097071","mask grid","q","","","","","Ontogenetic_Distractor_Threat_target","800","onmask","q","2","Ontogenetic","true","experimental"
"","null","html-keyboard-response","316","352473","0.0-13.0-0.35","ITJEZmmnmw","5ae3223938df950001455e66","6617fad957f7c6a12ea16e26","6622cebbc253f2e616097071","fixation cross","null","","","","","","","","","","","",""
"","null","html-keyboard-response","317","353279","0.0-13.0-1.35","ITJEZmmnmw","5ae3223938df950001455e66","6617fad957f7c6a12ea16e26","6622cebbc253f2e616097071","
        <div id=""grid-container"">
        <!-- Grid items will be dynamically added here -->
    </div>    ","null","","","","","","","","","","","",""
"","1606","html-keyboard-response","318","354085","0.0-13.0-2.35","ITJEZmmnmw","5ae3223938df950001455e66","6617fad957f7c6a12ea16e26","6622cebbc253f2e616097071","mask grid","p","","","","","Ontogenetic_Distractor_Nonthreat_target","800","onmask","p","2","Ontogenetic","true","experimental"
"","null","html-keyboard-response","319","354806","0.0-13.0-0.36","ITJEZmmnmw","5ae3223938df950001455e66","6617fad957f7c6a12ea16e26","6622cebbc253f2e616097071","fixation cross","null","","","","","","","","","","","",""
"","null","html-keyboard-response","320","355622","0.0-13.0-1.36","ITJEZmmnmw","5ae3223938df950001455e66","6617fad957f7c6a12ea16e26","6622cebbc253f2e616097071","
        <div id=""grid-container"">
        <!-- Grid items will be dynamically added here -->
    </div>    ","null","","","","","","","","","","","",""
"","878","html-keyboard-response","321","355701","0.0-13.0-2.36","ITJEZmmnmw","5ae3223938df950001455e66","6617fad957f7c6a12ea16e26","6622cebbc253f2e616097071","mask grid","q","","","","","Ontogenetic_Distractor_Threat_target","800","onmask","q","1","Ontogenetic","true","experimental"
"","null","html-keyboard-response","322","356423","0.0-13.0-0.37","ITJEZmmnmw","5ae3223938df950001455e66","6617fad957f7c6a12ea16e26","6622cebbc253f2e616097071","fixation cross","null","","","","","","","","","","","",""
"","null","html-keyboard-response","323","357224","0.0-13.0-1.37","ITJEZmmnmw","5ae3223938df950001455e66","6617fad957f7c6a12ea16e26","6622cebbc253f2e616097071","
        <div id=""grid-container"">
        <!-- Grid items will be dynamically added here -->
    </div>    ","null","","","","","","","","","","","",""
"","933","html-keyboard-response","324","357357","0.0-13.0-2.37","ITJEZmmnmw","5ae3223938df950001455e66","6617fad957f7c6a12ea16e26","6622cebbc253f2e616097071","mask grid","q","","","","","Ontogenetic_Distractor_Threat_target","800","onmask","q","7","Ontogenetic","true","experimental"
"","null","html-keyboard-response","325","358073","0.0-13.0-0.38","ITJEZmmnmw","5ae3223938df950001455e66","6617fad957f7c6a12ea16e26","6622cebbc253f2e616097071","fixation cross","null","","","","","","","","","","","",""
"","null","html-keyboard-response","326","358889","0.0-13.0-1.38","ITJEZmmnmw","5ae3223938df950001455e66","6617fad957f7c6a12ea16e26","6622cebbc253f2e616097071","
        <div id=""grid-container"">
        <!-- Grid items will be dynamically added here -->
    </div>    ","null","","","","","","","","","","","",""
"","1164","html-keyboard-response","327","359253","0.0-13.0-2.38","ITJEZmmnmw","5ae3223938df950001455e66","6617fad957f7c6a12ea16e26","6622cebbc253f2e616097071","mask grid","p","","","","","Ontogenetic_Distractor_Nonthreat_target","800","onmask","p","5","Ontogenetic","true","experimental"
"","null","html-keyboard-response","328","359973","0.0-13.0-0.39","ITJEZmmnmw","5ae3223938df950001455e66","6617fad957f7c6a12ea16e26","6622cebbc253f2e616097071","fixation cross","null","","","","","","","","","","","",""
"","727","html-keyboard-response","329","360701","0.0-13.0-1.39","ITJEZmmnmw","5ae3223938df950001455e66","6617fad957f7c6a12ea16e26","6622cebbc253f2e616097071","image grid","q","","","","","Ontogenetic_Distractor_Threat_target","800","ongrid","q","3","Ontogenetic","true","experimental"
"","null","html-keyboard-response","330","360861","0.0-13.0-2.39","ITJEZmmnmw","5ae3223938df950001455e66","6617fad957f7c6a12ea16e26","6622cebbc253f2e616097071","
    <div id=""grid-container"">
        <!-- Grid items will be dynamically added here -->
    </div>    ","null","","","","","","","","","","","",""
"","113047","html-keyboard-response","331","474124","0.0-14.0","ITJEZmmnmw","5ae3223938df950001455e66","6617fad957f7c6a12ea16e26","6622cebbc253f2e616097071","break screen"," ","","","","","","","","","","","",""
"","null","html-keyboard-response","332","476641","0.0-15.0-0.0","ITJEZmmnmw","5ae3223938df950001455e66","6617fad957f7c6a12ea16e26","6622cebbc253f2e616097071","fixation cross","null","","","","","","","","","","","",""
"","null","html-keyboard-response","333","477454","0.0-15.0-1.0","ITJEZmmnmw","5ae3223938df950001455e66","6617fad957f7c6a12ea16e26","6622cebbc253f2e616097071","
        <div id=""grid-container"">
        <!-- Grid items will be dynamically added here -->
    </div>    ","null","","","","","","","","","","","",""
"","1350","html-keyboard-response","334","478004","0.0-15.0-2.0","ITJEZmmnmw","5ae3223938df950001455e66","6617fad957f7c6a12ea16e26","6622cebbc253f2e616097071","mask grid","p","","","","","Ontogenetic_Distractor_Nonthreat_target","800","onmask","p","8","Ontogenetic","true","experimental"
"","null","html-keyboard-response","335","478718","0.0-15.0-0.1","ITJEZmmnmw","5ae3223938df950001455e66","6617fad957f7c6a12ea16e26","6622cebbc253f2e616097071","fixation cross","null","","","","","","","","","","","",""
"","null","html-keyboard-response","336","479531","0.0-15.0-1.1","ITJEZmmnmw","5ae3223938df950001455e66","6617fad957f7c6a12ea16e26","6622cebbc253f2e616097071","
        <div id=""grid-container"">
        <!-- Grid items will be dynamically added here -->
    </div>    ","null","","","","","","","","","","","",""
"","1352","html-keyboard-response","337","480084","0.0-15.0-2.1","ITJEZmmnmw","5ae3223938df950001455e66","6617fad957f7c6a12ea16e26","6622cebbc253f2e616097071","mask grid"," ","","","","","Ontogenetic_Distractor_Nonthreat_target","800","onmask","p","6","Ontogenetic","false","experimental"
"","null","html-keyboard-response","338","480812","0.0-15.0-0.2","ITJEZmmnmw","5ae3223938df950001455e66","6617fad957f7c6a12ea16e26","6622cebbc253f2e616097071","fixation cross","null","","","","","","","","","","","",""
"","711","html-keyboard-response","339","481524","0.0-15.0-1.2","ITJEZmmnmw","5ae3223938df950001455e66","6617fad957f7c6a12ea16e26","6622cebbc253f2e616097071","image grid","q","","","","","Ontogenetic_Distractor_Threat_target","800","ongrid","q","2","Ontogenetic","true","experimental"
"","null","html-keyboard-response","340","481687","0.0-15.0-2.2","ITJEZmmnmw","5ae3223938df950001455e66","6617fad957f7c6a12ea16e26","6622cebbc253f2e616097071","
    <div id=""grid-container"">
        <!-- Grid items will be dynamically added here -->
    </div>    ","null","","","","","","","","","","","",""
"","null","html-keyboard-response","341","482405","0.0-15.0-0.3","ITJEZmmnmw","5ae3223938df950001455e66","6617fad957f7c6a12ea16e26","6622cebbc253f2e616097071","fixation cross","null","","","","","","","","","","","",""
"","790","html-keyboard-response","342","483196","0.0-15.0-1.3","ITJEZmmnmw","5ae3223938df950001455e66","6617fad957f7c6a12ea16e26","6622cebbc253f2e616097071","image grid","q","","","","","Ontogenetic_Distractor_Threat_target","800","ongrid","q","9","Ontogenetic","true","experimental"
"","null","html-keyboard-response","343","483357","0.0-15.0-2.3","ITJEZmmnmw","5ae3223938df950001455e66","6617fad957f7c6a12ea16e26","6622cebbc253f2e616097071","
    <div id=""grid-container"">
        <!-- Grid items will be dynamically added here -->
    </div>    ","null","","","","","","","","","","","",""
"","null","html-keyboard-response","344","484078","0.0-15.0-0.4","ITJEZmmnmw","5ae3223938df950001455e66","6617fad957f7c6a12ea16e26","6622cebbc253f2e616097071","fixation cross","null","","","","","","","","","","","",""
"","733","html-keyboard-response","345","484812","0.0-15.0-1.4","ITJEZmmnmw","5ae3223938df950001455e66","6617fad957f7c6a12ea16e26","6622cebbc253f2e616097071","image grid","q","","","","","Ontogenetic_Distractor_Threat_target","800","ongrid","q","6","Ontogenetic","true","experimental"
"","null","html-keyboard-response","346","484968","0.0-15.0-2.4","ITJEZmmnmw","5ae3223938df950001455e66","6617fad957f7c6a12ea16e26","6622cebbc253f2e616097071","
    <div id=""grid-container"">
        <!-- Grid items will be dynamically added here -->
    </div>    ","null","","","","","","","","","","","",""
"","null","html-keyboard-response","347","485672","0.0-15.0-0.5","ITJEZmmnmw","5ae3223938df950001455e66","6617fad957f7c6a12ea16e26","6622cebbc253f2e616097071","fixation cross","null","","","","","","","","","","","",""
"","null","html-keyboard-response","348","486484","0.0-15.0-1.5","ITJEZmmnmw","5ae3223938df950001455e66","6617fad957f7c6a12ea16e26","6622cebbc253f2e616097071","
        <div id=""grid-container"">
        <!-- Grid items will be dynamically added here -->
    </div>    ","null","","","","","","","","","","","",""
"","1304","html-keyboard-response","349","486989","0.0-15.0-2.5","ITJEZmmnmw","5ae3223938df950001455e66","6617fad957f7c6a12ea16e26","6622cebbc253f2e616097071","mask grid","q","","","","","Ontogenetic_Distractor_Threat_target","800","onmask","q","2","Ontogenetic","true","experimental"
"","null","html-keyboard-response","350","487719","0.0-15.0-0.6","ITJEZmmnmw","5ae3223938df950001455e66","6617fad957f7c6a12ea16e26","6622cebbc253f2e616097071","fixation cross","null","","","","","","","","","","","",""
"","null","html-keyboard-response","351","488531","0.0-15.0-1.6","ITJEZmmnmw","5ae3223938df950001455e66","6617fad957f7c6a12ea16e26","6622cebbc253f2e616097071","
        <div id=""grid-container"">
        <!-- Grid items will be dynamically added here -->
    </div>    ","null","","","","","","","","","","","",""
"","937","html-keyboard-response","352","488668","0.0-15.0-2.6","ITJEZmmnmw","5ae3223938df950001455e66","6617fad957f7c6a12ea16e26","6622cebbc253f2e616097071","mask grid","p","","","","","Ontogenetic_Distractor_Nonthreat_target","800","onmask","p","7","Ontogenetic","true","experimental"
"","null","html-keyboard-response","353","489390","0.0-15.0-0.7","ITJEZmmnmw","5ae3223938df950001455e66","6617fad957f7c6a12ea16e26","6622cebbc253f2e616097071","fixation cross","null","","","","","","","","","","","",""
"","653","html-keyboard-response","354","490044","0.0-15.0-1.7","ITJEZmmnmw","5ae3223938df950001455e66","6617fad957f7c6a12ea16e26","6622cebbc253f2e616097071","image grid","p","","","","","Ontogenetic_Distractor_Nonthreat_target","800","ongrid","p","5","Ontogenetic","true","experimental"
"","null","html-keyboard-response","355","490203","0.0-15.0-2.7","ITJEZmmnmw","5ae3223938df950001455e66","6617fad957f7c6a12ea16e26","6622cebbc253f2e616097071","
    <div id=""grid-container"">
        <!-- Grid items will be dynamically added here -->
    </div>    ","null","","","","","","","","","","","",""
"","null","html-keyboard-response","356","490922","0.0-15.0-0.8","ITJEZmmnmw","5ae3223938df950001455e66","6617fad957f7c6a12ea16e26","6622cebbc253f2e616097071","fixation cross","null","","","","","","","","","","","",""
"","801","html-keyboard-response","357","491724","0.0-15.0-1.8","ITJEZmmnmw","5ae3223938df950001455e66","6617fad957f7c6a12ea16e26","6622cebbc253f2e616097071","image grid","q","","","","","Ontogenetic_Distractor_Threat_target","800","ongrid","q","7","Ontogenetic","true","experimental"
"","null","html-keyboard-response","358","491876","0.0-15.0-2.8","ITJEZmmnmw","5ae3223938df950001455e66","6617fad957f7c6a12ea16e26","6622cebbc253f2e616097071","
    <div id=""grid-container"">
        <!-- Grid items will be dynamically added here -->
    </div>    ","null","","","","","","","","","","","",""
"","null","html-keyboard-response","359","492594","0.0-15.0-0.9","ITJEZmmnmw","5ae3223938df950001455e66","6617fad957f7c6a12ea16e26","6622cebbc253f2e616097071","fixation cross","null","","","","","","","","","","","",""
"","null","html-keyboard-response","360","493407","0.0-15.0-1.9","ITJEZmmnmw","5ae3223938df950001455e66","6617fad957f7c6a12ea16e26","6622cebbc253f2e616097071","
        <div id=""grid-container"">
        <!-- Grid items will be dynamically added here -->
    </div>    ","null","","","","","","","","","","","",""
"","1524","html-keyboard-response","361","494132","0.0-15.0-2.9","ITJEZmmnmw","5ae3223938df950001455e66","6617fad957f7c6a12ea16e26","6622cebbc253f2e616097071","mask grid"," ","","","","","Ontogenetic_Distractor_notarget","800","onmask"," ","9","Ontogenetic","true","experimental"
"","null","html-keyboard-response","362","494859","0.0-15.0-0.10","ITJEZmmnmw","5ae3223938df950001455e66","6617fad957f7c6a12ea16e26","6622cebbc253f2e616097071","fixation cross","null","","","","","","","","","","","",""
"","704","html-keyboard-response","363","495563","0.0-15.0-1.10","ITJEZmmnmw","5ae3223938df950001455e66","6617fad957f7c6a12ea16e26","6622cebbc253f2e616097071","image grid","p","","","","","Ontogenetic_Distractor_Nonthreat_target","800","ongrid","p","6","Ontogenetic","true","experimental"
"","null","html-keyboard-response","364","495716","0.0-15.0-2.10","ITJEZmmnmw","5ae3223938df950001455e66","6617fad957f7c6a12ea16e26","6622cebbc253f2e616097071","
    <div id=""grid-container"">
        <!-- Grid items will be dynamically added here -->
    </div>    ","null","","","","","","","","","","","",""
"","null","html-keyboard-response","365","496422","0.0-15.0-0.11","ITJEZmmnmw","5ae3223938df950001455e66","6617fad957f7c6a12ea16e26","6622cebbc253f2e616097071","fixation cross","null","","","","","","","","","","","",""
"","677","html-keyboard-response","366","497100","0.0-15.0-1.11","ITJEZmmnmw","5ae3223938df950001455e66","6617fad957f7c6a12ea16e26","6622cebbc253f2e616097071","image grid","q","","","","","Ontogenetic_Distractor_Threat_target","800","ongrid","q","4","Ontogenetic","true","experimental"
"","null","html-keyboard-response","367","497266","0.0-15.0-2.11","ITJEZmmnmw","5ae3223938df950001455e66","6617fad957f7c6a12ea16e26","6622cebbc253f2e616097071","
    <div id=""grid-container"">
        <!-- Grid items will be dynamically added here -->
    </div>    ","null","","","","","","","","","","","",""
"","null","html-keyboard-response","368","497983","0.0-15.0-0.12","ITJEZmmnmw","5ae3223938df950001455e66","6617fad957f7c6a12ea16e26","6622cebbc253f2e616097071","fixation cross","null","","","","","","","","","","","",""
"","748","html-keyboard-response","369","498731","0.0-15.0-1.12","ITJEZmmnmw","5ae3223938df950001455e66","6617fad957f7c6a12ea16e26","6622cebbc253f2e616097071","image grid","p","","","","","Ontogenetic_Distractor_Nonthreat_target","800","ongrid","p","2","Ontogenetic","true","experimental"
