"success","rt","trial_type","trial_index","time_elapsed","internal_node_id","unique_identifier","subject_id","study_id","session_id","stimulus","response","timeout","failed_images","failed_audio","failed_video","task","time_manipulation","respondedwhen","correctresponse","targetimagelocation","blocktype","correct","roundtype"
"true","8627","fullscreen","0","9644","0.0-0.0","TZ8onuHLjt","569e9d738ad3f8000d742557","6617fad957f7c6a12ea16e26","6622cde914c78ce03ad32b55","","","","","","","","","","","","","",""
"","8254","html-keyboard-response","1","17899","0.0-1.0","TZ8onuHLjt","569e9d738ad3f8000d742557","6617fad957f7c6a12ea16e26","6622cde914c78ce03ad32b55","instruction screen 0","arrowright","","","","","","","","","","","",""
"true","","preload","2","37188","0.0-2.0","TZ8onuHLjt","569e9d738ad3f8000d742557","6617fad957f7c6a12ea16e26","6622cde914c78ce03ad32b55","","","false","[]","[]","[]","","","","","","","",""
"","8333","html-keyboard-response","3","45522","0.0-3.0","TZ8onuHLjt","569e9d738ad3f8000d742557","6617fad957f7c6a12ea16e26","6622cde914c78ce03ad32b55","instruction screen 1"," ","","","","","","","","","","","",""
"","5336","html-keyboard-response","4","50860","0.0-4.0","TZ8onuHLjt","569e9d738ad3f8000d742557","6617fad957f7c6a12ea16e26","6622cde914c78ce03ad32b55","instruction screen 2","q","","","","","","","","","","","",""
"","7927","html-keyboard-response","5","58789","0.0-5.0","TZ8onuHLjt","569e9d738ad3f8000d742557","6617fad957f7c6a12ea16e26","6622cde914c78ce03ad32b55","instruction screen 3","p","","","","","","","","","","","",""
"","7071","html-keyboard-response","6","65862","0.0-6.0","TZ8onuHLjt","569e9d738ad3f8000d742557","6617fad957f7c6a12ea16e26","6622cde914c78ce03ad32b55","instruction screen 4"," ","","","","","","","","","","","",""
"","9614","html-keyboard-response","7","75497","0.0-7.0","TZ8onuHLjt","569e9d738ad3f8000d742557","6617fad957f7c6a12ea16e26","6622cde914c78ce03ad32b55","instruction screen 5"," ","","","","","","","","","","","",""
"","null","html-keyboard-response","8","76018","0.0-8.0","TZ8onuHLjt","569e9d738ad3f8000d742557","6617fad957f7c6a12ea16e26","6622cde914c78ce03ad32b55","fixation cross","null","","","","","","","","","","","",""
"","null","html-keyboard-response","9","76533","0.0-9.0-0.0","TZ8onuHLjt","569e9d738ad3f8000d742557","6617fad957f7c6a12ea16e26","6622cde914c78ce03ad32b55","fixation cross","null","","","","","","","","","","","",""
"","1396","html-keyboard-response","10","77929","0.0-9.0-1.0","TZ8onuHLjt","569e9d738ad3f8000d742557","6617fad957f7c6a12ea16e26","6622cde914c78ce03ad32b55","image grid"," ","","","","","Ontogenetic_Distractor_Threat_target","3000","ongrid","q","7","Ontogenetic","false","practice"
"","null","html-keyboard-response","11","78087","0.0-9.0-2.0","TZ8onuHLjt","569e9d738ad3f8000d742557","6617fad957f7c6a12ea16e26","6622cde914c78ce03ad32b55","
    <div id=""grid-container"">
        <!-- Grid items will be dynamically added here -->
    </div>    ","null","","","","","","","","","","","",""
"","null","html-keyboard-response","12","79298","0.0-9.0-3.0","TZ8onuHLjt","569e9d738ad3f8000d742557","6617fad957f7c6a12ea16e26","6622cde914c78ce03ad32b55","feedback screen","null","","","","","","","","","","","",""
"","null","html-keyboard-response","13","79809","0.0-9.0-0.1","TZ8onuHLjt","569e9d738ad3f8000d742557","6617fad957f7c6a12ea16e26","6622cde914c78ce03ad32b55","fixation cross","null","","","","","","","","","","","",""
"","1555","html-keyboard-response","14","81364","0.0-9.0-1.1","TZ8onuHLjt","569e9d738ad3f8000d742557","6617fad957f7c6a12ea16e26","6622cde914c78ce03ad32b55","image grid","q","","","","","Phylogenetic_Distractor_Threat_target","2900","ongrid","q","4","Ontogenetic","true","practice"
"","null","html-keyboard-response","15","81528","0.0-9.0-2.1","TZ8onuHLjt","569e9d738ad3f8000d742557","6617fad957f7c6a12ea16e26","6622cde914c78ce03ad32b55","
    <div id=""grid-container"">
        <!-- Grid items will be dynamically added here -->
    </div>    ","null","","","","","","","","","","","",""
"","null","html-keyboard-response","16","82736","0.0-9.0-3.1","TZ8onuHLjt","569e9d738ad3f8000d742557","6617fad957f7c6a12ea16e26","6622cde914c78ce03ad32b55","feedback screen","null","","","","","","","","","","","",""
"","null","html-keyboard-response","17","83247","0.0-9.0-0.2","TZ8onuHLjt","569e9d738ad3f8000d742557","6617fad957f7c6a12ea16e26","6622cde914c78ce03ad32b55","fixation cross","null","","","","","","","","","","","",""
"","908","html-keyboard-response","18","84156","0.0-9.0-1.2","TZ8onuHLjt","569e9d738ad3f8000d742557","6617fad957f7c6a12ea16e26","6622cde914c78ce03ad32b55","image grid","q","","","","","Phylogenetic_Distractor_Threat_target","2800","ongrid","q","8","Ontogenetic","true","practice"
"","null","html-keyboard-response","19","84309","0.0-9.0-2.2","TZ8onuHLjt","569e9d738ad3f8000d742557","6617fad957f7c6a12ea16e26","6622cde914c78ce03ad32b55","
    <div id=""grid-container"">
        <!-- Grid items will be dynamically added here -->
    </div>    ","null","","","","","","","","","","","",""
"","null","html-keyboard-response","20","85531","0.0-9.0-3.2","TZ8onuHLjt","569e9d738ad3f8000d742557","6617fad957f7c6a12ea16e26","6622cde914c78ce03ad32b55","feedback screen","null","","","","","","","","","","","",""
"","null","html-keyboard-response","21","86045","0.0-9.0-0.3","TZ8onuHLjt","569e9d738ad3f8000d742557","6617fad957f7c6a12ea16e26","6622cde914c78ce03ad32b55","fixation cross","null","","","","","","","","","","","",""
"","1503","html-keyboard-response","22","87548","0.0-9.0-1.3","TZ8onuHLjt","569e9d738ad3f8000d742557","6617fad957f7c6a12ea16e26","6622cde914c78ce03ad32b55","image grid"," ","","","","","Ontogenetic_Distractor_notarget","2700","ongrid"," ","6","Ontogenetic","true","practice"
"","null","html-keyboard-response","23","87699","0.0-9.0-2.3","TZ8onuHLjt","569e9d738ad3f8000d742557","6617fad957f7c6a12ea16e26","6622cde914c78ce03ad32b55","
    <div id=""grid-container"">
        <!-- Grid items will be dynamically added here -->
    </div>    ","null","","","","","","","","","","","",""
"","null","html-keyboard-response","24","88917","0.0-9.0-3.3","TZ8onuHLjt","569e9d738ad3f8000d742557","6617fad957f7c6a12ea16e26","6622cde914c78ce03ad32b55","feedback screen","null","","","","","","","","","","","",""
"","null","html-keyboard-response","25","89428","0.0-9.0-0.4","TZ8onuHLjt","569e9d738ad3f8000d742557","6617fad957f7c6a12ea16e26","6622cde914c78ce03ad32b55","fixation cross","null","","","","","","","","","","","",""
"","1079","html-keyboard-response","26","90508","0.0-9.0-1.4","TZ8onuHLjt","569e9d738ad3f8000d742557","6617fad957f7c6a12ea16e26","6622cde914c78ce03ad32b55","image grid","p","","","","","Ontogenetic_Distractor_Nonthreat_target","2600","ongrid","p","2","Ontogenetic","true","practice"
"","null","html-keyboard-response","27","90667","0.0-9.0-2.4","TZ8onuHLjt","569e9d738ad3f8000d742557","6617fad957f7c6a12ea16e26","6622cde914c78ce03ad32b55","
    <div id=""grid-container"">
        <!-- Grid items will be dynamically added here -->
    </div>    ","null","","","","","","","","","","","",""
"","null","html-keyboard-response","28","91879","0.0-9.0-3.4","TZ8onuHLjt","569e9d738ad3f8000d742557","6617fad957f7c6a12ea16e26","6622cde914c78ce03ad32b55","feedback screen","null","","","","","","","","","","","",""
"","null","html-keyboard-response","29","92391","0.0-9.0-0.5","TZ8onuHLjt","569e9d738ad3f8000d742557","6617fad957f7c6a12ea16e26","6622cde914c78ce03ad32b55","fixation cross","null","","","","","","","","","","","",""
"","1229","html-keyboard-response","30","93621","0.0-9.0-1.5","TZ8onuHLjt","569e9d738ad3f8000d742557","6617fad957f7c6a12ea16e26","6622cde914c78ce03ad32b55","image grid","q","","","","","Ontogenetic_Distractor_Threat_target","2500","ongrid","q","3","Ontogenetic","true","practice"
"","null","html-keyboard-response","31","93771","0.0-9.0-2.5","TZ8onuHLjt","569e9d738ad3f8000d742557","6617fad957f7c6a12ea16e26","6622cde914c78ce03ad32b55","
    <div id=""grid-container"">
        <!-- Grid items will be dynamically added here -->
    </div>    ","null","","","","","","","","","","","",""
"","null","html-keyboard-response","32","94992","0.0-9.0-3.5","TZ8onuHLjt","569e9d738ad3f8000d742557","6617fad957f7c6a12ea16e26","6622cde914c78ce03ad32b55","feedback screen","null","","","","","","","","","","","",""
"","null","html-keyboard-response","33","95494","0.0-9.0-0.6","TZ8onuHLjt","569e9d738ad3f8000d742557","6617fad957f7c6a12ea16e26","6622cde914c78ce03ad32b55","fixation cross","null","","","","","","","","","","","",""
"","null","html-keyboard-response","34","97901","0.0-9.0-1.6","TZ8onuHLjt","569e9d738ad3f8000d742557","6617fad957f7c6a12ea16e26","6622cde914c78ce03ad32b55","
        <div id=""grid-container"">
        <!-- Grid items will be dynamically added here -->
    </div>    ","null","","","","","","","","","","","",""
"","2591","html-keyboard-response","35","98093","0.0-9.0-2.6","TZ8onuHLjt","569e9d738ad3f8000d742557","6617fad957f7c6a12ea16e26","6622cde914c78ce03ad32b55","mask grid","q","","","","","Phylogenetic_Distractor_Nonthreat_target","2400","onmask","p","7","Ontogenetic","false","practice"
"","154","html-keyboard-response","36","98460","0.0-9.0-3.6","TZ8onuHLjt","569e9d738ad3f8000d742557","6617fad957f7c6a12ea16e26","6622cde914c78ce03ad32b55","feedback screen","p","","","","","","","","","","","",""
"","null","html-keyboard-response","37","98975","0.0-9.0-0.7","TZ8onuHLjt","569e9d738ad3f8000d742557","6617fad957f7c6a12ea16e26","6622cde914c78ce03ad32b55","fixation cross","null","","","","","","","","","","","",""
"","null","html-keyboard-response","38","101289","0.0-9.0-1.7","TZ8onuHLjt","569e9d738ad3f8000d742557","6617fad957f7c6a12ea16e26","6622cde914c78ce03ad32b55","
        <div id=""grid-container"">
        <!-- Grid items will be dynamically added here -->
    </div>    ","null","","","","","","","","","","","",""
"","2575","html-keyboard-response","39","101564","0.0-9.0-2.7","TZ8onuHLjt","569e9d738ad3f8000d742557","6617fad957f7c6a12ea16e26","6622cde914c78ce03ad32b55","mask grid","p","","","","","Phylogenetic_Distractor_Nonthreat_target","2300","onmask","p","2","Ontogenetic","true","practice"
"","null","html-keyboard-response","40","102771","0.0-9.0-3.7","TZ8onuHLjt","569e9d738ad3f8000d742557","6617fad957f7c6a12ea16e26","6622cde914c78ce03ad32b55","feedback screen","null","","","","","","","","","","","",""
"","null","html-keyboard-response","41","103273","0.0-9.0-0.8","TZ8onuHLjt","569e9d738ad3f8000d742557","6617fad957f7c6a12ea16e26","6622cde914c78ce03ad32b55","fixation cross","null","","","","","","","","","","","",""
"","830","html-keyboard-response","42","104102","0.0-9.0-1.8","TZ8onuHLjt","569e9d738ad3f8000d742557","6617fad957f7c6a12ea16e26","6622cde914c78ce03ad32b55","image grid","q","","","","","Phylogenetic_Distractor_Threat_target","2200","ongrid","q","5","Ontogenetic","true","practice"
"","null","html-keyboard-response","43","104266","0.0-9.0-2.8","TZ8onuHLjt","569e9d738ad3f8000d742557","6617fad957f7c6a12ea16e26","6622cde914c78ce03ad32b55","
    <div id=""grid-container"">
        <!-- Grid items will be dynamically added here -->
    </div>    ","null","","","","","","","","","","","",""
"","null","html-keyboard-response","44","105476","0.0-9.0-3.8","TZ8onuHLjt","569e9d738ad3f8000d742557","6617fad957f7c6a12ea16e26","6622cde914c78ce03ad32b55","feedback screen","null","","","","","","","","","","","",""
"","null","html-keyboard-response","45","105988","0.0-9.0-0.9","TZ8onuHLjt","569e9d738ad3f8000d742557","6617fad957f7c6a12ea16e26","6622cde914c78ce03ad32b55","fixation cross","null","","","","","","","","","","","",""
"","1859","html-keyboard-response","46","107847","0.0-9.0-1.9","TZ8onuHLjt","569e9d738ad3f8000d742557","6617fad957f7c6a12ea16e26","6622cde914c78ce03ad32b55","image grid","p","","","","","Phylogenetic_Distractor_Nonthreat_target","2100","ongrid","p","2","Ontogenetic","true","practice"
"","null","html-keyboard-response","47","108007","0.0-9.0-2.9","TZ8onuHLjt","569e9d738ad3f8000d742557","6617fad957f7c6a12ea16e26","6622cde914c78ce03ad32b55","
    <div id=""grid-container"">
        <!-- Grid items will be dynamically added here -->
    </div>    ","null","","","","","","","","","","","",""
"","null","html-keyboard-response","48","109220","0.0-9.0-3.9","TZ8onuHLjt","569e9d738ad3f8000d742557","6617fad957f7c6a12ea16e26","6622cde914c78ce03ad32b55","feedback screen","null","","","","","","","","","","","",""
"","null","html-keyboard-response","49","109734","0.0-9.0-0.10","TZ8onuHLjt","569e9d738ad3f8000d742557","6617fad957f7c6a12ea16e26","6622cde914c78ce03ad32b55","fixation cross","null","","","","","","","","","","","",""
"","1849","html-keyboard-response","50","111583","0.0-9.0-1.10","TZ8onuHLjt","569e9d738ad3f8000d742557","6617fad957f7c6a12ea16e26","6622cde914c78ce03ad32b55","image grid"," ","","","","","Phylogenetic_Distractor_notarget","2000","ongrid"," ","8","Ontogenetic","true","practice"
"","null","html-keyboard-response","51","111742","0.0-9.0-2.10","TZ8onuHLjt","569e9d738ad3f8000d742557","6617fad957f7c6a12ea16e26","6622cde914c78ce03ad32b55","
    <div id=""grid-container"">
        <!-- Grid items will be dynamically added here -->
    </div>    ","null","","","","","","","","","","","",""
"","null","html-keyboard-response","52","112949","0.0-9.0-3.10","TZ8onuHLjt","569e9d738ad3f8000d742557","6617fad957f7c6a12ea16e26","6622cde914c78ce03ad32b55","feedback screen","null","","","","","","","","","","","",""
"","null","html-keyboard-response","53","113464","0.0-9.0-0.11","TZ8onuHLjt","569e9d738ad3f8000d742557","6617fad957f7c6a12ea16e26","6622cde914c78ce03ad32b55","fixation cross","null","","","","","","","","","","","",""
"","752","html-keyboard-response","54","114217","0.0-9.0-1.11","TZ8onuHLjt","569e9d738ad3f8000d742557","6617fad957f7c6a12ea16e26","6622cde914c78ce03ad32b55","image grid","p","","","","","Ontogenetic_Distractor_Nonthreat_target","1900","ongrid","p","2","Ontogenetic","true","practice"
"","null","html-keyboard-response","55","114376","0.0-9.0-2.11","TZ8onuHLjt","569e9d738ad3f8000d742557","6617fad957f7c6a12ea16e26","6622cde914c78ce03ad32b55","
    <div id=""grid-container"">
        <!-- Grid items will be dynamically added here -->
    </div>    ","null","","","","","","","","","","","",""
"","null","html-keyboard-response","56","115597","0.0-9.0-3.11","TZ8onuHLjt","569e9d738ad3f8000d742557","6617fad957f7c6a12ea16e26","6622cde914c78ce03ad32b55","feedback screen","null","","","","","","","","","","","",""
"","null","html-keyboard-response","57","116110","0.0-9.0-0.12","TZ8onuHLjt","569e9d738ad3f8000d742557","6617fad957f7c6a12ea16e26","6622cde914c78ce03ad32b55","fixation cross","null","","","","","","","","","","","",""
"","971","html-keyboard-response","58","117081","0.0-9.0-1.12","TZ8onuHLjt","569e9d738ad3f8000d742557","6617fad957f7c6a12ea16e26","6622cde914c78ce03ad32b55","image grid","q","","","","","Ontogenetic_Distractor_Threat_target","1800","ongrid","q","1","Ontogenetic","true","practice"
"","null","html-keyboard-response","59","117243","0.0-9.0-2.12","TZ8onuHLjt","569e9d738ad3f8000d742557","6617fad957f7c6a12ea16e26","6622cde914c78ce03ad32b55","
    <div id=""grid-container"">
        <!-- Grid items will be dynamically added here -->
    </div>    ","null","","","","","","","","","","","",""
"","null","html-keyboard-response","60","118463","0.0-9.0-3.12","TZ8onuHLjt","569e9d738ad3f8000d742557","6617fad957f7c6a12ea16e26","6622cde914c78ce03ad32b55","feedback screen","null","","","","","","","","","","","",""
"","null","html-keyboard-response","61","118972","0.0-9.0-0.13","TZ8onuHLjt","569e9d738ad3f8000d742557","6617fad957f7c6a12ea16e26","6622cde914c78ce03ad32b55","fixation cross","null","","","","","","","","","","","",""
"","null","html-keyboard-response","62","120686","0.0-9.0-1.13","TZ8onuHLjt","569e9d738ad3f8000d742557","6617fad957f7c6a12ea16e26","6622cde914c78ce03ad32b55","
        <div id=""grid-container"">
        <!-- Grid items will be dynamically added here -->
    </div>    ","null","","","","","","","","","","","",""
"","1734","html-keyboard-response","63","120720","0.0-9.0-2.13","TZ8onuHLjt","569e9d738ad3f8000d742557","6617fad957f7c6a12ea16e26","6622cde914c78ce03ad32b55","mask grid","p","","","","","Phylogenetic_Distractor_Nonthreat_target","1700","onmask","p","9","Ontogenetic","true","practice"
"","null","html-keyboard-response","64","121944","0.0-9.0-3.13","TZ8onuHLjt","569e9d738ad3f8000d742557","6617fad957f7c6a12ea16e26","6622cde914c78ce03ad32b55","feedback screen","null","","","","","","","","","","","",""
"","null","html-keyboard-response","65","122452","0.0-9.0-0.14","TZ8onuHLjt","569e9d738ad3f8000d742557","6617fad957f7c6a12ea16e26","6622cde914c78ce03ad32b55","fixation cross","null","","","","","","","","","","","",""
"","776","html-keyboard-response","66","123228","0.0-9.0-1.14","TZ8onuHLjt","569e9d738ad3f8000d742557","6617fad957f7c6a12ea16e26","6622cde914c78ce03ad32b55","image grid","p","","","","","Ontogenetic_Distractor_Nonthreat_target","1600","ongrid","p","8","Ontogenetic","true","practice"
"","null","html-keyboard-response","67","123386","0.0-9.0-2.14","TZ8onuHLjt","569e9d738ad3f8000d742557","6617fad957f7c6a12ea16e26","6622cde914c78ce03ad32b55","
    <div id=""grid-container"">
        <!-- Grid items will be dynamically added here -->
    </div>    ","null","","","","","","","","","","","",""
"","null","html-keyboard-response","68","124597","0.0-9.0-3.14","TZ8onuHLjt","569e9d738ad3f8000d742557","6617fad957f7c6a12ea16e26","6622cde914c78ce03ad32b55","feedback screen","null","","","","","","","","","","","",""
"","null","html-keyboard-response","69","125109","0.0-9.0-0.15","TZ8onuHLjt","569e9d738ad3f8000d742557","6617fad957f7c6a12ea16e26","6622cde914c78ce03ad32b55","fixation cross","null","","","","","","","","","","","",""
"","1437","html-keyboard-response","70","126546","0.0-9.0-1.15","TZ8onuHLjt","569e9d738ad3f8000d742557","6617fad957f7c6a12ea16e26","6622cde914c78ce03ad32b55","image grid"," ","","","","","Phylogenetic_Distractor_notarget","1500","ongrid"," ","4","Ontogenetic","true","practice"
"","null","html-keyboard-response","71","126712","0.0-9.0-2.15","TZ8onuHLjt","569e9d738ad3f8000d742557","6617fad957f7c6a12ea16e26","6622cde914c78ce03ad32b55","
    <div id=""grid-container"">
        <!-- Grid items will be dynamically added here -->
    </div>    ","null","","","","","","","","","","","",""
"","null","html-keyboard-response","72","127928","0.0-9.0-3.15","TZ8onuHLjt","569e9d738ad3f8000d742557","6617fad957f7c6a12ea16e26","6622cde914c78ce03ad32b55","feedback screen","null","","","","","","","","","","","",""
"","null","html-keyboard-response","73","128441","0.0-9.0-0.16","TZ8onuHLjt","569e9d738ad3f8000d742557","6617fad957f7c6a12ea16e26","6622cde914c78ce03ad32b55","fixation cross","null","","","","","","","","","","","",""
"","1081","html-keyboard-response","74","129522","0.0-9.0-1.16","TZ8onuHLjt","569e9d738ad3f8000d742557","6617fad957f7c6a12ea16e26","6622cde914c78ce03ad32b55","image grid","q","","","","","Ontogenetic_Distractor_Threat_target","1400","ongrid","q","6","Ontogenetic","true","practice"
"","null","html-keyboard-response","75","129682","0.0-9.0-2.16","TZ8onuHLjt","569e9d738ad3f8000d742557","6617fad957f7c6a12ea16e26","6622cde914c78ce03ad32b55","
    <div id=""grid-container"">
        <!-- Grid items will be dynamically added here -->
    </div>    ","null","","","","","","","","","","","",""
"","null","html-keyboard-response","76","130896","0.0-9.0-3.16","TZ8onuHLjt","569e9d738ad3f8000d742557","6617fad957f7c6a12ea16e26","6622cde914c78ce03ad32b55","feedback screen","null","","","","","","","","","","","",""
"","null","html-keyboard-response","77","131408","0.0-9.0-0.17","TZ8onuHLjt","569e9d738ad3f8000d742557","6617fad957f7c6a12ea16e26","6622cde914c78ce03ad32b55","fixation cross","null","","","","","","","","","","","",""
"","null","html-keyboard-response","78","132710","0.0-9.0-1.17","TZ8onuHLjt","569e9d738ad3f8000d742557","6617fad957f7c6a12ea16e26","6622cde914c78ce03ad32b55","
        <div id=""grid-container"">
        <!-- Grid items will be dynamically added here -->
    </div>    ","null","","","","","","","","","","","",""
"","1777","html-keyboard-response","79","133188","0.0-9.0-2.17","TZ8onuHLjt","569e9d738ad3f8000d742557","6617fad957f7c6a12ea16e26","6622cde914c78ce03ad32b55","mask grid","p","","","","","Phylogenetic_Distractor_Threat_target","1300","onmask","q","5","Ontogenetic","false","practice"
"","5","html-keyboard-response","80","133396","0.0-9.0-3.17","TZ8onuHLjt","569e9d738ad3f8000d742557","6617fad957f7c6a12ea16e26","6622cde914c78ce03ad32b55","feedback screen","q","","","","","","","","","","","",""
"","null","html-keyboard-response","81","133902","0.0-9.0-0.18","TZ8onuHLjt","569e9d738ad3f8000d742557","6617fad957f7c6a12ea16e26","6622cde914c78ce03ad32b55","fixation cross","null","","","","","","","","","","","",""
"","null","html-keyboard-response","82","135107","0.0-9.0-1.18","TZ8onuHLjt","569e9d738ad3f8000d742557","6617fad957f7c6a12ea16e26","6622cde914c78ce03ad32b55","
        <div id=""grid-container"">
        <!-- Grid items will be dynamically added here -->
    </div>    ","null","","","","","","","","","","","",""
"","1392","html-keyboard-response","83","135299","0.0-9.0-2.18","TZ8onuHLjt","569e9d738ad3f8000d742557","6617fad957f7c6a12ea16e26","6622cde914c78ce03ad32b55","mask grid"," ","","","","","Ontogenetic_Distractor_notarget","1200","onmask"," ","7","Ontogenetic","true","practice"
"","null","html-keyboard-response","84","136523","0.0-9.0-3.18","TZ8onuHLjt","569e9d738ad3f8000d742557","6617fad957f7c6a12ea16e26","6622cde914c78ce03ad32b55","feedback screen","null","","","","","","","","","","","",""
"","null","html-keyboard-response","85","137038","0.0-9.0-0.19","TZ8onuHLjt","569e9d738ad3f8000d742557","6617fad957f7c6a12ea16e26","6622cde914c78ce03ad32b55","fixation cross","null","","","","","","","","","","","",""
"","726","html-keyboard-response","86","137764","0.0-9.0-1.19","TZ8onuHLjt","569e9d738ad3f8000d742557","6617fad957f7c6a12ea16e26","6622cde914c78ce03ad32b55","image grid","p","","","","","Ontogenetic_Distractor_Nonthreat_target","1100","ongrid","p","3","Ontogenetic","true","practice"
"","null","html-keyboard-response","87","137920","0.0-9.0-2.19","TZ8onuHLjt","569e9d738ad3f8000d742557","6617fad957f7c6a12ea16e26","6622cde914c78ce03ad32b55","
    <div id=""grid-container"">
        <!-- Grid items will be dynamically added here -->
    </div>    ","null","","","","","","","","","","","",""
"","null","html-keyboard-response","88","139132","0.0-9.0-3.19","TZ8onuHLjt","569e9d738ad3f8000d742557","6617fad957f7c6a12ea16e26","6622cde914c78ce03ad32b55","feedback screen","null","","","","","","","","","","","",""
"","12594","html-keyboard-response","89","151746","0.0-10.0","TZ8onuHLjt","569e9d738ad3f8000d742557","6617fad957f7c6a12ea16e26","6622cde914c78ce03ad32b55","pre-experimental_briefing"," ","","","","","","","","","","","",""
"","null","html-keyboard-response","90","154280","0.0-11.0-0.0","TZ8onuHLjt","569e9d738ad3f8000d742557","6617fad957f7c6a12ea16e26","6622cde914c78ce03ad32b55","fixation cross","null","","","","","","","","","","","",""
"","928","html-keyboard-response","91","155208","0.0-11.0-1.0","TZ8onuHLjt","569e9d738ad3f8000d742557","6617fad957f7c6a12ea16e26","6622cde914c78ce03ad32b55","image grid","p","","","","","Ontogenetic_Distractor_Nonthreat_target","2500","ongrid","p","2","Ontogenetic","true","experimental"
"","null","html-keyboard-response","92","155370","0.0-11.0-2.0","TZ8onuHLjt","569e9d738ad3f8000d742557","6617fad957f7c6a12ea16e26","6622cde914c78ce03ad32b55","
    <div id=""grid-container"">
        <!-- Grid items will be dynamically added here -->
    </div>    ","null","","","","","","","","","","","",""
"","null","html-keyboard-response","93","156075","0.0-11.0-0.1","TZ8onuHLjt","569e9d738ad3f8000d742557","6617fad957f7c6a12ea16e26","6622cde914c78ce03ad32b55","fixation cross","null","","","","","","","","","","","",""
"","1631","html-keyboard-response","94","157705","0.0-11.0-1.1","TZ8onuHLjt","569e9d738ad3f8000d742557","6617fad957f7c6a12ea16e26","6622cde914c78ce03ad32b55","image grid","p","","","","","Ontogenetic_Distractor_Threat_target","2500","ongrid","q","9","Ontogenetic","false","experimental"
"","null","html-keyboard-response","95","157862","0.0-11.0-2.1","TZ8onuHLjt","569e9d738ad3f8000d742557","6617fad957f7c6a12ea16e26","6622cde914c78ce03ad32b55","
    <div id=""grid-container"">
        <!-- Grid items will be dynamically added here -->
    </div>    ","null","","","","","","","","","","","",""
"","null","html-keyboard-response","96","158581","0.0-11.0-0.2","TZ8onuHLjt","569e9d738ad3f8000d742557","6617fad957f7c6a12ea16e26","6622cde914c78ce03ad32b55","fixation cross","null","","","","","","","","","","","",""
"","1646","html-keyboard-response","97","160227","0.0-11.0-1.2","TZ8onuHLjt","569e9d738ad3f8000d742557","6617fad957f7c6a12ea16e26","6622cde914c78ce03ad32b55","image grid","p","","","","","Ontogenetic_Distractor_Nonthreat_target","2500","ongrid","p","8","Ontogenetic","true","experimental"
"","null","html-keyboard-response","98","160390","0.0-11.0-2.2","TZ8onuHLjt","569e9d738ad3f8000d742557","6617fad957f7c6a12ea16e26","6622cde914c78ce03ad32b55","
    <div id=""grid-container"">
        <!-- Grid items will be dynamically added here -->
    </div>    ","null","","","","","","","","","","","",""
"","null","html-keyboard-response","99","161103","0.0-11.0-0.3","TZ8onuHLjt","569e9d738ad3f8000d742557","6617fad957f7c6a12ea16e26","6622cde914c78ce03ad32b55","fixation cross","null","","","","","","","","","","","",""
"","1270","html-keyboard-response","100","162373","0.0-11.0-1.3","TZ8onuHLjt","569e9d738ad3f8000d742557","6617fad957f7c6a12ea16e26","6622cde914c78ce03ad32b55","image grid","p","","","","","Ontogenetic_Distractor_Nonthreat_target","2500","ongrid","p","3","Ontogenetic","true","experimental"
"","null","html-keyboard-response","101","162528","0.0-11.0-2.3","TZ8onuHLjt","569e9d738ad3f8000d742557","6617fad957f7c6a12ea16e26","6622cde914c78ce03ad32b55","
    <div id=""grid-container"">
        <!-- Grid items will be dynamically added here -->
    </div>    ","null","","","","","","","","","","","",""
"","null","html-keyboard-response","102","163242","0.0-11.0-0.4","TZ8onuHLjt","569e9d738ad3f8000d742557","6617fad957f7c6a12ea16e26","6622cde914c78ce03ad32b55","fixation cross","null","","","","","","","","","","","",""
"","1210","html-keyboard-response","103","164452","0.0-11.0-1.4","TZ8onuHLjt","569e9d738ad3f8000d742557","6617fad957f7c6a12ea16e26","6622cde914c78ce03ad32b55","image grid","p","","","","","Ontogenetic_Distractor_Nonthreat_target","2500","ongrid","p","5","Ontogenetic","true","experimental"
"","null","html-keyboard-response","104","164613","0.0-11.0-2.4","TZ8onuHLjt","569e9d738ad3f8000d742557","6617fad957f7c6a12ea16e26","6622cde914c78ce03ad32b55","
    <div id=""grid-container"">
        <!-- Grid items will be dynamically added here -->
    </div>    ","null","","","","","","","","","","","",""
"","null","html-keyboard-response","105","165328","0.0-11.0-0.5","TZ8onuHLjt","569e9d738ad3f8000d742557","6617fad957f7c6a12ea16e26","6622cde914c78ce03ad32b55","fixation cross","null","","","","","","","","","","","",""
"","773","html-keyboard-response","106","166101","0.0-11.0-1.5","TZ8onuHLjt","569e9d738ad3f8000d742557","6617fad957f7c6a12ea16e26","6622cde914c78ce03ad32b55","image grid","q","","","","","Ontogenetic_Distractor_Threat_target","2500","ongrid","q","5","Ontogenetic","true","experimental"
"","null","html-keyboard-response","107","166261","0.0-11.0-2.5","TZ8onuHLjt","569e9d738ad3f8000d742557","6617fad957f7c6a12ea16e26","6622cde914c78ce03ad32b55","
    <div id=""grid-container"">
        <!-- Grid items will be dynamically added here -->
    </div>    ","null","","","","","","","","","","","",""
"","null","html-keyboard-response","108","166973","0.0-11.0-0.6","TZ8onuHLjt","569e9d738ad3f8000d742557","6617fad957f7c6a12ea16e26","6622cde914c78ce03ad32b55","fixation cross","null","","","","","","","","","","","",""
"","1759","html-keyboard-response","109","168732","0.0-11.0-1.6","TZ8onuHLjt","569e9d738ad3f8000d742557","6617fad957f7c6a12ea16e26","6622cde914c78ce03ad32b55","image grid","q","","","","","Ontogenetic_Distractor_Threat_target","2500","ongrid","q","8","Ontogenetic","true","experimental"
"","null","html-keyboard-response","110","168885","0.0-11.0-2.6","TZ8onuHLjt","569e9d738ad3f8000d742557","6617fad957f7c6a12ea16e26","6622cde914c78ce03ad32b55","
    <div id=""grid-container"">
        <!-- Grid items will be dynamically added here -->
    </div>    ","null","","","","","","","","","","","",""
"","null","html-keyboard-response","111","169597","0.0-11.0-0.7","TZ8onuHLjt","569e9d738ad3f8000d742557","6617fad957f7c6a12ea16e26","6622cde914c78ce03ad32b55","fixation cross","null","","","","","","","","","","","",""
"","1471","html-keyboard-response","112","171068","0.0-11.0-1.7","TZ8onuHLjt","569e9d738ad3f8000d742557","6617fad957f7c6a12ea16e26","6622cde914c78ce03ad32b55","image grid","p","","","","","Ontogenetic_Distractor_Nonthreat_target","2500","ongrid","p","3","Ontogenetic","true","experimental"
"","null","html-keyboard-response","113","171219","0.0-11.0-2.7","TZ8onuHLjt","569e9d738ad3f8000d742557","6617fad957f7c6a12ea16e26","6622cde914c78ce03ad32b55","
    <div id=""grid-container"">
        <!-- Grid items will be dynamically added here -->
    </div>    ","null","","","","","","","","","","","",""
"","null","html-keyboard-response","114","171949","0.0-11.0-0.8","TZ8onuHLjt","569e9d738ad3f8000d742557","6617fad957f7c6a12ea16e26","6622cde914c78ce03ad32b55","fixation cross","null","","","","","","","","","","","",""
"","1034","html-keyboard-response","115","172983","0.0-11.0-1.8","TZ8onuHLjt","569e9d738ad3f8000d742557","6617fad957f7c6a12ea16e26","6622cde914c78ce03ad32b55","image grid","q","","","","","Ontogenetic_Distractor_Threat_target","2500","ongrid","q","8","Ontogenetic","true","experimental"
"","null","html-keyboard-response","116","173147","0.0-11.0-2.8","TZ8onuHLjt","569e9d738ad3f8000d742557","6617fad957f7c6a12ea16e26","6622cde914c78ce03ad32b55","
    <div id=""grid-container"">
        <!-- Grid items will be dynamically added here -->
    </div>    ","null","","","","","","","","","","","",""
"","null","html-keyboard-response","117","173861","0.0-11.0-0.9","TZ8onuHLjt","569e9d738ad3f8000d742557","6617fad957f7c6a12ea16e26","6622cde914c78ce03ad32b55","fixation cross","null","","","","","","","","","","","",""
"","801","html-keyboard-response","118","174662","0.0-11.0-1.9","TZ8onuHLjt","569e9d738ad3f8000d742557","6617fad957f7c6a12ea16e26","6622cde914c78ce03ad32b55","image grid","p","","","","","Ontogenetic_Distractor_Nonthreat_target","2500","ongrid","p","3","Ontogenetic","true","experimental"
"","null","html-keyboard-response","119","174821","0.0-11.0-2.9","TZ8onuHLjt","569e9d738ad3f8000d742557","6617fad957f7c6a12ea16e26","6622cde914c78ce03ad32b55","
    <div id=""grid-container"">
        <!-- Grid items will be dynamically added here -->
    </div>    ","null","","","","","","","","","","","",""
"","null","html-keyboard-response","120","175539","0.0-11.0-0.10","TZ8onuHLjt","569e9d738ad3f8000d742557","6617fad957f7c6a12ea16e26","6622cde914c78ce03ad32b55","fixation cross","null","","","","","","","","","","","",""
"","968","html-keyboard-response","121","176508","0.0-11.0-1.10","TZ8onuHLjt","569e9d738ad3f8000d742557","6617fad957f7c6a12ea16e26","6622cde914c78ce03ad32b55","image grid","p","","","","","Ontogenetic_Distractor_Nonthreat_target","2500","ongrid","p","3","Ontogenetic","true","experimental"
"","null","html-keyboard-response","122","176667","0.0-11.0-2.10","TZ8onuHLjt","569e9d738ad3f8000d742557","6617fad957f7c6a12ea16e26","6622cde914c78ce03ad32b55","
    <div id=""grid-container"">
        <!-- Grid items will be dynamically added here -->
    </div>    ","null","","","","","","","","","","","",""
"","null","html-keyboard-response","123","177379","0.0-11.0-0.11","TZ8onuHLjt","569e9d738ad3f8000d742557","6617fad957f7c6a12ea16e26","6622cde914c78ce03ad32b55","fixation cross","null","","","","","","","","","","","",""
"","947","html-keyboard-response","124","178326","0.0-11.0-1.11","TZ8onuHLjt","569e9d738ad3f8000d742557","6617fad957f7c6a12ea16e26","6622cde914c78ce03ad32b55","image grid","q","","","","","Ontogenetic_Distractor_Threat_target","2500","ongrid","q","1","Ontogenetic","true","experimental"
"","null","html-keyboard-response","125","178478","0.0-11.0-2.11","TZ8onuHLjt","569e9d738ad3f8000d742557","6617fad957f7c6a12ea16e26","6622cde914c78ce03ad32b55","
    <div id=""grid-container"">
        <!-- Grid items will be dynamically added here -->
    </div>    ","null","","","","","","","","","","","",""
"","null","html-keyboard-response","126","179182","0.0-11.0-0.12","TZ8onuHLjt","569e9d738ad3f8000d742557","6617fad957f7c6a12ea16e26","6622cde914c78ce03ad32b55","fixation cross","null","","","","","","","","","","","",""
"","1470","html-keyboard-response","127","180652","0.0-11.0-1.12","TZ8onuHLjt","569e9d738ad3f8000d742557","6617fad957f7c6a12ea16e26","6622cde914c78ce03ad32b55","image grid"," ","","","","","Ontogenetic_Distractor_Nonthreat_target","2500","ongrid","p","6","Ontogenetic","false","experimental"
"","null","html-keyboard-response","128","180803","0.0-11.0-2.12","TZ8onuHLjt","569e9d738ad3f8000d742557","6617fad957f7c6a12ea16e26","6622cde914c78ce03ad32b55","
    <div id=""grid-container"">
        <!-- Grid items will be dynamically added here -->
    </div>    ","null","","","","","","","","","","","",""
"","null","html-keyboard-response","129","181520","0.0-11.0-0.13","TZ8onuHLjt","569e9d738ad3f8000d742557","6617fad957f7c6a12ea16e26","6622cde914c78ce03ad32b55","fixation cross","null","","","","","","","","","","","",""
"","886","html-keyboard-response","130","182406","0.0-11.0-1.13","TZ8onuHLjt","569e9d738ad3f8000d742557","6617fad957f7c6a12ea16e26","6622cde914c78ce03ad32b55","image grid","q","","","","","Ontogenetic_Distractor_Threat_target","2500","ongrid","q","6","Ontogenetic","true","experimental"
"","null","html-keyboard-response","131","182560","0.0-11.0-2.13","TZ8onuHLjt","569e9d738ad3f8000d742557","6617fad957f7c6a12ea16e26","6622cde914c78ce03ad32b55","
    <div id=""grid-container"">
        <!-- Grid items will be dynamically added here -->
    </div>    ","null","","","","","","","","","","","",""
"","null","html-keyboard-response","132","183277","0.0-11.0-0.14","TZ8onuHLjt","569e9d738ad3f8000d742557","6617fad957f7c6a12ea16e26","6622cde914c78ce03ad32b55","fixation cross","null","","","","","","","","","","","",""
"","1068","html-keyboard-response","133","184344","0.0-11.0-1.14","TZ8onuHLjt","569e9d738ad3f8000d742557","6617fad957f7c6a12ea16e26","6622cde914c78ce03ad32b55","image grid","q","","","","","Ontogenetic_Distractor_Threat_target","2500","ongrid","q","9","Ontogenetic","true","experimental"
"","null","html-keyboard-response","134","184506","0.0-11.0-2.14","TZ8onuHLjt","569e9d738ad3f8000d742557","6617fad957f7c6a12ea16e26","6622cde914c78ce03ad32b55","
    <div id=""grid-container"">
        <!-- Grid items will be dynamically added here -->
    </div>    ","null","","","","","","","","","","","",""
"","null","html-keyboard-response","135","185211","0.0-11.0-0.15","TZ8onuHLjt","569e9d738ad3f8000d742557","6617fad957f7c6a12ea16e26","6622cde914c78ce03ad32b55","fixation cross","null","","","","","","","","","","","",""
"","716","html-keyboard-response","136","185927","0.0-11.0-1.15","TZ8onuHLjt","569e9d738ad3f8000d742557","6617fad957f7c6a12ea16e26","6622cde914c78ce03ad32b55","image grid","q","","","","","Ontogenetic_Distractor_Threat_target","2500","ongrid","q","3","Ontogenetic","true","experimental"
"","null","html-keyboard-response","137","186080","0.0-11.0-2.15","TZ8onuHLjt","569e9d738ad3f8000d742557","6617fad957f7c6a12ea16e26","6622cde914c78ce03ad32b55","
    <div id=""grid-container"">
        <!-- Grid items will be dynamically added here -->
    </div>    ","null","","","","","","","","","","","",""
"","null","html-keyboard-response","138","186795","0.0-11.0-0.16","TZ8onuHLjt","569e9d738ad3f8000d742557","6617fad957f7c6a12ea16e26","6622cde914c78ce03ad32b55","fixation cross","null","","","","","","","","","","","",""
"","801","html-keyboard-response","139","187597","0.0-11.0-1.16","TZ8onuHLjt","569e9d738ad3f8000d742557","6617fad957f7c6a12ea16e26","6622cde914c78ce03ad32b55","image grid","p","","","","","Ontogenetic_Distractor_Nonthreat_target","2500","ongrid","p","6","Ontogenetic","true","experimental"
"","null","html-keyboard-response","140","187759","0.0-11.0-2.16","TZ8onuHLjt","569e9d738ad3f8000d742557","6617fad957f7c6a12ea16e26","6622cde914c78ce03ad32b55","
    <div id=""grid-container"">
        <!-- Grid items will be dynamically added here -->
    </div>    ","null","","","","","","","","","","","",""
"","null","html-keyboard-response","141","188477","0.0-11.0-0.17","TZ8onuHLjt","569e9d738ad3f8000d742557","6617fad957f7c6a12ea16e26","6622cde914c78ce03ad32b55","fixation cross","null","","","","","","","","","","","",""
"","976","html-keyboard-response","142","189453","0.0-11.0-1.17","TZ8onuHLjt","569e9d738ad3f8000d742557","6617fad957f7c6a12ea16e26","6622cde914c78ce03ad32b55","image grid","p","","","","","Ontogenetic_Distractor_Nonthreat_target","2500","ongrid","p","1","Ontogenetic","true","experimental"
"","null","html-keyboard-response","143","189611","0.0-11.0-2.17","TZ8onuHLjt","569e9d738ad3f8000d742557","6617fad957f7c6a12ea16e26","6622cde914c78ce03ad32b55","
    <div id=""grid-container"">
        <!-- Grid items will be dynamically added here -->
    </div>    ","null","","","","","","","","","","","",""
"","null","html-keyboard-response","144","190325","0.0-11.0-0.18","TZ8onuHLjt","569e9d738ad3f8000d742557","6617fad957f7c6a12ea16e26","6622cde914c78ce03ad32b55","fixation cross","null","","","","","","","","","","","",""
"","808","html-keyboard-response","145","191133","0.0-11.0-1.18","TZ8onuHLjt","569e9d738ad3f8000d742557","6617fad957f7c6a12ea16e26","6622cde914c78ce03ad32b55","image grid","q","","","","","Ontogenetic_Distractor_Threat_target","2500","ongrid","q","7","Ontogenetic","true","experimental"
"","null","html-keyboard-response","146","191292","0.0-11.0-2.18","TZ8onuHLjt","569e9d738ad3f8000d742557","6617fad957f7c6a12ea16e26","6622cde914c78ce03ad32b55","
    <div id=""grid-container"">
        <!-- Grid items will be dynamically added here -->
    </div>    ","null","","","","","","","","","","","",""
"","null","html-keyboard-response","147","192017","0.0-11.0-0.19","TZ8onuHLjt","569e9d738ad3f8000d742557","6617fad957f7c6a12ea16e26","6622cde914c78ce03ad32b55","fixation cross","null","","","","","","","","","","","",""
"","1116","html-keyboard-response","148","193134","0.0-11.0-1.19","TZ8onuHLjt","569e9d738ad3f8000d742557","6617fad957f7c6a12ea16e26","6622cde914c78ce03ad32b55","image grid","q","","","","","Ontogenetic_Distractor_Threat_target","2500","ongrid","q","9","Ontogenetic","true","experimental"
"","null","html-keyboard-response","149","193291","0.0-11.0-2.19","TZ8onuHLjt","569e9d738ad3f8000d742557","6617fad957f7c6a12ea16e26","6622cde914c78ce03ad32b55","
    <div id=""grid-container"">
        <!-- Grid items will be dynamically added here -->
    </div>    ","null","","","","","","","","","","","",""
"","null","html-keyboard-response","150","194008","0.0-11.0-0.20","TZ8onuHLjt","569e9d738ad3f8000d742557","6617fad957f7c6a12ea16e26","6622cde914c78ce03ad32b55","fixation cross","null","","","","","","","","","","","",""
"","992","html-keyboard-response","151","195000","0.0-11.0-1.20","TZ8onuHLjt","569e9d738ad3f8000d742557","6617fad957f7c6a12ea16e26","6622cde914c78ce03ad32b55","image grid","p","","","","","Ontogenetic_Distractor_Nonthreat_target","2500","ongrid","p","5","Ontogenetic","true","experimental"
"","null","html-keyboard-response","152","195153","0.0-11.0-2.20","TZ8onuHLjt","569e9d738ad3f8000d742557","6617fad957f7c6a12ea16e26","6622cde914c78ce03ad32b55","
    <div id=""grid-container"">
        <!-- Grid items will be dynamically added here -->
    </div>    ","null","","","","","","","","","","","",""
"","null","html-keyboard-response","153","195863","0.0-11.0-0.21","TZ8onuHLjt","569e9d738ad3f8000d742557","6617fad957f7c6a12ea16e26","6622cde914c78ce03ad32b55","fixation cross","null","","","","","","","","","","","",""
"","1648","html-keyboard-response","154","197511","0.0-11.0-1.21","TZ8onuHLjt","569e9d738ad3f8000d742557","6617fad957f7c6a12ea16e26","6622cde914c78ce03ad32b55","image grid","p","","","","","Ontogenetic_Distractor_Nonthreat_target","2500","ongrid","p","5","Ontogenetic","true","experimental"
"","null","html-keyboard-response","155","197662","0.0-11.0-2.21","TZ8onuHLjt","569e9d738ad3f8000d742557","6617fad957f7c6a12ea16e26","6622cde914c78ce03ad32b55","
    <div id=""grid-container"">
        <!-- Grid items will be dynamically added here -->
    </div>    ","null","","","","","","","","","","","",""
"","null","html-keyboard-response","156","198391","0.0-11.0-0.22","TZ8onuHLjt","569e9d738ad3f8000d742557","6617fad957f7c6a12ea16e26","6622cde914c78ce03ad32b55","fixation cross","null","","","","","","","","","","","",""
"","789","html-keyboard-response","157","199181","0.0-11.0-1.22","TZ8onuHLjt","569e9d738ad3f8000d742557","6617fad957f7c6a12ea16e26","6622cde914c78ce03ad32b55","image grid","q","","","","","Ontogenetic_Distractor_Threat_target","2500","ongrid","q","5","Ontogenetic","true","experimental"
"","null","html-keyboard-response","158","199338","0.0-11.0-2.22","TZ8onuHLjt","569e9d738ad3f8000d742557","6617fad957f7c6a12ea16e26","6622cde914c78ce03ad32b55","
    <div id=""grid-container"">
        <!-- Grid items will be dynamically added here -->
    </div>    ","null","","","","","","","","","","","",""
"","null","html-keyboard-response","159","200043","0.0-11.0-0.23","TZ8onuHLjt","569e9d738ad3f8000d742557","6617fad957f7c6a12ea16e26","6622cde914c78ce03ad32b55","fixation cross","null","","","","","","","","","","","",""
"","779","html-keyboard-response","160","200823","0.0-11.0-1.23","TZ8onuHLjt","569e9d738ad3f8000d742557","6617fad957f7c6a12ea16e26","6622cde914c78ce03ad32b55","image grid","q","","","","","Ontogenetic_Distractor_Threat_target","2500","ongrid","q","4","Ontogenetic","true","experimental"
"","null","html-keyboard-response","161","200978","0.0-11.0-2.23","TZ8onuHLjt","569e9d738ad3f8000d742557","6617fad957f7c6a12ea16e26","6622cde914c78ce03ad32b55","
    <div id=""grid-container"">
        <!-- Grid items will be dynamically added here -->
    </div>    ","null","","","","","","","","","","","",""
"","null","html-keyboard-response","162","201704","0.0-11.0-0.24","TZ8onuHLjt","569e9d738ad3f8000d742557","6617fad957f7c6a12ea16e26","6622cde914c78ce03ad32b55","fixation cross","null","","","","","","","","","","","",""
"","741","html-keyboard-response","163","202446","0.0-11.0-1.24","TZ8onuHLjt","569e9d738ad3f8000d742557","6617fad957f7c6a12ea16e26","6622cde914c78ce03ad32b55","image grid","q","","","","","Ontogenetic_Distractor_Threat_target","2500","ongrid","q","2","Ontogenetic","true","experimental"
"","null","html-keyboard-response","164","202605","0.0-11.0-2.24","TZ8onuHLjt","569e9d738ad3f8000d742557","6617fad957f7c6a12ea16e26","6622cde914c78ce03ad32b55","
    <div id=""grid-container"">
        <!-- Grid items will be dynamically added here -->
    </div>    ","null","","","","","","","","","","","",""
"","null","html-keyboard-response","165","203321","0.0-11.0-0.25","TZ8onuHLjt","569e9d738ad3f8000d742557","6617fad957f7c6a12ea16e26","6622cde914c78ce03ad32b55","fixation cross","null","","","","","","","","","","","",""
"","1814","html-keyboard-response","166","205135","0.0-11.0-1.25","TZ8onuHLjt","569e9d738ad3f8000d742557","6617fad957f7c6a12ea16e26","6622cde914c78ce03ad32b55","image grid"," ","","","","","Ontogenetic_Distractor_notarget","2500","ongrid"," ","2","Ontogenetic","true","experimental"
"","null","html-keyboard-response","167","205293","0.0-11.0-2.25","TZ8onuHLjt","569e9d738ad3f8000d742557","6617fad957f7c6a12ea16e26","6622cde914c78ce03ad32b55","
    <div id=""grid-container"">
        <!-- Grid items will be dynamically added here -->
    </div>    ","null","","","","","","","","","","","",""
"","null","html-keyboard-response","168","206008","0.0-11.0-0.26","TZ8onuHLjt","569e9d738ad3f8000d742557","6617fad957f7c6a12ea16e26","6622cde914c78ce03ad32b55","fixation cross","null","","","","","","","","","","","",""
"","694","html-keyboard-response","169","206702","0.0-11.0-1.26","TZ8onuHLjt","569e9d738ad3f8000d742557","6617fad957f7c6a12ea16e26","6622cde914c78ce03ad32b55","image grid","p","","","","","Ontogenetic_Distractor_Nonthreat_target","2500","ongrid","p","1","Ontogenetic","true","experimental"
"","null","html-keyboard-response","170","206861","0.0-11.0-2.26","TZ8onuHLjt","569e9d738ad3f8000d742557","6617fad957f7c6a12ea16e26","6622cde914c78ce03ad32b55","
    <div id=""grid-container"">
        <!-- Grid items will be dynamically added here -->
    </div>    ","null","","","","","","","","","","","",""
"","null","html-keyboard-response","171","207570","0.0-11.0-0.27","TZ8onuHLjt","569e9d738ad3f8000d742557","6617fad957f7c6a12ea16e26","6622cde914c78ce03ad32b55","fixation cross","null","","","","","","","","","","","",""
"","886","html-keyboard-response","172","208456","0.0-11.0-1.27","TZ8onuHLjt","569e9d738ad3f8000d742557","6617fad957f7c6a12ea16e26","6622cde914c78ce03ad32b55","image grid","p","","","","","Ontogenetic_Distractor_Nonthreat_target","2500","ongrid","p","3","Ontogenetic","true","experimental"
"","null","html-keyboard-response","173","208607","0.0-11.0-2.27","TZ8onuHLjt","569e9d738ad3f8000d742557","6617fad957f7c6a12ea16e26","6622cde914c78ce03ad32b55","
    <div id=""grid-container"">
        <!-- Grid items will be dynamically added here -->
    </div>    ","null","","","","","","","","","","","",""
"","null","html-keyboard-response","174","209321","0.0-11.0-0.28","TZ8onuHLjt","569e9d738ad3f8000d742557","6617fad957f7c6a12ea16e26","6622cde914c78ce03ad32b55","fixation cross","null","","","","","","","","","","","",""
"","742","html-keyboard-response","175","210063","0.0-11.0-1.28","TZ8onuHLjt","569e9d738ad3f8000d742557","6617fad957f7c6a12ea16e26","6622cde914c78ce03ad32b55","image grid","q","","","","","Ontogenetic_Distractor_Threat_target","2500","ongrid","q","6","Ontogenetic","true","experimental"
"","null","html-keyboard-response","176","210223","0.0-11.0-2.28","TZ8onuHLjt","569e9d738ad3f8000d742557","6617fad957f7c6a12ea16e26","6622cde914c78ce03ad32b55","
    <div id=""grid-container"">
        <!-- Grid items will be dynamically added here -->
    </div>    ","null","","","","","","","","","","","",""
"","null","html-keyboard-response","177","210939","0.0-11.0-0.29","TZ8onuHLjt","569e9d738ad3f8000d742557","6617fad957f7c6a12ea16e26","6622cde914c78ce03ad32b55","fixation cross","null","","","","","","","","","","","",""
"","980","html-keyboard-response","178","211919","0.0-11.0-1.29","TZ8onuHLjt","569e9d738ad3f8000d742557","6617fad957f7c6a12ea16e26","6622cde914c78ce03ad32b55","image grid"," ","","","","","Ontogenetic_Distractor_notarget","2500","ongrid"," ","6","Ontogenetic","true","experimental"
"","null","html-keyboard-response","179","212074","0.0-11.0-2.29","TZ8onuHLjt","569e9d738ad3f8000d742557","6617fad957f7c6a12ea16e26","6622cde914c78ce03ad32b55","
    <div id=""grid-container"">
        <!-- Grid items will be dynamically added here -->
    </div>    ","null","","","","","","","","","","","",""
"","null","html-keyboard-response","180","212790","0.0-11.0-0.30","TZ8onuHLjt","569e9d738ad3f8000d742557","6617fad957f7c6a12ea16e26","6622cde914c78ce03ad32b55","fixation cross","null","","","","","","","","","","","",""
"","714","html-keyboard-response","181","213504","0.0-11.0-1.30","TZ8onuHLjt","569e9d738ad3f8000d742557","6617fad957f7c6a12ea16e26","6622cde914c78ce03ad32b55","image grid","p","","","","","Ontogenetic_Distractor_Nonthreat_target","2500","ongrid","p","1","Ontogenetic","true","experimental"
"","null","html-keyboard-response","182","213664","0.0-11.0-2.30","TZ8onuHLjt","569e9d738ad3f8000d742557","6617fad957f7c6a12ea16e26","6622cde914c78ce03ad32b55","
    <div id=""grid-container"">
        <!-- Grid items will be dynamically added here -->
    </div>    ","null","","","","","","","","","","","",""
"","null","html-keyboard-response","183","214369","0.0-11.0-0.31","TZ8onuHLjt","569e9d738ad3f8000d742557","6617fad957f7c6a12ea16e26","6622cde914c78ce03ad32b55","fixation cross","null","","","","","","","","","","","",""
"","863","html-keyboard-response","184","215233","0.0-11.0-1.31","TZ8onuHLjt","569e9d738ad3f8000d742557","6617fad957f7c6a12ea16e26","6622cde914c78ce03ad32b55","image grid","q","","","","","Ontogenetic_Distractor_Threat_target","2500","ongrid","q","7","Ontogenetic","true","experimental"
"","null","html-keyboard-response","185","215384","0.0-11.0-2.31","TZ8onuHLjt","569e9d738ad3f8000d742557","6617fad957f7c6a12ea16e26","6622cde914c78ce03ad32b55","
    <div id=""grid-container"">
        <!-- Grid items will be dynamically added here -->
    </div>    ","null","","","","","","","","","","","",""
"","null","html-keyboard-response","186","216100","0.0-11.0-0.32","TZ8onuHLjt","569e9d738ad3f8000d742557","6617fad957f7c6a12ea16e26","6622cde914c78ce03ad32b55","fixation cross","null","","","","","","","","","","","",""
"","909","html-keyboard-response","187","217009","0.0-11.0-1.32","TZ8onuHLjt","569e9d738ad3f8000d742557","6617fad957f7c6a12ea16e26","6622cde914c78ce03ad32b55","image grid"," ","","","","","Ontogenetic_Distractor_notarget","2500","ongrid"," ","7","Ontogenetic","true","experimental"
"","null","html-keyboard-response","188","217173","0.0-11.0-2.32","TZ8onuHLjt","569e9d738ad3f8000d742557","6617fad957f7c6a12ea16e26","6622cde914c78ce03ad32b55","
    <div id=""grid-container"">
        <!-- Grid items will be dynamically added here -->
    </div>    ","null","","","","","","","","","","","",""
"","null","html-keyboard-response","189","217877","0.0-11.0-0.33","TZ8onuHLjt","569e9d738ad3f8000d742557","6617fad957f7c6a12ea16e26","6622cde914c78ce03ad32b55","fixation cross","null","","","","","","","","","","","",""
"","828","html-keyboard-response","190","218705","0.0-11.0-1.33","TZ8onuHLjt","569e9d738ad3f8000d742557","6617fad957f7c6a12ea16e26","6622cde914c78ce03ad32b55","image grid","q","","","","","Ontogenetic_Distractor_Threat_target","2500","ongrid","q","7","Ontogenetic","true","experimental"
"","null","html-keyboard-response","191","218869","0.0-11.0-2.33","TZ8onuHLjt","569e9d738ad3f8000d742557","6617fad957f7c6a12ea16e26","6622cde914c78ce03ad32b55","
    <div id=""grid-container"">
        <!-- Grid items will be dynamically added here -->
    </div>    ","null","","","","","","","","","","","",""
"","null","html-keyboard-response","192","219573","0.0-11.0-0.34","TZ8onuHLjt","569e9d738ad3f8000d742557","6617fad957f7c6a12ea16e26","6622cde914c78ce03ad32b55","fixation cross","null","","","","","","","","","","","",""
"","822","html-keyboard-response","193","220395","0.0-11.0-1.34","TZ8onuHLjt","569e9d738ad3f8000d742557","6617fad957f7c6a12ea16e26","6622cde914c78ce03ad32b55","image grid","q","","","","","Ontogenetic_Distractor_Threat_target","2500","ongrid","q","4","Ontogenetic","true","experimental"
"","null","html-keyboard-response","194","220549","0.0-11.0-2.34","TZ8onuHLjt","569e9d738ad3f8000d742557","6617fad957f7c6a12ea16e26","6622cde914c78ce03ad32b55","
    <div id=""grid-container"">
        <!-- Grid items will be dynamically added here -->
    </div>    ","null","","","","","","","","","","","",""
"","null","html-keyboard-response","195","221266","0.0-11.0-0.35","TZ8onuHLjt","569e9d738ad3f8000d742557","6617fad957f7c6a12ea16e26","6622cde914c78ce03ad32b55","fixation cross","null","","","","","","","","","","","",""
"","832","html-keyboard-response","196","222098","0.0-11.0-1.35","TZ8onuHLjt","569e9d738ad3f8000d742557","6617fad957f7c6a12ea16e26","6622cde914c78ce03ad32b55","image grid","p","","","","","Ontogenetic_Distractor_Nonthreat_target","2500","ongrid","p","7","Ontogenetic","true","experimental"
"","null","html-keyboard-response","197","222260","0.0-11.0-2.35","TZ8onuHLjt","569e9d738ad3f8000d742557","6617fad957f7c6a12ea16e26","6622cde914c78ce03ad32b55","
    <div id=""grid-container"">
        <!-- Grid items will be dynamically added here -->
    </div>    ","null","","","","","","","","","","","",""
"","null","html-keyboard-response","198","222974","0.0-11.0-0.36","TZ8onuHLjt","569e9d738ad3f8000d742557","6617fad957f7c6a12ea16e26","6622cde914c78ce03ad32b55","fixation cross","null","","","","","","","","","","","",""
"","910","html-keyboard-response","199","223884","0.0-11.0-1.36","TZ8onuHLjt","569e9d738ad3f8000d742557","6617fad957f7c6a12ea16e26","6622cde914c78ce03ad32b55","image grid"," ","","","","","Ontogenetic_Distractor_notarget","2500","ongrid"," ","5","Ontogenetic","true","experimental"
"","null","html-keyboard-response","200","224039","0.0-11.0-2.36","TZ8onuHLjt","569e9d738ad3f8000d742557","6617fad957f7c6a12ea16e26","6622cde914c78ce03ad32b55","
    <div id=""grid-container"">
        <!-- Grid items will be dynamically added here -->
    </div>    ","null","","","","","","","","","","","",""
"","null","html-keyboard-response","201","224758","0.0-11.0-0.37","TZ8onuHLjt","569e9d738ad3f8000d742557","6617fad957f7c6a12ea16e26","6622cde914c78ce03ad32b55","fixation cross","null","","","","","","","","","","","",""
"","717","html-keyboard-response","202","225475","0.0-11.0-1.37","TZ8onuHLjt","569e9d738ad3f8000d742557","6617fad957f7c6a12ea16e26","6622cde914c78ce03ad32b55","image grid","q","","","","","Ontogenetic_Distractor_Threat_target","2500","ongrid","q","7","Ontogenetic","true","experimental"
"","null","html-keyboard-response","203","225629","0.0-11.0-2.37","TZ8onuHLjt","569e9d738ad3f8000d742557","6617fad957f7c6a12ea16e26","6622cde914c78ce03ad32b55","
    <div id=""grid-container"">
        <!-- Grid items will be dynamically added here -->
    </div>    ","null","","","","","","","","","","","",""
"","null","html-keyboard-response","204","226360","0.0-11.0-0.38","TZ8onuHLjt","569e9d738ad3f8000d742557","6617fad957f7c6a12ea16e26","6622cde914c78ce03ad32b55","fixation cross","null","","","","","","","","","","","",""
"","1035","html-keyboard-response","205","227395","0.0-11.0-1.38","TZ8onuHLjt","569e9d738ad3f8000d742557","6617fad957f7c6a12ea16e26","6622cde914c78ce03ad32b55","image grid","p","","","","","Ontogenetic_Distractor_Nonthreat_target","2500","ongrid","p","2","Ontogenetic","true","experimental"
"","null","html-keyboard-response","206","227546","0.0-11.0-2.38","TZ8onuHLjt","569e9d738ad3f8000d742557","6617fad957f7c6a12ea16e26","6622cde914c78ce03ad32b55","
    <div id=""grid-container"">
        <!-- Grid items will be dynamically added here -->
    </div>    ","null","","","","","","","","","","","",""
"","null","html-keyboard-response","207","228262","0.0-11.0-0.39","TZ8onuHLjt","569e9d738ad3f8000d742557","6617fad957f7c6a12ea16e26","6622cde914c78ce03ad32b55","fixation cross","null","","","","","","","","","","","",""
"","909","html-keyboard-response","208","229172","0.0-11.0-1.39","TZ8onuHLjt","569e9d738ad3f8000d742557","6617fad957f7c6a12ea16e26","6622cde914c78ce03ad32b55","image grid","p","","","","","Ontogenetic_Distractor_Nonthreat_target","2500","ongrid","p","8","Ontogenetic","true","experimental"
"","null","html-keyboard-response","209","229333","0.0-11.0-2.39","TZ8onuHLjt","569e9d738ad3f8000d742557","6617fad957f7c6a12ea16e26","6622cde914c78ce03ad32b55","
    <div id=""grid-container"">
        <!-- Grid items will be dynamically added here -->
    </div>    ","null","","","","","","","","","","","",""
"","6451","html-keyboard-response","210","236006","0.0-12.0","TZ8onuHLjt","569e9d738ad3f8000d742557","6617fad957f7c6a12ea16e26","6622cde914c78ce03ad32b55","break screen"," ","","","","","","","","","","","",""
"","null","html-keyboard-response","211","238545","0.0-13.0-0.0","TZ8onuHLjt","569e9d738ad3f8000d742557","6617fad957f7c6a12ea16e26","6622cde914c78ce03ad32b55","fixation cross","null","","","","","","","","","","","",""
"","821","html-keyboard-response","212","239366","0.0-13.0-1.0","TZ8onuHLjt","569e9d738ad3f8000d742557","6617fad957f7c6a12ea16e26","6622cde914c78ce03ad32b55","image grid","q","","","","","Ontogenetic_Distractor_Threat_target","2500","ongrid","q","7","Ontogenetic","true","experimental"
"","null","html-keyboard-response","213","239518","0.0-13.0-2.0","TZ8onuHLjt","569e9d738ad3f8000d742557","6617fad957f7c6a12ea16e26","6622cde914c78ce03ad32b55","
    <div id=""grid-container"">
        <!-- Grid items will be dynamically added here -->
    </div>    ","null","","","","","","","","","","","",""
"","null","html-keyboard-response","214","240237","0.0-13.0-0.1","TZ8onuHLjt","569e9d738ad3f8000d742557","6617fad957f7c6a12ea16e26","6622cde914c78ce03ad32b55","fixation cross","null","","","","","","","","","","","",""
"","777","html-keyboard-response","215","241014","0.0-13.0-1.1","TZ8onuHLjt","569e9d738ad3f8000d742557","6617fad957f7c6a12ea16e26","6622cde914c78ce03ad32b55","image grid","q","","","","","Ontogenetic_Distractor_Threat_target","2500","ongrid","q","1","Ontogenetic","true","experimental"
"","null","html-keyboard-response","216","241173","0.0-13.0-2.1","TZ8onuHLjt","569e9d738ad3f8000d742557","6617fad957f7c6a12ea16e26","6622cde914c78ce03ad32b55","
    <div id=""grid-container"">
        <!-- Grid items will be dynamically added here -->
    </div>    ","null","","","","","","","","","","","",""
"","null","html-keyboard-response","217","241887","0.0-13.0-0.2","TZ8onuHLjt","569e9d738ad3f8000d742557","6617fad957f7c6a12ea16e26","6622cde914c78ce03ad32b55","fixation cross","null","","","","","","","","","","","",""
"","951","html-keyboard-response","218","242838","0.0-13.0-1.2","TZ8onuHLjt","569e9d738ad3f8000d742557","6617fad957f7c6a12ea16e26","6622cde914c78ce03ad32b55","image grid","p","","","","","Ontogenetic_Distractor_Nonthreat_target","2500","ongrid","p","3","Ontogenetic","true","experimental"
"","null","html-keyboard-response","219","242992","0.0-13.0-2.2","TZ8onuHLjt","569e9d738ad3f8000d742557","6617fad957f7c6a12ea16e26","6622cde914c78ce03ad32b55","
    <div id=""grid-container"">
        <!-- Grid items will be dynamically added here -->
    </div>    ","null","","","","","","","","","","","",""
"","null","html-keyboard-response","220","243704","0.0-13.0-0.3","TZ8onuHLjt","569e9d738ad3f8000d742557","6617fad957f7c6a12ea16e26","6622cde914c78ce03ad32b55","fixation cross","null","","","","","","","","","","","",""
"","1039","html-keyboard-response","221","244743","0.0-13.0-1.3","TZ8onuHLjt","569e9d738ad3f8000d742557","6617fad957f7c6a12ea16e26","6622cde914c78ce03ad32b55","image grid"," ","","","","","Ontogenetic_Distractor_notarget","2500","ongrid"," ","7","Ontogenetic","true","experimental"
"","null","html-keyboard-response","222","244903","0.0-13.0-2.3","TZ8onuHLjt","569e9d738ad3f8000d742557","6617fad957f7c6a12ea16e26","6622cde914c78ce03ad32b55","
    <div id=""grid-container"">
        <!-- Grid items will be dynamically added here -->
    </div>    ","null","","","","","","","","","","","",""
"","null","html-keyboard-response","223","245619","0.0-13.0-0.4","TZ8onuHLjt","569e9d738ad3f8000d742557","6617fad957f7c6a12ea16e26","6622cde914c78ce03ad32b55","fixation cross","null","","","","","","","","","","","",""
"","1446","html-keyboard-response","224","247065","0.0-13.0-1.4","TZ8onuHLjt","569e9d738ad3f8000d742557","6617fad957f7c6a12ea16e26","6622cde914c78ce03ad32b55","image grid","p","","","","","Ontogenetic_Distractor_Nonthreat_target","2500","ongrid","p","2","Ontogenetic","true","experimental"
"","null","html-keyboard-response","225","247220","0.0-13.0-2.4","TZ8onuHLjt","569e9d738ad3f8000d742557","6617fad957f7c6a12ea16e26","6622cde914c78ce03ad32b55","
    <div id=""grid-container"">
        <!-- Grid items will be dynamically added here -->
    </div>    ","null","","","","","","","","","","","",""
"","null","html-keyboard-response","226","247949","0.0-13.0-0.5","TZ8onuHLjt","569e9d738ad3f8000d742557","6617fad957f7c6a12ea16e26","6622cde914c78ce03ad32b55","fixation cross","null","","","","","","","","","","","",""
"","1098","html-keyboard-response","227","249047","0.0-13.0-1.5","TZ8onuHLjt","569e9d738ad3f8000d742557","6617fad957f7c6a12ea16e26","6622cde914c78ce03ad32b55","image grid","q","","","","","Ontogenetic_Distractor_Threat_target","2500","ongrid","q","6","Ontogenetic","true","experimental"
"","null","html-keyboard-response","228","249207","0.0-13.0-2.5","TZ8onuHLjt","569e9d738ad3f8000d742557","6617fad957f7c6a12ea16e26","6622cde914c78ce03ad32b55","
    <div id=""grid-container"">
        <!-- Grid items will be dynamically added here -->
    </div>    ","null","","","","","","","","","","","",""
"","null","html-keyboard-response","229","249916","0.0-13.0-0.6","TZ8onuHLjt","569e9d738ad3f8000d742557","6617fad957f7c6a12ea16e26","6622cde914c78ce03ad32b55","fixation cross","null","","","","","","","","","","","",""
"","645","html-keyboard-response","230","250562","0.0-13.0-1.6","TZ8onuHLjt","569e9d738ad3f8000d742557","6617fad957f7c6a12ea16e26","6622cde914c78ce03ad32b55","image grid","q","","","","","Ontogenetic_Distractor_Threat_target","2500","ongrid","q","7","Ontogenetic","true","experimental"
"","null","html-keyboard-response","231","250725","0.0-13.0-2.6","TZ8onuHLjt","569e9d738ad3f8000d742557","6617fad957f7c6a12ea16e26","6622cde914c78ce03ad32b55","
    <div id=""grid-container"">
        <!-- Grid items will be dynamically added here -->
    </div>    ","null","","","","","","","","","","","",""
"","null","html-keyboard-response","232","251435","0.0-13.0-0.7","TZ8onuHLjt","569e9d738ad3f8000d742557","6617fad957f7c6a12ea16e26","6622cde914c78ce03ad32b55","fixation cross","null","","","","","","","","","","","",""
"","765","html-keyboard-response","233","252201","0.0-13.0-1.7","TZ8onuHLjt","569e9d738ad3f8000d742557","6617fad957f7c6a12ea16e26","6622cde914c78ce03ad32b55","image grid","q","","","","","Ontogenetic_Distractor_Threat_target","2500","ongrid","q","7","Ontogenetic","true","experimental"
"","null","html-keyboard-response","234","252353","0.0-13.0-2.7","TZ8onuHLjt","569e9d738ad3f8000d742557","6617fad957f7c6a12ea16e26","6622cde914c78ce03ad32b55","
    <div id=""grid-container"">
        <!-- Grid items will be dynamically added here -->
    </div>    ","null","","","","","","","","","","","",""
"","null","html-keyboard-response","235","253067","0.0-13.0-0.8","TZ8onuHLjt","569e9d738ad3f8000d742557","6617fad957f7c6a12ea16e26","6622cde914c78ce03ad32b55","fixation cross","null","","","","","","","","","","","",""
"","1159","html-keyboard-response","236","254227","0.0-13.0-1.8","TZ8onuHLjt","569e9d738ad3f8000d742557","6617fad957f7c6a12ea16e26","6622cde914c78ce03ad32b55","image grid"," ","","","","","Ontogenetic_Distractor_notarget","2500","ongrid"," ","9","Ontogenetic","true","experimental"
"","null","html-keyboard-response","237","254383","0.0-13.0-2.8","TZ8onuHLjt","569e9d738ad3f8000d742557","6617fad957f7c6a12ea16e26","6622cde914c78ce03ad32b55","
    <div id=""grid-container"">
        <!-- Grid items will be dynamically added here -->
    </div>    ","null","","","","","","","","","","","",""
"","null","html-keyboard-response","238","255085","0.0-13.0-0.9","TZ8onuHLjt","569e9d738ad3f8000d742557","6617fad957f7c6a12ea16e26","6622cde914c78ce03ad32b55","fixation cross","null","","","","","","","","","","","",""
"","971","html-keyboard-response","239","256057","0.0-13.0-1.9","TZ8onuHLjt","569e9d738ad3f8000d742557","6617fad957f7c6a12ea16e26","6622cde914c78ce03ad32b55","image grid","p","","","","","Ontogenetic_Distractor_Nonthreat_target","2500","ongrid","p","8","Ontogenetic","true","experimental"
"","null","html-keyboard-response","240","256219","0.0-13.0-2.9","TZ8onuHLjt","569e9d738ad3f8000d742557","6617fad957f7c6a12ea16e26","6622cde914c78ce03ad32b55","
    <div id=""grid-container"">
        <!-- Grid items will be dynamically added here -->
    </div>    ","null","","","","","","","","","","","",""
"","null","html-keyboard-response","241","256932","0.0-13.0-0.10","TZ8onuHLjt","569e9d738ad3f8000d742557","6617fad957f7c6a12ea16e26","6622cde914c78ce03ad32b55","fixation cross","null","","","","","","","","","","","",""
"","1025","html-keyboard-response","242","257956","0.0-13.0-1.10","TZ8onuHLjt","569e9d738ad3f8000d742557","6617fad957f7c6a12ea16e26","6622cde914c78ce03ad32b55","image grid","p","","","","","Ontogenetic_Distractor_Nonthreat_target","2500","ongrid","p","9","Ontogenetic","true","experimental"
"","null","html-keyboard-response","243","258115","0.0-13.0-2.10","TZ8onuHLjt","569e9d738ad3f8000d742557","6617fad957f7c6a12ea16e26","6622cde914c78ce03ad32b55","
    <div id=""grid-container"">
        <!-- Grid items will be dynamically added here -->
    </div>    ","null","","","","","","","","","","","",""
"","null","html-keyboard-response","244","258820","0.0-13.0-0.11","TZ8onuHLjt","569e9d738ad3f8000d742557","6617fad957f7c6a12ea16e26","6622cde914c78ce03ad32b55","fixation cross","null","","","","","","","","","","","",""
"","676","html-keyboard-response","245","259497","0.0-13.0-1.11","TZ8onuHLjt","569e9d738ad3f8000d742557","6617fad957f7c6a12ea16e26","6622cde914c78ce03ad32b55","image grid","p","","","","","Ontogenetic_Distractor_Nonthreat_target","2500","ongrid","p","7","Ontogenetic","true","experimental"
"","null","html-keyboard-response","246","259654","0.0-13.0-2.11","TZ8onuHLjt","569e9d738ad3f8000d742557","6617fad957f7c6a12ea16e26","6622cde914c78ce03ad32b55","
    <div id=""grid-container"">
        <!-- Grid items will be dynamically added here -->
    </div>    ","null","","","","","","","","","","","",""
"","null","html-keyboard-response","247","260377","0.0-13.0-0.12","TZ8onuHLjt","569e9d738ad3f8000d742557","6617fad957f7c6a12ea16e26","6622cde914c78ce03ad32b55","fixation cross","null","","","","","","","","","","","",""
"","1362","html-keyboard-response","248","261739","0.0-13.0-1.12","TZ8onuHLjt","569e9d738ad3f8000d742557","6617fad957f7c6a12ea16e26","6622cde914c78ce03ad32b55","image grid","p","","","","","Ontogenetic_Distractor_Nonthreat_target","2500","ongrid","p","3","Ontogenetic","true","experimental"
"","null","html-keyboard-response","249","261898","0.0-13.0-2.12","TZ8onuHLjt","569e9d738ad3f8000d742557","6617fad957f7c6a12ea16e26","6622cde914c78ce03ad32b55","
    <div id=""grid-container"">
        <!-- Grid items will be dynamically added here -->
    </div>    ","null","","","","","","","","","","","",""
"","null","html-keyboard-response","250","262615","0.0-13.0-0.13","TZ8onuHLjt","569e9d738ad3f8000d742557","6617fad957f7c6a12ea16e26","6622cde914c78ce03ad32b55","fixation cross","null","","","","","","","","","","","",""
"","835","html-keyboard-response","251","263450","0.0-13.0-1.13","TZ8onuHLjt","569e9d738ad3f8000d742557","6617fad957f7c6a12ea16e26","6622cde914c78ce03ad32b55","image grid","p","","","","","Ontogenetic_Distractor_Nonthreat_target","2500","ongrid","p","7","Ontogenetic","true","experimental"
"","null","html-keyboard-response","252","263608","0.0-13.0-2.13","TZ8onuHLjt","569e9d738ad3f8000d742557","6617fad957f7c6a12ea16e26","6622cde914c78ce03ad32b55","
    <div id=""grid-container"">
        <!-- Grid items will be dynamically added here -->
    </div>    ","null","","","","","","","","","","","",""
"","null","html-keyboard-response","253","264320","0.0-13.0-0.14","TZ8onuHLjt","569e9d738ad3f8000d742557","6617fad957f7c6a12ea16e26","6622cde914c78ce03ad32b55","fixation cross","null","","","","","","","","","","","",""
"","822","html-keyboard-response","254","265142","0.0-13.0-1.14","TZ8onuHLjt","569e9d738ad3f8000d742557","6617fad957f7c6a12ea16e26","6622cde914c78ce03ad32b55","image grid","p","","","","","Ontogenetic_Distractor_Nonthreat_target","2500","ongrid","p","3","Ontogenetic","true","experimental"
"","null","html-keyboard-response","255","265295","0.0-13.0-2.14","TZ8onuHLjt","569e9d738ad3f8000d742557","6617fad957f7c6a12ea16e26","6622cde914c78ce03ad32b55","
    <div id=""grid-container"">
        <!-- Grid items will be dynamically added here -->
    </div>    ","null","","","","","","","","","","","",""
"","null","html-keyboard-response","256","266024","0.0-13.0-0.15","TZ8onuHLjt","569e9d738ad3f8000d742557","6617fad957f7c6a12ea16e26","6622cde914c78ce03ad32b55","fixation cross","null","","","","","","","","","","","",""
"","894","html-keyboard-response","257","266917","0.0-13.0-1.15","TZ8onuHLjt","569e9d738ad3f8000d742557","6617fad957f7c6a12ea16e26","6622cde914c78ce03ad32b55","image grid","q","","","","","Ontogenetic_Distractor_Threat_target","2500","ongrid","q","4","Ontogenetic","true","experimental"
"","null","html-keyboard-response","258","267076","0.0-13.0-2.15","TZ8onuHLjt","569e9d738ad3f8000d742557","6617fad957f7c6a12ea16e26","6622cde914c78ce03ad32b55","
    <div id=""grid-container"">
        <!-- Grid items will be dynamically added here -->
    </div>    ","null","","","","","","","","","","","",""
"","null","html-keyboard-response","259","267790","0.0-13.0-0.16","TZ8onuHLjt","569e9d738ad3f8000d742557","6617fad957f7c6a12ea16e26","6622cde914c78ce03ad32b55","fixation cross","null","","","","","","","","","","","",""
"","1432","html-keyboard-response","260","269222","0.0-13.0-1.16","TZ8onuHLjt","569e9d738ad3f8000d742557","6617fad957f7c6a12ea16e26","6622cde914c78ce03ad32b55","image grid","q","","","","","Ontogenetic_Distractor_Threat_target","2500","ongrid","q","3","Ontogenetic","true","experimental"
"","null","html-keyboard-response","261","269375","0.0-13.0-2.16","TZ8onuHLjt","569e9d738ad3f8000d742557","6617fad957f7c6a12ea16e26","6622cde914c78ce03ad32b55","
    <div id=""grid-container"">
        <!-- Grid items will be dynamically added here -->
    </div>    ","null","","","","","","","","","","","",""
"","null","html-keyboard-response","262","270086","0.0-13.0-0.17","TZ8onuHLjt","569e9d738ad3f8000d742557","6617fad957f7c6a12ea16e26","6622cde914c78ce03ad32b55","fixation cross","null","","","","","","","","","","","",""
"","1120","html-keyboard-response","263","271206","0.0-13.0-1.17","TZ8onuHLjt","569e9d738ad3f8000d742557","6617fad957f7c6a12ea16e26","6622cde914c78ce03ad32b55","image grid","p","","","","","Ontogenetic_Distractor_Nonthreat_target","2500","ongrid","p","1","Ontogenetic","true","experimental"
"","null","html-keyboard-response","264","271359","0.0-13.0-2.17","TZ8onuHLjt","569e9d738ad3f8000d742557","6617fad957f7c6a12ea16e26","6622cde914c78ce03ad32b55","
    <div id=""grid-container"">
        <!-- Grid items will be dynamically added here -->
    </div>    ","null","","","","","","","","","","","",""
"","null","html-keyboard-response","265","272075","0.0-13.0-0.18","TZ8onuHLjt","569e9d738ad3f8000d742557","6617fad957f7c6a12ea16e26","6622cde914c78ce03ad32b55","fixation cross","null","","","","","","","","","","","",""
"","753","html-keyboard-response","266","272829","0.0-13.0-1.18","TZ8onuHLjt","569e9d738ad3f8000d742557","6617fad957f7c6a12ea16e26","6622cde914c78ce03ad32b55","image grid","q","","","","","Ontogenetic_Distractor_Threat_target","2500","ongrid","q","3","Ontogenetic","true","experimental"
"","null","html-keyboard-response","267","272984","0.0-13.0-2.18","TZ8onuHLjt","569e9d738ad3f8000d742557","6617fad957f7c6a12ea16e26","6622cde914c78ce03ad32b55","
    <div id=""grid-container"">
        <!-- Grid items will be dynamically added here -->
    </div>    ","null","","","","","","","","","","","",""
"","null","html-keyboard-response","268","273699","0.0-13.0-0.19","TZ8onuHLjt","569e9d738ad3f8000d742557","6617fad957f7c6a12ea16e26","6622cde914c78ce03ad32b55","fixation cross","null","","","","","","","","","","","",""
"","778","html-keyboard-response","269","274478","0.0-13.0-1.19","TZ8onuHLjt","569e9d738ad3f8000d742557","6617fad957f7c6a12ea16e26","6622cde914c78ce03ad32b55","image grid","q","","","","","Ontogenetic_Distractor_Threat_target","2500","ongrid","q","8","Ontogenetic","true","experimental"
"","null","html-keyboard-response","270","274635","0.0-13.0-2.19","TZ8onuHLjt","569e9d738ad3f8000d742557","6617fad957f7c6a12ea16e26","6622cde914c78ce03ad32b55","
    <div id=""grid-container"">
        <!-- Grid items will be dynamically added here -->
    </div>    ","null","","","","","","","","","","","",""
"","null","html-keyboard-response","271","275350","0.0-13.0-0.20","TZ8onuHLjt","569e9d738ad3f8000d742557","6617fad957f7c6a12ea16e26","6622cde914c78ce03ad32b55","fixation cross","null","","","","","","","","","","","",""
"","727","html-keyboard-response","272","276077","0.0-13.0-1.20","TZ8onuHLjt","569e9d738ad3f8000d742557","6617fad957f7c6a12ea16e26","6622cde914c78ce03ad32b55","image grid","p","","","","","Ontogenetic_Distractor_Nonthreat_target","2500","ongrid","p","4","Ontogenetic","true","experimental"
"","null","html-keyboard-response","273","276244","0.0-13.0-2.20","TZ8onuHLjt","569e9d738ad3f8000d742557","6617fad957f7c6a12ea16e26","6622cde914c78ce03ad32b55","
    <div id=""grid-container"">
        <!-- Grid items will be dynamically added here -->
    </div>    ","null","","","","","","","","","","","",""
"","null","html-keyboard-response","274","276961","0.0-13.0-0.21","TZ8onuHLjt","569e9d738ad3f8000d742557","6617fad957f7c6a12ea16e26","6622cde914c78ce03ad32b55","fixation cross","null","","","","","","","","","","","",""
"","1212","html-keyboard-response","275","278173","0.0-13.0-1.21","TZ8onuHLjt","569e9d738ad3f8000d742557","6617fad957f7c6a12ea16e26","6622cde914c78ce03ad32b55","image grid"," ","","","","","Ontogenetic_Distractor_notarget","2500","ongrid"," ","8","Ontogenetic","true","experimental"
"","null","html-keyboard-response","276","278326","0.0-13.0-2.21","TZ8onuHLjt","569e9d738ad3f8000d742557","6617fad957f7c6a12ea16e26","6622cde914c78ce03ad32b55","
    <div id=""grid-container"">
        <!-- Grid items will be dynamically added here -->
    </div>    ","null","","","","","","","","","","","",""
"","null","html-keyboard-response","277","279043","0.0-13.0-0.22","TZ8onuHLjt","569e9d738ad3f8000d742557","6617fad957f7c6a12ea16e26","6622cde914c78ce03ad32b55","fixation cross","null","","","","","","","","","","","",""
"","1100","html-keyboard-response","278","280143","0.0-13.0-1.22","TZ8onuHLjt","569e9d738ad3f8000d742557","6617fad957f7c6a12ea16e26","6622cde914c78ce03ad32b55","image grid","p","","","","","Ontogenetic_Distractor_Nonthreat_target","2500","ongrid","p","8","Ontogenetic","true","experimental"
"","null","html-keyboard-response","279","280302","0.0-13.0-2.22","TZ8onuHLjt","569e9d738ad3f8000d742557","6617fad957f7c6a12ea16e26","6622cde914c78ce03ad32b55","
    <div id=""grid-container"">
        <!-- Grid items will be dynamically added here -->
    </div>    ","null","","","","","","","","","","","",""
"","null","html-keyboard-response","280","281019","0.0-13.0-0.23","TZ8onuHLjt","569e9d738ad3f8000d742557","6617fad957f7c6a12ea16e26","6622cde914c78ce03ad32b55","fixation cross","null","","","","","","","","","","","",""
"","1410","html-keyboard-response","281","282430","0.0-13.0-1.23","TZ8onuHLjt","569e9d738ad3f8000d742557","6617fad957f7c6a12ea16e26","6622cde914c78ce03ad32b55","image grid"," ","","","","","Ontogenetic_Distractor_notarget","2500","ongrid"," ","4","Ontogenetic","true","experimental"
"","null","html-keyboard-response","282","282589","0.0-13.0-2.23","TZ8onuHLjt","569e9d738ad3f8000d742557","6617fad957f7c6a12ea16e26","6622cde914c78ce03ad32b55","
    <div id=""grid-container"">
        <!-- Grid items will be dynamically added here -->
    </div>    ","null","","","","","","","","","","","",""
"","null","html-keyboard-response","283","283306","0.0-13.0-0.24","TZ8onuHLjt","569e9d738ad3f8000d742557","6617fad957f7c6a12ea16e26","6622cde914c78ce03ad32b55","fixation cross","null","","","","","","","","","","","",""
"","675","html-keyboard-response","284","283982","0.0-13.0-1.24","TZ8onuHLjt","569e9d738ad3f8000d742557","6617fad957f7c6a12ea16e26","6622cde914c78ce03ad32b55","image grid","q","","","","","Ontogenetic_Distractor_Threat_target","2500","ongrid","q","8","Ontogenetic","true","experimental"
"","null","html-keyboard-response","285","284146","0.0-13.0-2.24","TZ8onuHLjt","569e9d738ad3f8000d742557","6617fad957f7c6a12ea16e26","6622cde914c78ce03ad32b55","
    <div id=""grid-container"">
        <!-- Grid items will be dynamically added here -->
    </div>    ","null","","","","","","","","","","","",""
"","null","html-keyboard-response","286","284877","0.0-13.0-0.25","TZ8onuHLjt","569e9d738ad3f8000d742557","6617fad957f7c6a12ea16e26","6622cde914c78ce03ad32b55","fixation cross","null","","","","","","","","","","","",""
"","684","html-keyboard-response","287","285561","0.0-13.0-1.25","TZ8onuHLjt","569e9d738ad3f8000d742557","6617fad957f7c6a12ea16e26","6622cde914c78ce03ad32b55","image grid","q","","","","","Ontogenetic_Distractor_Threat_target","2500","ongrid","q","8","Ontogenetic","true","experimental"
"","null","html-keyboard-response","288","285717","0.0-13.0-2.25","TZ8onuHLjt","569e9d738ad3f8000d742557","6617fad957f7c6a12ea16e26","6622cde914c78ce03ad32b55","
    <div id=""grid-container"">
        <!-- Grid items will be dynamically added here -->
    </div>    ","null","","","","","","","","","","","",""
"","null","html-keyboard-response","289","286431","0.0-13.0-0.26","TZ8onuHLjt","569e9d738ad3f8000d742557","6617fad957f7c6a12ea16e26","6622cde914c78ce03ad32b55","fixation cross","null","","","","","","","","","","","",""
"","794","html-keyboard-response","290","287224","0.0-13.0-1.26","TZ8onuHLjt","569e9d738ad3f8000d742557","6617fad957f7c6a12ea16e26","6622cde914c78ce03ad32b55","image grid","p","","","","","Ontogenetic_Distractor_Nonthreat_target","2500","ongrid","p","3","Ontogenetic","true","experimental"
"","null","html-keyboard-response","291","287388","0.0-13.0-2.26","TZ8onuHLjt","569e9d738ad3f8000d742557","6617fad957f7c6a12ea16e26","6622cde914c78ce03ad32b55","
    <div id=""grid-container"">
        <!-- Grid items will be dynamically added here -->
    </div>    ","null","","","","","","","","","","","",""
"","null","html-keyboard-response","292","288106","0.0-13.0-0.27","TZ8onuHLjt","569e9d738ad3f8000d742557","6617fad957f7c6a12ea16e26","6622cde914c78ce03ad32b55","fixation cross","null","","","","","","","","","","","",""
"","740","html-keyboard-response","293","288847","0.0-13.0-1.27","TZ8onuHLjt","569e9d738ad3f8000d742557","6617fad957f7c6a12ea16e26","6622cde914c78ce03ad32b55","image grid","q","","","","","Ontogenetic_Distractor_Threat_target","2500","ongrid","q","8","Ontogenetic","true","experimental"
"","null","html-keyboard-response","294","289008","0.0-13.0-2.27","TZ8onuHLjt","569e9d738ad3f8000d742557","6617fad957f7c6a12ea16e26","6622cde914c78ce03ad32b55","
    <div id=""grid-container"">
        <!-- Grid items will be dynamically added here -->
    </div>    ","null","","","","","","","","","","","",""
"","null","html-keyboard-response","295","289727","0.0-13.0-0.28","TZ8onuHLjt","569e9d738ad3f8000d742557","6617fad957f7c6a12ea16e26","6622cde914c78ce03ad32b55","fixation cross","null","","","","","","","","","","","",""
"","1458","html-keyboard-response","296","291184","0.0-13.0-1.28","TZ8onuHLjt","569e9d738ad3f8000d742557","6617fad957f7c6a12ea16e26","6622cde914c78ce03ad32b55","image grid","p","","","","","Ontogenetic_Distractor_Nonthreat_target","2500","ongrid","p","8","Ontogenetic","true","experimental"
"","null","html-keyboard-response","297","291341","0.0-13.0-2.28","TZ8onuHLjt","569e9d738ad3f8000d742557","6617fad957f7c6a12ea16e26","6622cde914c78ce03ad32b55","
    <div id=""grid-container"">
        <!-- Grid items will be dynamically added here -->
    </div>    ","null","","","","","","","","","","","",""
"","null","html-keyboard-response","298","292056","0.0-13.0-0.29","TZ8onuHLjt","569e9d738ad3f8000d742557","6617fad957f7c6a12ea16e26","6622cde914c78ce03ad32b55","fixation cross","null","","","","","","","","","","","",""
"","1105","html-keyboard-response","299","293162","0.0-13.0-1.29","TZ8onuHLjt","569e9d738ad3f8000d742557","6617fad957f7c6a12ea16e26","6622cde914c78ce03ad32b55","image grid","p","","","","","Ontogenetic_Distractor_Nonthreat_target","2500","ongrid","p","7","Ontogenetic","true","experimental"
"","null","html-keyboard-response","300","293315","0.0-13.0-2.29","TZ8onuHLjt","569e9d738ad3f8000d742557","6617fad957f7c6a12ea16e26","6622cde914c78ce03ad32b55","
    <div id=""grid-container"">
        <!-- Grid items will be dynamically added here -->
    </div>    ","null","","","","","","","","","","","",""
"","null","html-keyboard-response","301","294025","0.0-13.0-0.30","TZ8onuHLjt","569e9d738ad3f8000d742557","6617fad957f7c6a12ea16e26","6622cde914c78ce03ad32b55","fixation cross","null","","","","","","","","","","","",""
"","1367","html-keyboard-response","302","295391","0.0-13.0-1.30","TZ8onuHLjt","569e9d738ad3f8000d742557","6617fad957f7c6a12ea16e26","6622cde914c78ce03ad32b55","image grid"," ","","","","","Ontogenetic_Distractor_Nonthreat_target","2500","ongrid","p","9","Ontogenetic","false","experimental"
"","null","html-keyboard-response","303","295543","0.0-13.0-2.30","TZ8onuHLjt","569e9d738ad3f8000d742557","6617fad957f7c6a12ea16e26","6622cde914c78ce03ad32b55","
    <div id=""grid-container"">
        <!-- Grid items will be dynamically added here -->
    </div>    ","null","","","","","","","","","","","",""
"","null","html-keyboard-response","304","296257","0.0-13.0-0.31","TZ8onuHLjt","569e9d738ad3f8000d742557","6617fad957f7c6a12ea16e26","6622cde914c78ce03ad32b55","fixation cross","null","","","","","","","","","","","",""
"","1102","html-keyboard-response","305","297359","0.0-13.0-1.31","TZ8onuHLjt","569e9d738ad3f8000d742557","6617fad957f7c6a12ea16e26","6622cde914c78ce03ad32b55","image grid","p","","","","","Ontogenetic_Distractor_Nonthreat_target","2500","ongrid","p","5","Ontogenetic","true","experimental"
"","null","html-keyboard-response","306","297511","0.0-13.0-2.31","TZ8onuHLjt","569e9d738ad3f8000d742557","6617fad957f7c6a12ea16e26","6622cde914c78ce03ad32b55","
    <div id=""grid-container"">
        <!-- Grid items will be dynamically added here -->
    </div>    ","null","","","","","","","","","","","",""
"","null","html-keyboard-response","307","298227","0.0-13.0-0.32","TZ8onuHLjt","569e9d738ad3f8000d742557","6617fad957f7c6a12ea16e26","6622cde914c78ce03ad32b55","fixation cross","null","","","","","","","","","","","",""
"","982","html-keyboard-response","308","299210","0.0-13.0-1.32","TZ8onuHLjt","569e9d738ad3f8000d742557","6617fad957f7c6a12ea16e26","6622cde914c78ce03ad32b55","image grid","p","","","","","Ontogenetic_Distractor_Nonthreat_target","2500","ongrid","p","9","Ontogenetic","true","experimental"
"","null","html-keyboard-response","309","299367","0.0-13.0-2.32","TZ8onuHLjt","569e9d738ad3f8000d742557","6617fad957f7c6a12ea16e26","6622cde914c78ce03ad32b55","
    <div id=""grid-container"">
        <!-- Grid items will be dynamically added here -->
    </div>    ","null","","","","","","","","","","","",""
"","null","html-keyboard-response","310","300082","0.0-13.0-0.33","TZ8onuHLjt","569e9d738ad3f8000d742557","6617fad957f7c6a12ea16e26","6622cde914c78ce03ad32b55","fixation cross","null","","","","","","","","","","","",""
"","718","html-keyboard-response","311","300800","0.0-13.0-1.33","TZ8onuHLjt","569e9d738ad3f8000d742557","6617fad957f7c6a12ea16e26","6622cde914c78ce03ad32b55","image grid","q","","","","","Ontogenetic_Distractor_Threat_target","2500","ongrid","q","3","Ontogenetic","true","experimental"
"","null","html-keyboard-response","312","300955","0.0-13.0-2.33","TZ8onuHLjt","569e9d738ad3f8000d742557","6617fad957f7c6a12ea16e26","6622cde914c78ce03ad32b55","
    <div id=""grid-container"">
        <!-- Grid items will be dynamically added here -->
    </div>    ","null","","","","","","","","","","","",""
"","null","html-keyboard-response","313","301669","0.0-13.0-0.34","TZ8onuHLjt","569e9d738ad3f8000d742557","6617fad957f7c6a12ea16e26","6622cde914c78ce03ad32b55","fixation cross","null","","","","","","","","","","","",""
"","763","html-keyboard-response","314","302433","0.0-13.0-1.34","TZ8onuHLjt","569e9d738ad3f8000d742557","6617fad957f7c6a12ea16e26","6622cde914c78ce03ad32b55","image grid","q","","","","","Ontogenetic_Distractor_Threat_target","2500","ongrid","q","5","Ontogenetic","true","experimental"
"","null","html-keyboard-response","315","302590","0.0-13.0-2.34","TZ8onuHLjt","569e9d738ad3f8000d742557","6617fad957f7c6a12ea16e26","6622cde914c78ce03ad32b55","
    <div id=""grid-container"">
        <!-- Grid items will be dynamically added here -->
    </div>    ","null","","","","","","","","","","","",""
"","null","html-keyboard-response","316","303307","0.0-13.0-0.35","TZ8onuHLjt","569e9d738ad3f8000d742557","6617fad957f7c6a12ea16e26","6622cde914c78ce03ad32b55","fixation cross","null","","","","","","","","","","","",""
"","678","html-keyboard-response","317","303985","0.0-13.0-1.35","TZ8onuHLjt","569e9d738ad3f8000d742557","6617fad957f7c6a12ea16e26","6622cde914c78ce03ad32b55","image grid","q","","","","","Ontogenetic_Distractor_Threat_target","2500","ongrid","q","6","Ontogenetic","true","experimental"
"","null","html-keyboard-response","318","304140","0.0-13.0-2.35","TZ8onuHLjt","569e9d738ad3f8000d742557","6617fad957f7c6a12ea16e26","6622cde914c78ce03ad32b55","
    <div id=""grid-container"">
        <!-- Grid items will be dynamically added here -->
    </div>    ","null","","","","","","","","","","","",""
"","null","html-keyboard-response","319","304843","0.0-13.0-0.36","TZ8onuHLjt","569e9d738ad3f8000d742557","6617fad957f7c6a12ea16e26","6622cde914c78ce03ad32b55","fixation cross","null","","","","","","","","","","","",""
"","838","html-keyboard-response","320","305681","0.0-13.0-1.36","TZ8onuHLjt","569e9d738ad3f8000d742557","6617fad957f7c6a12ea16e26","6622cde914c78ce03ad32b55","image grid","q","","","","","Ontogenetic_Distractor_Threat_target","2500","ongrid","q","3","Ontogenetic","true","experimental"
"","null","html-keyboard-response","321","305841","0.0-13.0-2.36","TZ8onuHLjt","569e9d738ad3f8000d742557","6617fad957f7c6a12ea16e26","6622cde914c78ce03ad32b55","
    <div id=""grid-container"">
        <!-- Grid items will be dynamically added here -->
    </div>    ","null","","","","","","","","","","","",""
"","null","html-keyboard-response","322","306569","0.0-13.0-0.37","TZ8onuHLjt","569e9d738ad3f8000d742557","6617fad957f7c6a12ea16e26","6622cde914c78ce03ad32b55","fixation cross","null","","","","","","","","","","","",""
"","626","html-keyboard-response","323","307195","0.0-13.0-1.37","TZ8onuHLjt","569e9d738ad3f8000d742557","6617fad957f7c6a12ea16e26","6622cde914c78ce03ad32b55","image grid","p","","","","","Ontogenetic_Distractor_Nonthreat_target","2500","ongrid","p","1","Ontogenetic","true","experimental"
"","null","html-keyboard-response","324","307349","0.0-13.0-2.37","TZ8onuHLjt","569e9d738ad3f8000d742557","6617fad957f7c6a12ea16e26","6622cde914c78ce03ad32b55","
    <div id=""grid-container"">
        <!-- Grid items will be dynamically added here -->
    </div>    ","null","","","","","","","","","","","",""
"","null","html-keyboard-response","325","308063","0.0-13.0-0.38","TZ8onuHLjt","569e9d738ad3f8000d742557","6617fad957f7c6a12ea16e26","6622cde914c78ce03ad32b55","fixation cross","null","","","","","","","","","","","",""
"","883","html-keyboard-response","326","308946","0.0-13.0-1.38","TZ8onuHLjt","569e9d738ad3f8000d742557","6617fad957f7c6a12ea16e26","6622cde914c78ce03ad32b55","image grid","q","","","","","Ontogenetic_Distractor_Threat_target","2500","ongrid","q","8","Ontogenetic","true","experimental"
"","null","html-keyboard-response","327","309107","0.0-13.0-2.38","TZ8onuHLjt","569e9d738ad3f8000d742557","6617fad957f7c6a12ea16e26","6622cde914c78ce03ad32b55","
    <div id=""grid-container"">
        <!-- Grid items will be dynamically added here -->
    </div>    ","null","","","","","","","","","","","",""
"","null","html-keyboard-response","328","309820","0.0-13.0-0.39","TZ8onuHLjt","569e9d738ad3f8000d742557","6617fad957f7c6a12ea16e26","6622cde914c78ce03ad32b55","fixation cross","null","","","","","","","","","","","",""
"","911","html-keyboard-response","329","310732","0.0-13.0-1.39","TZ8onuHLjt","569e9d738ad3f8000d742557","6617fad957f7c6a12ea16e26","6622cde914c78ce03ad32b55","image grid","q","","","","","Ontogenetic_Distractor_Threat_target","2500","ongrid","q","3","Ontogenetic","true","experimental"
"","null","html-keyboard-response","330","310888","0.0-13.0-2.39","TZ8onuHLjt","569e9d738ad3f8000d742557","6617fad957f7c6a12ea16e26","6622cde914c78ce03ad32b55","
    <div id=""grid-container"">
        <!-- Grid items will be dynamically added here -->
    </div>    ","null","","","","","","","","","","","",""
"","17792","html-keyboard-response","331","328884","0.0-14.0","TZ8onuHLjt","569e9d738ad3f8000d742557","6617fad957f7c6a12ea16e26","6622cde914c78ce03ad32b55","break screen"," ","","","","","","","","","","","",""
"","null","html-keyboard-response","332","331410","0.0-15.0-0.0","TZ8onuHLjt","569e9d738ad3f8000d742557","6617fad957f7c6a12ea16e26","6622cde914c78ce03ad32b55","fixation cross","null","","","","","","","","","","","",""
"","null","html-keyboard-response","333","332214","0.0-15.0-1.0","TZ8onuHLjt","569e9d738ad3f8000d742557","6617fad957f7c6a12ea16e26","6622cde914c78ce03ad32b55","
        <div id=""grid-container"">
        <!-- Grid items will be dynamically added here -->
    </div>    ","null","","","","","","","","","","","",""
"","1321","html-keyboard-response","334","332736","0.0-15.0-2.0","TZ8onuHLjt","569e9d738ad3f8000d742557","6617fad957f7c6a12ea16e26","6622cde914c78ce03ad32b55","mask grid","q","","","","","Phylogenetic_Distractor_Threat_target","800","onmask","q","6","Phylogenetic","true","experimental"
"","null","html-keyboard-response","335","333454","0.0-15.0-0.1","TZ8onuHLjt","569e9d738ad3f8000d742557","6617fad957f7c6a12ea16e26","6622cde914c78ce03ad32b55","fixation cross","null","","","","","","","","","","","",""
"","null","html-keyboard-response","336","334258","0.0-15.0-1.1","TZ8onuHLjt","569e9d738ad3f8000d742557","6617fad957f7c6a12ea16e26","6622cde914c78ce03ad32b55","
        <div id=""grid-container"">
        <!-- Grid items will be dynamically added here -->
    </div>    ","null","","","","","","","","","","","",""
"","1069","html-keyboard-response","337","334527","0.0-15.0-2.1","TZ8onuHLjt","569e9d738ad3f8000d742557","6617fad957f7c6a12ea16e26","6622cde914c78ce03ad32b55","mask grid","p","","","","","Phylogenetic_Distractor_Nonthreat_target","800","onmask","p","3","Phylogenetic","true","experimental"
"","null","html-keyboard-response","338","335256","0.0-15.0-0.2","TZ8onuHLjt","569e9d738ad3f8000d742557","6617fad957f7c6a12ea16e26","6622cde914c78ce03ad32b55","fixation cross","null","","","","","","","","","","","",""
"","null","html-keyboard-response","339","336063","0.0-15.0-1.2","TZ8onuHLjt","569e9d738ad3f8000d742557","6617fad957f7c6a12ea16e26","6622cde914c78ce03ad32b55","
        <div id=""grid-container"">
        <!-- Grid items will be dynamically added here -->
    </div>    ","null","","","","","","","","","","","",""
"","992","html-keyboard-response","340","336255","0.0-15.0-2.2","TZ8onuHLjt","569e9d738ad3f8000d742557","6617fad957f7c6a12ea16e26","6622cde914c78ce03ad32b55","mask grid"," ","","","","","Phylogenetic_Distractor_Nonthreat_target","800","onmask","p","3","Phylogenetic","false","experimental"
"","null","html-keyboard-response","341","336979","0.0-15.0-0.3","TZ8onuHLjt","569e9d738ad3f8000d742557","6617fad957f7c6a12ea16e26","6622cde914c78ce03ad32b55","fixation cross","null","","","","","","","","","","","",""
"","null","html-keyboard-response","342","337788","0.0-15.0-1.3","TZ8onuHLjt","569e9d738ad3f8000d742557","6617fad957f7c6a12ea16e26","6622cde914c78ce03ad32b55","
        <div id=""grid-container"">
        <!-- Grid items will be dynamically added here -->
    </div>    ","null","","","","","","","","","","","",""
"","884","html-keyboard-response","343","337872","0.0-15.0-2.3","TZ8onuHLjt","569e9d738ad3f8000d742557","6617fad957f7c6a12ea16e26","6622cde914c78ce03ad32b55","mask grid"," ","","","","","Phylogenetic_Distractor_Threat_target","800","onmask","q","8","Phylogenetic","false","experimental"
"","null","html-keyboard-response","344","338595","0.0-15.0-0.4","TZ8onuHLjt","569e9d738ad3f8000d742557","6617fad957f7c6a12ea16e26","6622cde914c78ce03ad32b55","fixation cross","null","","","","","","","","","","","",""
"","null","html-keyboard-response","345","339402","0.0-15.0-1.4","TZ8onuHLjt","569e9d738ad3f8000d742557","6617fad957f7c6a12ea16e26","6622cde914c78ce03ad32b55","
        <div id=""grid-container"">
        <!-- Grid items will be dynamically added here -->
    </div>    ","null","","","","","","","","","","","",""
"","822","html-keyboard-response","346","339425","0.0-15.0-2.4","TZ8onuHLjt","569e9d738ad3f8000d742557","6617fad957f7c6a12ea16e26","6622cde914c78ce03ad32b55","mask grid","p","","","","","Phylogenetic_Distractor_Nonthreat_target","800","onmask","p","4","Phylogenetic","true","experimental"
"","null","html-keyboard-response","347","340148","0.0-15.0-0.5","TZ8onuHLjt","569e9d738ad3f8000d742557","6617fad957f7c6a12ea16e26","6622cde914c78ce03ad32b55","fixation cross","null","","","","","","","","","","","",""
"","497","html-keyboard-response","348","340646","0.0-15.0-1.5","TZ8onuHLjt","569e9d738ad3f8000d742557","6617fad957f7c6a12ea16e26","6622cde914c78ce03ad32b55","image grid","q","","","","","Phylogenetic_Distractor_Threat_target","800","ongrid","q","2","Phylogenetic","true","experimental"
"","null","html-keyboard-response","349","340797","0.0-15.0-2.5","TZ8onuHLjt","569e9d738ad3f8000d742557","6617fad957f7c6a12ea16e26","6622cde914c78ce03ad32b55","
    <div id=""grid-container"">
        <!-- Grid items will be dynamically added here -->
    </div>    ","null","","","","","","","","","","","",""
"","null","html-keyboard-response","350","341528","0.0-15.0-0.6","TZ8onuHLjt","569e9d738ad3f8000d742557","6617fad957f7c6a12ea16e26","6622cde914c78ce03ad32b55","fixation cross","null","","","","","","","","","","","",""
"","null","html-keyboard-response","351","342336","0.0-15.0-1.6","TZ8onuHLjt","569e9d738ad3f8000d742557","6617fad957f7c6a12ea16e26","6622cde914c78ce03ad32b55","
        <div id=""grid-container"">
        <!-- Grid items will be dynamically added here -->
    </div>    ","null","","","","","","","","","","","",""
"","838","html-keyboard-response","352","342375","0.0-15.0-2.6","TZ8onuHLjt","569e9d738ad3f8000d742557","6617fad957f7c6a12ea16e26","6622cde914c78ce03ad32b55","mask grid"," ","","","","","Phylogenetic_Distractor_notarget","800","onmask"," ","3","Phylogenetic","true","experimental"
"","null","html-keyboard-response","353","343095","0.0-15.0-0.7","TZ8onuHLjt","569e9d738ad3f8000d742557","6617fad957f7c6a12ea16e26","6622cde914c78ce03ad32b55","fixation cross","null","","","","","","","","","","","",""
"","697","html-keyboard-response","354","343793","0.0-15.0-1.7","TZ8onuHLjt","569e9d738ad3f8000d742557","6617fad957f7c6a12ea16e26","6622cde914c78ce03ad32b55","image grid","q","","","","","Phylogenetic_Distractor_Threat_target","800","ongrid","q","5","Phylogenetic","true","experimental"
"","null","html-keyboard-response","355","343947","0.0-15.0-2.7","TZ8onuHLjt","569e9d738ad3f8000d742557","6617fad957f7c6a12ea16e26","6622cde914c78ce03ad32b55","
    <div id=""grid-container"">
        <!-- Grid items will be dynamically added here -->
    </div>    ","null","","","","","","","","","","","",""
"","null","html-keyboard-response","356","344660","0.0-15.0-0.8","TZ8onuHLjt","569e9d738ad3f8000d742557","6617fad957f7c6a12ea16e26","6622cde914c78ce03ad32b55","fixation cross","null","","","","","","","","","","","",""
"","723","html-keyboard-response","357","345383","0.0-15.0-1.8","TZ8onuHLjt","569e9d738ad3f8000d742557","6617fad957f7c6a12ea16e26","6622cde914c78ce03ad32b55","image grid","p","","","","","Phylogenetic_Distractor_Nonthreat_target","800","ongrid","p","2","Phylogenetic","true","experimental"
"","null","html-keyboard-response","358","345548","0.0-15.0-2.8","TZ8onuHLjt","569e9d738ad3f8000d742557","6617fad957f7c6a12ea16e26","6622cde914c78ce03ad32b55","
    <div id=""grid-container"">
        <!-- Grid items will be dynamically added here -->
    </div>    ","null","","","","","","","","","","","",""
"","null","html-keyboard-response","359","346262","0.0-15.0-0.9","TZ8onuHLjt","569e9d738ad3f8000d742557","6617fad957f7c6a12ea16e26","6622cde914c78ce03ad32b55","fixation cross","null","","","","","","","","","","","",""
"","null","html-keyboard-response","360","347076","0.0-15.0-1.9","TZ8onuHLjt","569e9d738ad3f8000d742557","6617fad957f7c6a12ea16e26","6622cde914c78ce03ad32b55","
        <div id=""grid-container"">
        <!-- Grid items will be dynamically added here -->
    </div>    ","null","","","","","","","","","","","",""
"","980","html-keyboard-response","361","347256","0.0-15.0-2.9","TZ8onuHLjt","569e9d738ad3f8000d742557","6617fad957f7c6a12ea16e26","6622cde914c78ce03ad32b55","mask grid"," ","","","","","Phylogenetic_Distractor_Nonthreat_target","800","onmask","p","8","Phylogenetic","false","experimental"
"","null","html-keyboard-response","362","347979","0.0-15.0-0.10","TZ8onuHLjt","569e9d738ad3f8000d742557","6617fad957f7c6a12ea16e26","6622cde914c78ce03ad32b55","fixation cross","null","","","","","","","","","","","",""
"","null","html-keyboard-response","363","348790","0.0-15.0-1.10","TZ8onuHLjt","569e9d738ad3f8000d742557","6617fad957f7c6a12ea16e26","6622cde914c78ce03ad32b55","
        <div id=""grid-container"">
        <!-- Grid items will be dynamically added here -->
    </div>    ","null","","","","","","","","","","","",""
"","5060","html-keyboard-response","364","353050","0.0-15.0-2.10","TZ8onuHLjt","569e9d738ad3f8000d742557","6617fad957f7c6a12ea16e26","6622cde914c78ce03ad32b55","mask grid","q","","","","","Phylogenetic_Distractor_Threat_target","800","onmask","q","6","Phylogenetic","true","experimental"
"","null","html-keyboard-response","365","353773","0.0-15.0-0.11","TZ8onuHLjt","569e9d738ad3f8000d742557","6617fad957f7c6a12ea16e26","6622cde914c78ce03ad32b55","fixation cross","null","","","","","","","","","","","",""
"","668","html-keyboard-response","366","354441","0.0-15.0-1.11","TZ8onuHLjt","569e9d738ad3f8000d742557","6617fad957f7c6a12ea16e26","6622cde914c78ce03ad32b55","image grid","q","","","","","Phylogenetic_Distractor_Threat_target","800","ongrid","q","8","Phylogenetic","true","experimental"
"","null","html-keyboard-response","367","354607","0.0-15.0-2.11","TZ8onuHLjt","569e9d738ad3f8000d742557","6617fad957f7c6a12ea16e26","6622cde914c78ce03ad32b55","
    <div id=""grid-container"">
        <!-- Grid items will be dynamically added here -->
    </div>    ","null","","","","","","","","","","","",""
"","null","html-keyboard-response","368","355322","0.0-15.0-0.12","TZ8onuHLjt","569e9d738ad3f8000d742557","6617fad957f7c6a12ea16e26","6622cde914c78ce03ad32b55","fixation cross","null","","","","","","","","","","","",""
"","null","html-keyboard-response","369","356132","0.0-15.0-1.12","TZ8onuHLjt","569e9d738ad3f8000d742557","6617fad957f7c6a12ea16e26","6622cde914c78ce03ad32b55","
        <div id=""grid-container"">
        <!-- Grid items will be dynamically added here -->
    </div>    ","null","","","","","","","","","","","",""
"","960","html-keyboard-response","370","356292","0.0-15.0-2.12","TZ8onuHLjt","569e9d738ad3f8000d742557","6617fad957f7c6a12ea16e26","6622cde914c78ce03ad32b55","mask grid","p","","","","","Phylogenetic_Distractor_Nonthreat_target","800","onmask","p","4","Phylogenetic","true","experimental"
