"success","rt","trial_type","trial_index","time_elapsed","internal_node_id","unique_identifier","subject_id","study_id","session_id","stimulus","response","timeout","failed_images","failed_audio","failed_video","task","time_manipulation","respondedwhen","correctresponse","targetimagelocation","blocktype","correct","roundtype"
"true","2805","fullscreen","0","3821","0.0-0.0","9YZchSawTb","5f91fe1f5ed1060f5afb58a7","6617fad957f7c6a12ea16e26","6622cfbf008714f5065deb7f","","","","","","","","","","","","","",""
"","21188","html-keyboard-response","1","25011","0.0-1.0","9YZchSawTb","5f91fe1f5ed1060f5afb58a7","6617fad957f7c6a12ea16e26","6622cfbf008714f5065deb7f","instruction screen 0","d","","","","","","","","","","","",""
"true","","preload","2","29916","0.0-2.0","9YZchSawTb","5f91fe1f5ed1060f5afb58a7","6617fad957f7c6a12ea16e26","6622cfbf008714f5065deb7f","","","false","[]","[]","[]","","","","","","","",""
"","12794","html-keyboard-response","3","42710","0.0-3.0","9YZchSawTb","5f91fe1f5ed1060f5afb58a7","6617fad957f7c6a12ea16e26","6622cfbf008714f5065deb7f","instruction screen 1"," ","","","","","","","","","","","",""
"","8225","html-keyboard-response","4","50937","0.0-4.0","9YZchSawTb","5f91fe1f5ed1060f5afb58a7","6617fad957f7c6a12ea16e26","6622cfbf008714f5065deb7f","instruction screen 2","q","","","","","","","","","","","",""
"","9202","html-keyboard-response","5","60141","0.0-5.0","9YZchSawTb","5f91fe1f5ed1060f5afb58a7","6617fad957f7c6a12ea16e26","6622cfbf008714f5065deb7f","instruction screen 3","p","","","","","","","","","","","",""
"","7316","html-keyboard-response","6","67459","0.0-6.0","9YZchSawTb","5f91fe1f5ed1060f5afb58a7","6617fad957f7c6a12ea16e26","6622cfbf008714f5065deb7f","instruction screen 4"," ","","","","","","","","","","","",""
"","10567","html-keyboard-response","7","78046","0.0-7.0","9YZchSawTb","5f91fe1f5ed1060f5afb58a7","6617fad957f7c6a12ea16e26","6622cfbf008714f5065deb7f","instruction screen 5"," ","","","","","","","","","","","",""
"","null","html-keyboard-response","8","78580","0.0-8.0","9YZchSawTb","5f91fe1f5ed1060f5afb58a7","6617fad957f7c6a12ea16e26","6622cfbf008714f5065deb7f","fixation cross","null","","","","","","","","","","","",""
"","null","html-keyboard-response","9","79095","0.0-9.0-0.0","9YZchSawTb","5f91fe1f5ed1060f5afb58a7","6617fad957f7c6a12ea16e26","6622cfbf008714f5065deb7f","fixation cross","null","","","","","","","","","","","",""
"","2139","html-keyboard-response","10","81234","0.0-9.0-1.0","9YZchSawTb","5f91fe1f5ed1060f5afb58a7","6617fad957f7c6a12ea16e26","6622cfbf008714f5065deb7f","image grid","p","","","","","Ontogenetic_Distractor_Nonthreat_target","3000","ongrid","p","6","Phylogenetic","true","practice"
"","null","html-keyboard-response","11","81386","0.0-9.0-2.0","9YZchSawTb","5f91fe1f5ed1060f5afb58a7","6617fad957f7c6a12ea16e26","6622cfbf008714f5065deb7f","
    <div id=""grid-container"">
        <!-- Grid items will be dynamically added here -->
    </div>    ","null","","","","","","","","","","","",""
"","null","html-keyboard-response","12","82598","0.0-9.0-3.0","9YZchSawTb","5f91fe1f5ed1060f5afb58a7","6617fad957f7c6a12ea16e26","6622cfbf008714f5065deb7f","feedback screen","null","","","","","","","","","","","",""
"","null","html-keyboard-response","13","83109","0.0-9.0-0.1","9YZchSawTb","5f91fe1f5ed1060f5afb58a7","6617fad957f7c6a12ea16e26","6622cfbf008714f5065deb7f","fixation cross","null","","","","","","","","","","","",""
"","1433","html-keyboard-response","14","84543","0.0-9.0-1.1","9YZchSawTb","5f91fe1f5ed1060f5afb58a7","6617fad957f7c6a12ea16e26","6622cfbf008714f5065deb7f","image grid"," ","","","","","Ontogenetic_Distractor_notarget","2900","ongrid"," ","6","Phylogenetic","true","practice"
"","null","html-keyboard-response","15","84704","0.0-9.0-2.1","9YZchSawTb","5f91fe1f5ed1060f5afb58a7","6617fad957f7c6a12ea16e26","6622cfbf008714f5065deb7f","
    <div id=""grid-container"">
        <!-- Grid items will be dynamically added here -->
    </div>    ","null","","","","","","","","","","","",""
"","null","html-keyboard-response","16","85923","0.0-9.0-3.1","9YZchSawTb","5f91fe1f5ed1060f5afb58a7","6617fad957f7c6a12ea16e26","6622cfbf008714f5065deb7f","feedback screen","null","","","","","","","","","","","",""
"","null","html-keyboard-response","17","86436","0.0-9.0-0.2","9YZchSawTb","5f91fe1f5ed1060f5afb58a7","6617fad957f7c6a12ea16e26","6622cfbf008714f5065deb7f","fixation cross","null","","","","","","","","","","","",""
"","967","html-keyboard-response","18","87404","0.0-9.0-1.2","9YZchSawTb","5f91fe1f5ed1060f5afb58a7","6617fad957f7c6a12ea16e26","6622cfbf008714f5065deb7f","image grid","p","","","","","Ontogenetic_Distractor_Nonthreat_target","2800","ongrid","p","7","Phylogenetic","true","practice"
"","null","html-keyboard-response","19","87554","0.0-9.0-2.2","9YZchSawTb","5f91fe1f5ed1060f5afb58a7","6617fad957f7c6a12ea16e26","6622cfbf008714f5065deb7f","
    <div id=""grid-container"">
        <!-- Grid items will be dynamically added here -->
    </div>    ","null","","","","","","","","","","","",""
"","null","html-keyboard-response","20","88771","0.0-9.0-3.2","9YZchSawTb","5f91fe1f5ed1060f5afb58a7","6617fad957f7c6a12ea16e26","6622cfbf008714f5065deb7f","feedback screen","null","","","","","","","","","","","",""
"","null","html-keyboard-response","21","89286","0.0-9.0-0.3","9YZchSawTb","5f91fe1f5ed1060f5afb58a7","6617fad957f7c6a12ea16e26","6622cfbf008714f5065deb7f","fixation cross","null","","","","","","","","","","","",""
"","1516","html-keyboard-response","22","90803","0.0-9.0-1.3","9YZchSawTb","5f91fe1f5ed1060f5afb58a7","6617fad957f7c6a12ea16e26","6622cfbf008714f5065deb7f","image grid","q","","","","","Phylogenetic_Distractor_Threat_target","2700","ongrid","q","9","Phylogenetic","true","practice"
"","null","html-keyboard-response","23","90956","0.0-9.0-2.3","9YZchSawTb","5f91fe1f5ed1060f5afb58a7","6617fad957f7c6a12ea16e26","6622cfbf008714f5065deb7f","
    <div id=""grid-container"">
        <!-- Grid items will be dynamically added here -->
    </div>    ","null","","","","","","","","","","","",""
"","null","html-keyboard-response","24","92174","0.0-9.0-3.3","9YZchSawTb","5f91fe1f5ed1060f5afb58a7","6617fad957f7c6a12ea16e26","6622cfbf008714f5065deb7f","feedback screen","null","","","","","","","","","","","",""
"","null","html-keyboard-response","25","92686","0.0-9.0-0.4","9YZchSawTb","5f91fe1f5ed1060f5afb58a7","6617fad957f7c6a12ea16e26","6622cfbf008714f5065deb7f","fixation cross","null","","","","","","","","","","","",""
"","977","html-keyboard-response","26","93663","0.0-9.0-1.4","9YZchSawTb","5f91fe1f5ed1060f5afb58a7","6617fad957f7c6a12ea16e26","6622cfbf008714f5065deb7f","image grid","p","","","","","Ontogenetic_Distractor_Nonthreat_target","2600","ongrid","p","3","Phylogenetic","true","practice"
"","null","html-keyboard-response","27","93818","0.0-9.0-2.4","9YZchSawTb","5f91fe1f5ed1060f5afb58a7","6617fad957f7c6a12ea16e26","6622cfbf008714f5065deb7f","
    <div id=""grid-container"">
        <!-- Grid items will be dynamically added here -->
    </div>    ","null","","","","","","","","","","","",""
"","null","html-keyboard-response","28","95042","0.0-9.0-3.4","9YZchSawTb","5f91fe1f5ed1060f5afb58a7","6617fad957f7c6a12ea16e26","6622cfbf008714f5065deb7f","feedback screen","null","","","","","","","","","","","",""
"","null","html-keyboard-response","29","95554","0.0-9.0-0.5","9YZchSawTb","5f91fe1f5ed1060f5afb58a7","6617fad957f7c6a12ea16e26","6622cfbf008714f5065deb7f","fixation cross","null","","","","","","","","","","","",""
"","1316","html-keyboard-response","30","96870","0.0-9.0-1.5","9YZchSawTb","5f91fe1f5ed1060f5afb58a7","6617fad957f7c6a12ea16e26","6622cfbf008714f5065deb7f","image grid","p","","","","","Phylogenetic_Distractor_Nonthreat_target","2500","ongrid","p","1","Phylogenetic","true","practice"
"","null","html-keyboard-response","31","97025","0.0-9.0-2.5","9YZchSawTb","5f91fe1f5ed1060f5afb58a7","6617fad957f7c6a12ea16e26","6622cfbf008714f5065deb7f","
    <div id=""grid-container"">
        <!-- Grid items will be dynamically added here -->
    </div>    ","null","","","","","","","","","","","",""
"","null","html-keyboard-response","32","98242","0.0-9.0-3.5","9YZchSawTb","5f91fe1f5ed1060f5afb58a7","6617fad957f7c6a12ea16e26","6622cfbf008714f5065deb7f","feedback screen","null","","","","","","","","","","","",""
"","null","html-keyboard-response","33","98753","0.0-9.0-0.6","9YZchSawTb","5f91fe1f5ed1060f5afb58a7","6617fad957f7c6a12ea16e26","6622cfbf008714f5065deb7f","fixation cross","null","","","","","","","","","","","",""
"","991","html-keyboard-response","34","99745","0.0-9.0-1.6","9YZchSawTb","5f91fe1f5ed1060f5afb58a7","6617fad957f7c6a12ea16e26","6622cfbf008714f5065deb7f","image grid","q","","","","","Ontogenetic_Distractor_Threat_target","2400","ongrid","q","8","Phylogenetic","true","practice"
"","null","html-keyboard-response","35","99911","0.0-9.0-2.6","9YZchSawTb","5f91fe1f5ed1060f5afb58a7","6617fad957f7c6a12ea16e26","6622cfbf008714f5065deb7f","
    <div id=""grid-container"">
        <!-- Grid items will be dynamically added here -->
    </div>    ","null","","","","","","","","","","","",""
"","null","html-keyboard-response","36","101140","0.0-9.0-3.6","9YZchSawTb","5f91fe1f5ed1060f5afb58a7","6617fad957f7c6a12ea16e26","6622cfbf008714f5065deb7f","feedback screen","null","","","","","","","","","","","",""
"","null","html-keyboard-response","37","101652","0.0-9.0-0.7","9YZchSawTb","5f91fe1f5ed1060f5afb58a7","6617fad957f7c6a12ea16e26","6622cfbf008714f5065deb7f","fixation cross","null","","","","","","","","","","","",""
"","1766","html-keyboard-response","38","103419","0.0-9.0-1.7","9YZchSawTb","5f91fe1f5ed1060f5afb58a7","6617fad957f7c6a12ea16e26","6622cfbf008714f5065deb7f","image grid","p","","","","","Phylogenetic_Distractor_Nonthreat_target","2300","ongrid","p","5","Phylogenetic","true","practice"
"","null","html-keyboard-response","39","103572","0.0-9.0-2.7","9YZchSawTb","5f91fe1f5ed1060f5afb58a7","6617fad957f7c6a12ea16e26","6622cfbf008714f5065deb7f","
    <div id=""grid-container"">
        <!-- Grid items will be dynamically added here -->
    </div>    ","null","","","","","","","","","","","",""
"","null","html-keyboard-response","40","104790","0.0-9.0-3.7","9YZchSawTb","5f91fe1f5ed1060f5afb58a7","6617fad957f7c6a12ea16e26","6622cfbf008714f5065deb7f","feedback screen","null","","","","","","","","","","","",""
"","null","html-keyboard-response","41","105307","0.0-9.0-0.8","9YZchSawTb","5f91fe1f5ed1060f5afb58a7","6617fad957f7c6a12ea16e26","6622cfbf008714f5065deb7f","fixation cross","null","","","","","","","","","","","",""
"","1157","html-keyboard-response","42","106465","0.0-9.0-1.8","9YZchSawTb","5f91fe1f5ed1060f5afb58a7","6617fad957f7c6a12ea16e26","6622cfbf008714f5065deb7f","image grid","p","","","","","Ontogenetic_Distractor_Nonthreat_target","2200","ongrid","p","2","Phylogenetic","true","practice"
"","null","html-keyboard-response","43","106622","0.0-9.0-2.8","9YZchSawTb","5f91fe1f5ed1060f5afb58a7","6617fad957f7c6a12ea16e26","6622cfbf008714f5065deb7f","
    <div id=""grid-container"">
        <!-- Grid items will be dynamically added here -->
    </div>    ","null","","","","","","","","","","","",""
"","null","html-keyboard-response","44","107836","0.0-9.0-3.8","9YZchSawTb","5f91fe1f5ed1060f5afb58a7","6617fad957f7c6a12ea16e26","6622cfbf008714f5065deb7f","feedback screen","null","","","","","","","","","","","",""
"","null","html-keyboard-response","45","108350","0.0-9.0-0.9","9YZchSawTb","5f91fe1f5ed1060f5afb58a7","6617fad957f7c6a12ea16e26","6622cfbf008714f5065deb7f","fixation cross","null","","","","","","","","","","","",""
"","959","html-keyboard-response","46","109309","0.0-9.0-1.9","9YZchSawTb","5f91fe1f5ed1060f5afb58a7","6617fad957f7c6a12ea16e26","6622cfbf008714f5065deb7f","image grid","q","","","","","Phylogenetic_Distractor_Threat_target","2100","ongrid","q","9","Phylogenetic","true","practice"
"","null","html-keyboard-response","47","109464","0.0-9.0-2.9","9YZchSawTb","5f91fe1f5ed1060f5afb58a7","6617fad957f7c6a12ea16e26","6622cfbf008714f5065deb7f","
    <div id=""grid-container"">
        <!-- Grid items will be dynamically added here -->
    </div>    ","null","","","","","","","","","","","",""
"","null","html-keyboard-response","48","110692","0.0-9.0-3.9","9YZchSawTb","5f91fe1f5ed1060f5afb58a7","6617fad957f7c6a12ea16e26","6622cfbf008714f5065deb7f","feedback screen","null","","","","","","","","","","","",""
"","null","html-keyboard-response","49","111204","0.0-9.0-0.10","9YZchSawTb","5f91fe1f5ed1060f5afb58a7","6617fad957f7c6a12ea16e26","6622cfbf008714f5065deb7f","fixation cross","null","","","","","","","","","","","",""
"","866","html-keyboard-response","50","112070","0.0-9.0-1.10","9YZchSawTb","5f91fe1f5ed1060f5afb58a7","6617fad957f7c6a12ea16e26","6622cfbf008714f5065deb7f","image grid","p","","","","","Phylogenetic_Distractor_Nonthreat_target","2000","ongrid","p","5","Phylogenetic","true","practice"
"","null","html-keyboard-response","51","112228","0.0-9.0-2.10","9YZchSawTb","5f91fe1f5ed1060f5afb58a7","6617fad957f7c6a12ea16e26","6622cfbf008714f5065deb7f","
    <div id=""grid-container"">
        <!-- Grid items will be dynamically added here -->
    </div>    ","null","","","","","","","","","","","",""
"","null","html-keyboard-response","52","113444","0.0-9.0-3.10","9YZchSawTb","5f91fe1f5ed1060f5afb58a7","6617fad957f7c6a12ea16e26","6622cfbf008714f5065deb7f","feedback screen","null","","","","","","","","","","","",""
"","null","html-keyboard-response","53","113954","0.0-9.0-0.11","9YZchSawTb","5f91fe1f5ed1060f5afb58a7","6617fad957f7c6a12ea16e26","6622cfbf008714f5065deb7f","fixation cross","null","","","","","","","","","","","",""
"","1909","html-keyboard-response","54","115863","0.0-9.0-1.11","9YZchSawTb","5f91fe1f5ed1060f5afb58a7","6617fad957f7c6a12ea16e26","6622cfbf008714f5065deb7f","image grid"," ","","","","","Phylogenetic_Distractor_notarget","1900","ongrid"," ","6","Phylogenetic","true","practice"
"","null","html-keyboard-response","55","116025","0.0-9.0-2.11","9YZchSawTb","5f91fe1f5ed1060f5afb58a7","6617fad957f7c6a12ea16e26","6622cfbf008714f5065deb7f","
    <div id=""grid-container"">
        <!-- Grid items will be dynamically added here -->
    </div>    ","null","","","","","","","","","","","",""
"","null","html-keyboard-response","56","117241","0.0-9.0-3.11","9YZchSawTb","5f91fe1f5ed1060f5afb58a7","6617fad957f7c6a12ea16e26","6622cfbf008714f5065deb7f","feedback screen","null","","","","","","","","","","","",""
"","null","html-keyboard-response","57","117756","0.0-9.0-0.12","9YZchSawTb","5f91fe1f5ed1060f5afb58a7","6617fad957f7c6a12ea16e26","6622cfbf008714f5065deb7f","fixation cross","null","","","","","","","","","","","",""
"","null","html-keyboard-response","58","119564","0.0-9.0-1.12","9YZchSawTb","5f91fe1f5ed1060f5afb58a7","6617fad957f7c6a12ea16e26","6622cfbf008714f5065deb7f","
        <div id=""grid-container"">
        <!-- Grid items will be dynamically added here -->
    </div>    ","null","","","","","","","","","","","",""
"","1820","html-keyboard-response","59","119585","0.0-9.0-2.12","9YZchSawTb","5f91fe1f5ed1060f5afb58a7","6617fad957f7c6a12ea16e26","6622cfbf008714f5065deb7f","mask grid","q","","","","","Ontogenetic_Distractor_Threat_target","1800","onmask","q","8","Phylogenetic","true","practice"
"","null","html-keyboard-response","60","120804","0.0-9.0-3.12","9YZchSawTb","5f91fe1f5ed1060f5afb58a7","6617fad957f7c6a12ea16e26","6622cfbf008714f5065deb7f","feedback screen","null","","","","","","","","","","","",""
"","null","html-keyboard-response","61","121316","0.0-9.0-0.13","9YZchSawTb","5f91fe1f5ed1060f5afb58a7","6617fad957f7c6a12ea16e26","6622cfbf008714f5065deb7f","fixation cross","null","","","","","","","","","","","",""
"","null","html-keyboard-response","62","123027","0.0-9.0-1.13","9YZchSawTb","5f91fe1f5ed1060f5afb58a7","6617fad957f7c6a12ea16e26","6622cfbf008714f5065deb7f","
        <div id=""grid-container"">
        <!-- Grid items will be dynamically added here -->
    </div>    ","null","","","","","","","","","","","",""
"","2897","html-keyboard-response","63","124224","0.0-9.0-2.13","9YZchSawTb","5f91fe1f5ed1060f5afb58a7","6617fad957f7c6a12ea16e26","6622cfbf008714f5065deb7f","mask grid"," ","","","","","Phylogenetic_Distractor_Nonthreat_target","1700","onmask","p","1","Phylogenetic","false","practice"
"","null","html-keyboard-response","64","125436","0.0-9.0-3.13","9YZchSawTb","5f91fe1f5ed1060f5afb58a7","6617fad957f7c6a12ea16e26","6622cfbf008714f5065deb7f","feedback screen","null","","","","","","","","","","","",""
"","null","html-keyboard-response","65","125946","0.0-9.0-0.14","9YZchSawTb","5f91fe1f5ed1060f5afb58a7","6617fad957f7c6a12ea16e26","6622cfbf008714f5065deb7f","fixation cross","null","","","","","","","","","","","",""
"","1379","html-keyboard-response","66","127325","0.0-9.0-1.14","9YZchSawTb","5f91fe1f5ed1060f5afb58a7","6617fad957f7c6a12ea16e26","6622cfbf008714f5065deb7f","image grid"," ","","","","","Ontogenetic_Distractor_notarget","1600","ongrid"," ","8","Phylogenetic","true","practice"
"","null","html-keyboard-response","67","127487","0.0-9.0-2.14","9YZchSawTb","5f91fe1f5ed1060f5afb58a7","6617fad957f7c6a12ea16e26","6622cfbf008714f5065deb7f","
    <div id=""grid-container"">
        <!-- Grid items will be dynamically added here -->
    </div>    ","null","","","","","","","","","","","",""
"","null","html-keyboard-response","68","128698","0.0-9.0-3.14","9YZchSawTb","5f91fe1f5ed1060f5afb58a7","6617fad957f7c6a12ea16e26","6622cfbf008714f5065deb7f","feedback screen","null","","","","","","","","","","","",""
"","null","html-keyboard-response","69","129210","0.0-9.0-0.15","9YZchSawTb","5f91fe1f5ed1060f5afb58a7","6617fad957f7c6a12ea16e26","6622cfbf008714f5065deb7f","fixation cross","null","","","","","","","","","","","",""
"","853","html-keyboard-response","70","130063","0.0-9.0-1.15","9YZchSawTb","5f91fe1f5ed1060f5afb58a7","6617fad957f7c6a12ea16e26","6622cfbf008714f5065deb7f","image grid","q","","","","","Ontogenetic_Distractor_Threat_target","1500","ongrid","q","5","Phylogenetic","true","practice"
"","null","html-keyboard-response","71","130219","0.0-9.0-2.15","9YZchSawTb","5f91fe1f5ed1060f5afb58a7","6617fad957f7c6a12ea16e26","6622cfbf008714f5065deb7f","
    <div id=""grid-container"">
        <!-- Grid items will be dynamically added here -->
    </div>    ","null","","","","","","","","","","","",""
"","null","html-keyboard-response","72","131434","0.0-9.0-3.15","9YZchSawTb","5f91fe1f5ed1060f5afb58a7","6617fad957f7c6a12ea16e26","6622cfbf008714f5065deb7f","feedback screen","null","","","","","","","","","","","",""
"","null","html-keyboard-response","73","131944","0.0-9.0-0.16","9YZchSawTb","5f91fe1f5ed1060f5afb58a7","6617fad957f7c6a12ea16e26","6622cfbf008714f5065deb7f","fixation cross","null","","","","","","","","","","","",""
"","816","html-keyboard-response","74","132761","0.0-9.0-1.16","9YZchSawTb","5f91fe1f5ed1060f5afb58a7","6617fad957f7c6a12ea16e26","6622cfbf008714f5065deb7f","image grid","q","","","","","Phylogenetic_Distractor_Threat_target","1400","ongrid","q","3","Phylogenetic","true","practice"
"","null","html-keyboard-response","75","132916","0.0-9.0-2.16","9YZchSawTb","5f91fe1f5ed1060f5afb58a7","6617fad957f7c6a12ea16e26","6622cfbf008714f5065deb7f","
    <div id=""grid-container"">
        <!-- Grid items will be dynamically added here -->
    </div>    ","null","","","","","","","","","","","",""
"","null","html-keyboard-response","76","134132","0.0-9.0-3.16","9YZchSawTb","5f91fe1f5ed1060f5afb58a7","6617fad957f7c6a12ea16e26","6622cfbf008714f5065deb7f","feedback screen","null","","","","","","","","","","","",""
"","null","html-keyboard-response","77","134647","0.0-9.0-0.17","9YZchSawTb","5f91fe1f5ed1060f5afb58a7","6617fad957f7c6a12ea16e26","6622cfbf008714f5065deb7f","fixation cross","null","","","","","","","","","","","",""
"","null","html-keyboard-response","78","135962","0.0-9.0-1.17","9YZchSawTb","5f91fe1f5ed1060f5afb58a7","6617fad957f7c6a12ea16e26","6622cfbf008714f5065deb7f","
        <div id=""grid-container"">
        <!-- Grid items will be dynamically added here -->
    </div>    ","null","","","","","","","","","","","",""
"","1371","html-keyboard-response","79","136033","0.0-9.0-2.17","9YZchSawTb","5f91fe1f5ed1060f5afb58a7","6617fad957f7c6a12ea16e26","6622cfbf008714f5065deb7f","mask grid"," ","","","","","Phylogenetic_Distractor_notarget","1300","onmask"," ","2","Phylogenetic","true","practice"
"","null","html-keyboard-response","80","137251","0.0-9.0-3.17","9YZchSawTb","5f91fe1f5ed1060f5afb58a7","6617fad957f7c6a12ea16e26","6622cfbf008714f5065deb7f","feedback screen","null","","","","","","","","","","","",""
"","null","html-keyboard-response","81","137764","0.0-9.0-0.18","9YZchSawTb","5f91fe1f5ed1060f5afb58a7","6617fad957f7c6a12ea16e26","6622cfbf008714f5065deb7f","fixation cross","null","","","","","","","","","","","",""
"","1056","html-keyboard-response","82","138820","0.0-9.0-1.18","9YZchSawTb","5f91fe1f5ed1060f5afb58a7","6617fad957f7c6a12ea16e26","6622cfbf008714f5065deb7f","image grid","q","","","","","Phylogenetic_Distractor_Threat_target","1200","ongrid","q","6","Phylogenetic","true","practice"
"","null","html-keyboard-response","83","138978","0.0-9.0-2.18","9YZchSawTb","5f91fe1f5ed1060f5afb58a7","6617fad957f7c6a12ea16e26","6622cfbf008714f5065deb7f","
    <div id=""grid-container"">
        <!-- Grid items will be dynamically added here -->
    </div>    ","null","","","","","","","","","","","",""
"","null","html-keyboard-response","84","140193","0.0-9.0-3.18","9YZchSawTb","5f91fe1f5ed1060f5afb58a7","6617fad957f7c6a12ea16e26","6622cfbf008714f5065deb7f","feedback screen","null","","","","","","","","","","","",""
"","null","html-keyboard-response","85","140704","0.0-9.0-0.19","9YZchSawTb","5f91fe1f5ed1060f5afb58a7","6617fad957f7c6a12ea16e26","6622cfbf008714f5065deb7f","fixation cross","null","","","","","","","","","","","",""
"","819","html-keyboard-response","86","141523","0.0-9.0-1.19","9YZchSawTb","5f91fe1f5ed1060f5afb58a7","6617fad957f7c6a12ea16e26","6622cfbf008714f5065deb7f","image grid","q","","","","","Ontogenetic_Distractor_Threat_target","1100","ongrid","q","9","Phylogenetic","true","practice"
"","null","html-keyboard-response","87","141680","0.0-9.0-2.19","9YZchSawTb","5f91fe1f5ed1060f5afb58a7","6617fad957f7c6a12ea16e26","6622cfbf008714f5065deb7f","
    <div id=""grid-container"">
        <!-- Grid items will be dynamically added here -->
    </div>    ","null","","","","","","","","","","","",""
"","null","html-keyboard-response","88","142891","0.0-9.0-3.19","9YZchSawTb","5f91fe1f5ed1060f5afb58a7","6617fad957f7c6a12ea16e26","6622cfbf008714f5065deb7f","feedback screen","null","","","","","","","","","","","",""
"","4955","html-keyboard-response","89","147867","0.0-10.0","9YZchSawTb","5f91fe1f5ed1060f5afb58a7","6617fad957f7c6a12ea16e26","6622cfbf008714f5065deb7f","pre-experimental_briefing"," ","","","","","","","","","","","",""
"","null","html-keyboard-response","90","150402","0.0-11.0-0.0","9YZchSawTb","5f91fe1f5ed1060f5afb58a7","6617fad957f7c6a12ea16e26","6622cfbf008714f5065deb7f","fixation cross","null","","","","","","","","","","","",""
"","1149","html-keyboard-response","91","151551","0.0-11.0-1.0","9YZchSawTb","5f91fe1f5ed1060f5afb58a7","6617fad957f7c6a12ea16e26","6622cfbf008714f5065deb7f","image grid","p","","","","","Phylogenetic_Distractor_Nonthreat_target","2500","ongrid","p","6","Phylogenetic","true","experimental"
"","null","html-keyboard-response","92","151707","0.0-11.0-2.0","9YZchSawTb","5f91fe1f5ed1060f5afb58a7","6617fad957f7c6a12ea16e26","6622cfbf008714f5065deb7f","
    <div id=""grid-container"">
        <!-- Grid items will be dynamically added here -->
    </div>    ","null","","","","","","","","","","","",""
"","null","html-keyboard-response","93","152426","0.0-11.0-0.1","9YZchSawTb","5f91fe1f5ed1060f5afb58a7","6617fad957f7c6a12ea16e26","6622cfbf008714f5065deb7f","fixation cross","null","","","","","","","","","","","",""
"","1188","html-keyboard-response","94","153615","0.0-11.0-1.1","9YZchSawTb","5f91fe1f5ed1060f5afb58a7","6617fad957f7c6a12ea16e26","6622cfbf008714f5065deb7f","image grid","p","","","","","Phylogenetic_Distractor_Nonthreat_target","2500","ongrid","p","9","Phylogenetic","true","experimental"
"","null","html-keyboard-response","95","153771","0.0-11.0-2.1","9YZchSawTb","5f91fe1f5ed1060f5afb58a7","6617fad957f7c6a12ea16e26","6622cfbf008714f5065deb7f","
    <div id=""grid-container"">
        <!-- Grid items will be dynamically added here -->
    </div>    ","null","","","","","","","","","","","",""
"","null","html-keyboard-response","96","154489","0.0-11.0-0.2","9YZchSawTb","5f91fe1f5ed1060f5afb58a7","6617fad957f7c6a12ea16e26","6622cfbf008714f5065deb7f","fixation cross","null","","","","","","","","","","","",""
"","951","html-keyboard-response","97","155440","0.0-11.0-1.2","9YZchSawTb","5f91fe1f5ed1060f5afb58a7","6617fad957f7c6a12ea16e26","6622cfbf008714f5065deb7f","image grid","q","","","","","Phylogenetic_Distractor_Threat_target","2500","ongrid","q","8","Phylogenetic","true","experimental"
"","null","html-keyboard-response","98","155591","0.0-11.0-2.2","9YZchSawTb","5f91fe1f5ed1060f5afb58a7","6617fad957f7c6a12ea16e26","6622cfbf008714f5065deb7f","
    <div id=""grid-container"">
        <!-- Grid items will be dynamically added here -->
    </div>    ","null","","","","","","","","","","","",""
"","null","html-keyboard-response","99","156305","0.0-11.0-0.3","9YZchSawTb","5f91fe1f5ed1060f5afb58a7","6617fad957f7c6a12ea16e26","6622cfbf008714f5065deb7f","fixation cross","null","","","","","","","","","","","",""
"","1402","html-keyboard-response","100","157708","0.0-11.0-1.3","9YZchSawTb","5f91fe1f5ed1060f5afb58a7","6617fad957f7c6a12ea16e26","6622cfbf008714f5065deb7f","image grid"," ","","","","","Phylogenetic_Distractor_Threat_target","2500","ongrid","q","2","Phylogenetic","false","experimental"
"","null","html-keyboard-response","101","157861","0.0-11.0-2.3","9YZchSawTb","5f91fe1f5ed1060f5afb58a7","6617fad957f7c6a12ea16e26","6622cfbf008714f5065deb7f","
    <div id=""grid-container"">
        <!-- Grid items will be dynamically added here -->
    </div>    ","null","","","","","","","","","","","",""
"","null","html-keyboard-response","102","158578","0.0-11.0-0.4","9YZchSawTb","5f91fe1f5ed1060f5afb58a7","6617fad957f7c6a12ea16e26","6622cfbf008714f5065deb7f","fixation cross","null","","","","","","","","","","","",""
"","1377","html-keyboard-response","103","159955","0.0-11.0-1.4","9YZchSawTb","5f91fe1f5ed1060f5afb58a7","6617fad957f7c6a12ea16e26","6622cfbf008714f5065deb7f","image grid","p","","","","","Phylogenetic_Distractor_Nonthreat_target","2500","ongrid","p","3","Phylogenetic","true","experimental"
"","null","html-keyboard-response","104","160114","0.0-11.0-2.4","9YZchSawTb","5f91fe1f5ed1060f5afb58a7","6617fad957f7c6a12ea16e26","6622cfbf008714f5065deb7f","
    <div id=""grid-container"">
        <!-- Grid items will be dynamically added here -->
    </div>    ","null","","","","","","","","","","","",""
"","null","html-keyboard-response","105","160833","0.0-11.0-0.5","9YZchSawTb","5f91fe1f5ed1060f5afb58a7","6617fad957f7c6a12ea16e26","6622cfbf008714f5065deb7f","fixation cross","null","","","","","","","","","","","",""
"","704","html-keyboard-response","106","161537","0.0-11.0-1.5","9YZchSawTb","5f91fe1f5ed1060f5afb58a7","6617fad957f7c6a12ea16e26","6622cfbf008714f5065deb7f","image grid","q","","","","","Phylogenetic_Distractor_Threat_target","2500","ongrid","q","3","Phylogenetic","true","experimental"
"","null","html-keyboard-response","107","161701","0.0-11.0-2.5","9YZchSawTb","5f91fe1f5ed1060f5afb58a7","6617fad957f7c6a12ea16e26","6622cfbf008714f5065deb7f","
    <div id=""grid-container"">
        <!-- Grid items will be dynamically added here -->
    </div>    ","null","","","","","","","","","","","",""
"","null","html-keyboard-response","108","162418","0.0-11.0-0.6","9YZchSawTb","5f91fe1f5ed1060f5afb58a7","6617fad957f7c6a12ea16e26","6622cfbf008714f5065deb7f","fixation cross","null","","","","","","","","","","","",""
"","936","html-keyboard-response","109","163354","0.0-11.0-1.6","9YZchSawTb","5f91fe1f5ed1060f5afb58a7","6617fad957f7c6a12ea16e26","6622cfbf008714f5065deb7f","image grid","q","","","","","Phylogenetic_Distractor_Threat_target","2500","ongrid","q","8","Phylogenetic","true","experimental"
"","null","html-keyboard-response","110","163507","0.0-11.0-2.6","9YZchSawTb","5f91fe1f5ed1060f5afb58a7","6617fad957f7c6a12ea16e26","6622cfbf008714f5065deb7f","
    <div id=""grid-container"">
        <!-- Grid items will be dynamically added here -->
    </div>    ","null","","","","","","","","","","","",""
"","null","html-keyboard-response","111","164221","0.0-11.0-0.7","9YZchSawTb","5f91fe1f5ed1060f5afb58a7","6617fad957f7c6a12ea16e26","6622cfbf008714f5065deb7f","fixation cross","null","","","","","","","","","","","",""
"","1421","html-keyboard-response","112","165642","0.0-11.0-1.7","9YZchSawTb","5f91fe1f5ed1060f5afb58a7","6617fad957f7c6a12ea16e26","6622cfbf008714f5065deb7f","image grid"," ","","","","","Phylogenetic_Distractor_Nonthreat_target","2500","ongrid","p","7","Phylogenetic","false","experimental"
"","null","html-keyboard-response","113","165807","0.0-11.0-2.7","9YZchSawTb","5f91fe1f5ed1060f5afb58a7","6617fad957f7c6a12ea16e26","6622cfbf008714f5065deb7f","
    <div id=""grid-container"">
        <!-- Grid items will be dynamically added here -->
    </div>    ","null","","","","","","","","","","","",""
"","null","html-keyboard-response","114","166521","0.0-11.0-0.8","9YZchSawTb","5f91fe1f5ed1060f5afb58a7","6617fad957f7c6a12ea16e26","6622cfbf008714f5065deb7f","fixation cross","null","","","","","","","","","","","",""
"","1227","html-keyboard-response","115","167748","0.0-11.0-1.8","9YZchSawTb","5f91fe1f5ed1060f5afb58a7","6617fad957f7c6a12ea16e26","6622cfbf008714f5065deb7f","image grid","q","","","","","Phylogenetic_Distractor_Threat_target","2500","ongrid","q","7","Phylogenetic","true","experimental"
"","null","html-keyboard-response","116","167908","0.0-11.0-2.8","9YZchSawTb","5f91fe1f5ed1060f5afb58a7","6617fad957f7c6a12ea16e26","6622cfbf008714f5065deb7f","
    <div id=""grid-container"">
        <!-- Grid items will be dynamically added here -->
    </div>    ","null","","","","","","","","","","","",""
"","null","html-keyboard-response","117","168624","0.0-11.0-0.9","9YZchSawTb","5f91fe1f5ed1060f5afb58a7","6617fad957f7c6a12ea16e26","6622cfbf008714f5065deb7f","fixation cross","null","","","","","","","","","","","",""
"","889","html-keyboard-response","118","169514","0.0-11.0-1.9","9YZchSawTb","5f91fe1f5ed1060f5afb58a7","6617fad957f7c6a12ea16e26","6622cfbf008714f5065deb7f","image grid","q","","","","","Phylogenetic_Distractor_Threat_target","2500","ongrid","q","4","Phylogenetic","true","experimental"
"","null","html-keyboard-response","119","169667","0.0-11.0-2.9","9YZchSawTb","5f91fe1f5ed1060f5afb58a7","6617fad957f7c6a12ea16e26","6622cfbf008714f5065deb7f","
    <div id=""grid-container"">
        <!-- Grid items will be dynamically added here -->
    </div>    ","null","","","","","","","","","","","",""
"","null","html-keyboard-response","120","170382","0.0-11.0-0.10","9YZchSawTb","5f91fe1f5ed1060f5afb58a7","6617fad957f7c6a12ea16e26","6622cfbf008714f5065deb7f","fixation cross","null","","","","","","","","","","","",""
"","1312","html-keyboard-response","121","171694","0.0-11.0-1.10","9YZchSawTb","5f91fe1f5ed1060f5afb58a7","6617fad957f7c6a12ea16e26","6622cfbf008714f5065deb7f","image grid","q","","","","","Phylogenetic_Distractor_Threat_target","2500","ongrid","q","8","Phylogenetic","true","experimental"
"","null","html-keyboard-response","122","171848","0.0-11.0-2.10","9YZchSawTb","5f91fe1f5ed1060f5afb58a7","6617fad957f7c6a12ea16e26","6622cfbf008714f5065deb7f","
    <div id=""grid-container"">
        <!-- Grid items will be dynamically added here -->
    </div>    ","null","","","","","","","","","","","",""
"","null","html-keyboard-response","123","172576","0.0-11.0-0.11","9YZchSawTb","5f91fe1f5ed1060f5afb58a7","6617fad957f7c6a12ea16e26","6622cfbf008714f5065deb7f","fixation cross","null","","","","","","","","","","","",""
"","810","html-keyboard-response","124","173387","0.0-11.0-1.11","9YZchSawTb","5f91fe1f5ed1060f5afb58a7","6617fad957f7c6a12ea16e26","6622cfbf008714f5065deb7f","image grid","q","","","","","Phylogenetic_Distractor_Threat_target","2500","ongrid","q","1","Phylogenetic","true","experimental"
"","null","html-keyboard-response","125","173540","0.0-11.0-2.11","9YZchSawTb","5f91fe1f5ed1060f5afb58a7","6617fad957f7c6a12ea16e26","6622cfbf008714f5065deb7f","
    <div id=""grid-container"">
        <!-- Grid items will be dynamically added here -->
    </div>    ","null","","","","","","","","","","","",""
"","null","html-keyboard-response","126","174267","0.0-11.0-0.12","9YZchSawTb","5f91fe1f5ed1060f5afb58a7","6617fad957f7c6a12ea16e26","6622cfbf008714f5065deb7f","fixation cross","null","","","","","","","","","","","",""
"","1808","html-keyboard-response","127","176075","0.0-11.0-1.12","9YZchSawTb","5f91fe1f5ed1060f5afb58a7","6617fad957f7c6a12ea16e26","6622cfbf008714f5065deb7f","image grid"," ","","","","","Phylogenetic_Distractor_notarget","2500","ongrid"," ","8","Phylogenetic","true","experimental"
"","null","html-keyboard-response","128","176230","0.0-11.0-2.12","9YZchSawTb","5f91fe1f5ed1060f5afb58a7","6617fad957f7c6a12ea16e26","6622cfbf008714f5065deb7f","
    <div id=""grid-container"">
        <!-- Grid items will be dynamically added here -->
    </div>    ","null","","","","","","","","","","","",""
"","null","html-keyboard-response","129","176942","0.0-11.0-0.13","9YZchSawTb","5f91fe1f5ed1060f5afb58a7","6617fad957f7c6a12ea16e26","6622cfbf008714f5065deb7f","fixation cross","null","","","","","","","","","","","",""
"","1590","html-keyboard-response","130","178533","0.0-11.0-1.13","9YZchSawTb","5f91fe1f5ed1060f5afb58a7","6617fad957f7c6a12ea16e26","6622cfbf008714f5065deb7f","image grid","p","","","","","Phylogenetic_Distractor_Nonthreat_target","2500","ongrid","p","9","Phylogenetic","true","experimental"
"","null","html-keyboard-response","131","178698","0.0-11.0-2.13","9YZchSawTb","5f91fe1f5ed1060f5afb58a7","6617fad957f7c6a12ea16e26","6622cfbf008714f5065deb7f","
    <div id=""grid-container"">
        <!-- Grid items will be dynamically added here -->
    </div>    ","null","","","","","","","","","","","",""
"","null","html-keyboard-response","132","179409","0.0-11.0-0.14","9YZchSawTb","5f91fe1f5ed1060f5afb58a7","6617fad957f7c6a12ea16e26","6622cfbf008714f5065deb7f","fixation cross","null","","","","","","","","","","","",""
"","972","html-keyboard-response","133","180381","0.0-11.0-1.14","9YZchSawTb","5f91fe1f5ed1060f5afb58a7","6617fad957f7c6a12ea16e26","6622cfbf008714f5065deb7f","image grid","p","","","","","Phylogenetic_Distractor_Nonthreat_target","2500","ongrid","p","2","Phylogenetic","true","experimental"
"","null","html-keyboard-response","134","180545","0.0-11.0-2.14","9YZchSawTb","5f91fe1f5ed1060f5afb58a7","6617fad957f7c6a12ea16e26","6622cfbf008714f5065deb7f","
    <div id=""grid-container"">
        <!-- Grid items will be dynamically added here -->
    </div>    ","null","","","","","","","","","","","",""
"","null","html-keyboard-response","135","181261","0.0-11.0-0.15","9YZchSawTb","5f91fe1f5ed1060f5afb58a7","6617fad957f7c6a12ea16e26","6622cfbf008714f5065deb7f","fixation cross","null","","","","","","","","","","","",""
"","1228","html-keyboard-response","136","182489","0.0-11.0-1.15","9YZchSawTb","5f91fe1f5ed1060f5afb58a7","6617fad957f7c6a12ea16e26","6622cfbf008714f5065deb7f","image grid","p","","","","","Phylogenetic_Distractor_Nonthreat_target","2500","ongrid","p","9","Phylogenetic","true","experimental"
"","null","html-keyboard-response","137","182644","0.0-11.0-2.15","9YZchSawTb","5f91fe1f5ed1060f5afb58a7","6617fad957f7c6a12ea16e26","6622cfbf008714f5065deb7f","
    <div id=""grid-container"">
        <!-- Grid items will be dynamically added here -->
    </div>    ","null","","","","","","","","","","","",""
"","null","html-keyboard-response","138","183357","0.0-11.0-0.16","9YZchSawTb","5f91fe1f5ed1060f5afb58a7","6617fad957f7c6a12ea16e26","6622cfbf008714f5065deb7f","fixation cross","null","","","","","","","","","","","",""
"","1109","html-keyboard-response","139","184467","0.0-11.0-1.16","9YZchSawTb","5f91fe1f5ed1060f5afb58a7","6617fad957f7c6a12ea16e26","6622cfbf008714f5065deb7f","image grid","p","","","","","Phylogenetic_Distractor_Nonthreat_target","2500","ongrid","p","6","Phylogenetic","true","experimental"
"","null","html-keyboard-response","140","184631","0.0-11.0-2.16","9YZchSawTb","5f91fe1f5ed1060f5afb58a7","6617fad957f7c6a12ea16e26","6622cfbf008714f5065deb7f","
    <div id=""grid-container"">
        <!-- Grid items will be dynamically added here -->
    </div>    ","null","","","","","","","","","","","",""
"","null","html-keyboard-response","141","185345","0.0-11.0-0.17","9YZchSawTb","5f91fe1f5ed1060f5afb58a7","6617fad957f7c6a12ea16e26","6622cfbf008714f5065deb7f","fixation cross","null","","","","","","","","","","","",""
"","787","html-keyboard-response","142","186132","0.0-11.0-1.17","9YZchSawTb","5f91fe1f5ed1060f5afb58a7","6617fad957f7c6a12ea16e26","6622cfbf008714f5065deb7f","image grid","q","","","","","Phylogenetic_Distractor_Threat_target","2500","ongrid","q","1","Phylogenetic","true","experimental"
"","null","html-keyboard-response","143","186295","0.0-11.0-2.17","9YZchSawTb","5f91fe1f5ed1060f5afb58a7","6617fad957f7c6a12ea16e26","6622cfbf008714f5065deb7f","
    <div id=""grid-container"">
        <!-- Grid items will be dynamically added here -->
    </div>    ","null","","","","","","","","","","","",""
"","null","html-keyboard-response","144","186998","0.0-11.0-0.18","9YZchSawTb","5f91fe1f5ed1060f5afb58a7","6617fad957f7c6a12ea16e26","6622cfbf008714f5065deb7f","fixation cross","null","","","","","","","","","","","",""
"","1174","html-keyboard-response","145","188173","0.0-11.0-1.18","9YZchSawTb","5f91fe1f5ed1060f5afb58a7","6617fad957f7c6a12ea16e26","6622cfbf008714f5065deb7f","image grid","p","","","","","Phylogenetic_Distractor_Nonthreat_target","2500","ongrid","p","1","Phylogenetic","true","experimental"
"","null","html-keyboard-response","146","188337","0.0-11.0-2.18","9YZchSawTb","5f91fe1f5ed1060f5afb58a7","6617fad957f7c6a12ea16e26","6622cfbf008714f5065deb7f","
    <div id=""grid-container"">
        <!-- Grid items will be dynamically added here -->
    </div>    ","null","","","","","","","","","","","",""
"","null","html-keyboard-response","147","189042","0.0-11.0-0.19","9YZchSawTb","5f91fe1f5ed1060f5afb58a7","6617fad957f7c6a12ea16e26","6622cfbf008714f5065deb7f","fixation cross","null","","","","","","","","","","","",""
"","1151","html-keyboard-response","148","190193","0.0-11.0-1.19","9YZchSawTb","5f91fe1f5ed1060f5afb58a7","6617fad957f7c6a12ea16e26","6622cfbf008714f5065deb7f","image grid"," ","","","","","Phylogenetic_Distractor_notarget","2500","ongrid"," ","4","Phylogenetic","true","experimental"
"","null","html-keyboard-response","149","190347","0.0-11.0-2.19","9YZchSawTb","5f91fe1f5ed1060f5afb58a7","6617fad957f7c6a12ea16e26","6622cfbf008714f5065deb7f","
    <div id=""grid-container"">
        <!-- Grid items will be dynamically added here -->
    </div>    ","null","","","","","","","","","","","",""
"","null","html-keyboard-response","150","191060","0.0-11.0-0.20","9YZchSawTb","5f91fe1f5ed1060f5afb58a7","6617fad957f7c6a12ea16e26","6622cfbf008714f5065deb7f","fixation cross","null","","","","","","","","","","","",""
"","853","html-keyboard-response","151","191914","0.0-11.0-1.20","9YZchSawTb","5f91fe1f5ed1060f5afb58a7","6617fad957f7c6a12ea16e26","6622cfbf008714f5065deb7f","image grid","q","","","","","Phylogenetic_Distractor_Threat_target","2500","ongrid","q","6","Phylogenetic","true","experimental"
"","null","html-keyboard-response","152","192074","0.0-11.0-2.20","9YZchSawTb","5f91fe1f5ed1060f5afb58a7","6617fad957f7c6a12ea16e26","6622cfbf008714f5065deb7f","
    <div id=""grid-container"">
        <!-- Grid items will be dynamically added here -->
    </div>    ","null","","","","","","","","","","","",""
"","null","html-keyboard-response","153","192788","0.0-11.0-0.21","9YZchSawTb","5f91fe1f5ed1060f5afb58a7","6617fad957f7c6a12ea16e26","6622cfbf008714f5065deb7f","fixation cross","null","","","","","","","","","","","",""
"","1243","html-keyboard-response","154","194031","0.0-11.0-1.21","9YZchSawTb","5f91fe1f5ed1060f5afb58a7","6617fad957f7c6a12ea16e26","6622cfbf008714f5065deb7f","image grid"," ","","","","","Phylogenetic_Distractor_notarget","2500","ongrid"," ","1","Phylogenetic","true","experimental"
"","null","html-keyboard-response","155","194187","0.0-11.0-2.21","9YZchSawTb","5f91fe1f5ed1060f5afb58a7","6617fad957f7c6a12ea16e26","6622cfbf008714f5065deb7f","
    <div id=""grid-container"">
        <!-- Grid items will be dynamically added here -->
    </div>    ","null","","","","","","","","","","","",""
"","null","html-keyboard-response","156","194904","0.0-11.0-0.22","9YZchSawTb","5f91fe1f5ed1060f5afb58a7","6617fad957f7c6a12ea16e26","6622cfbf008714f5065deb7f","fixation cross","null","","","","","","","","","","","",""
"","1011","html-keyboard-response","157","195915","0.0-11.0-1.22","9YZchSawTb","5f91fe1f5ed1060f5afb58a7","6617fad957f7c6a12ea16e26","6622cfbf008714f5065deb7f","image grid"," ","","","","","Phylogenetic_Distractor_notarget","2500","ongrid"," ","8","Phylogenetic","true","experimental"
"","null","html-keyboard-response","158","196072","0.0-11.0-2.22","9YZchSawTb","5f91fe1f5ed1060f5afb58a7","6617fad957f7c6a12ea16e26","6622cfbf008714f5065deb7f","
    <div id=""grid-container"">
        <!-- Grid items will be dynamically added here -->
    </div>    ","null","","","","","","","","","","","",""
"","null","html-keyboard-response","159","196786","0.0-11.0-0.23","9YZchSawTb","5f91fe1f5ed1060f5afb58a7","6617fad957f7c6a12ea16e26","6622cfbf008714f5065deb7f","fixation cross","null","","","","","","","","","","","",""
"","1058","html-keyboard-response","160","197844","0.0-11.0-1.23","9YZchSawTb","5f91fe1f5ed1060f5afb58a7","6617fad957f7c6a12ea16e26","6622cfbf008714f5065deb7f","image grid","p","","","","","Phylogenetic_Distractor_Nonthreat_target","2500","ongrid","p","4","Phylogenetic","true","experimental"
"","null","html-keyboard-response","161","198001","0.0-11.0-2.23","9YZchSawTb","5f91fe1f5ed1060f5afb58a7","6617fad957f7c6a12ea16e26","6622cfbf008714f5065deb7f","
    <div id=""grid-container"">
        <!-- Grid items will be dynamically added here -->
    </div>    ","null","","","","","","","","","","","",""
"","null","html-keyboard-response","162","198714","0.0-11.0-0.24","9YZchSawTb","5f91fe1f5ed1060f5afb58a7","6617fad957f7c6a12ea16e26","6622cfbf008714f5065deb7f","fixation cross","null","","","","","","","","","","","",""
"","1370","html-keyboard-response","163","200085","0.0-11.0-1.24","9YZchSawTb","5f91fe1f5ed1060f5afb58a7","6617fad957f7c6a12ea16e26","6622cfbf008714f5065deb7f","image grid","q","","","","","Phylogenetic_Distractor_Threat_target","2500","ongrid","q","8","Phylogenetic","true","experimental"
"","null","html-keyboard-response","164","200238","0.0-11.0-2.24","9YZchSawTb","5f91fe1f5ed1060f5afb58a7","6617fad957f7c6a12ea16e26","6622cfbf008714f5065deb7f","
    <div id=""grid-container"">
        <!-- Grid items will be dynamically added here -->
    </div>    ","null","","","","","","","","","","","",""
"","null","html-keyboard-response","165","200953","0.0-11.0-0.25","9YZchSawTb","5f91fe1f5ed1060f5afb58a7","6617fad957f7c6a12ea16e26","6622cfbf008714f5065deb7f","fixation cross","null","","","","","","","","","","","",""
"","710","html-keyboard-response","166","201663","0.0-11.0-1.25","9YZchSawTb","5f91fe1f5ed1060f5afb58a7","6617fad957f7c6a12ea16e26","6622cfbf008714f5065deb7f","image grid","q","","","","","Phylogenetic_Distractor_Threat_target","2500","ongrid","q","3","Phylogenetic","true","experimental"
"","null","html-keyboard-response","167","201828","0.0-11.0-2.25","9YZchSawTb","5f91fe1f5ed1060f5afb58a7","6617fad957f7c6a12ea16e26","6622cfbf008714f5065deb7f","
    <div id=""grid-container"">
        <!-- Grid items will be dynamically added here -->
    </div>    ","null","","","","","","","","","","","",""
"","null","html-keyboard-response","168","202542","0.0-11.0-0.26","9YZchSawTb","5f91fe1f5ed1060f5afb58a7","6617fad957f7c6a12ea16e26","6622cfbf008714f5065deb7f","fixation cross","null","","","","","","","","","","","",""
"","977","html-keyboard-response","169","203519","0.0-11.0-1.26","9YZchSawTb","5f91fe1f5ed1060f5afb58a7","6617fad957f7c6a12ea16e26","6622cfbf008714f5065deb7f","image grid","q","","","","","Phylogenetic_Distractor_Threat_target","2500","ongrid","q","8","Phylogenetic","true","experimental"
"","null","html-keyboard-response","170","203674","0.0-11.0-2.26","9YZchSawTb","5f91fe1f5ed1060f5afb58a7","6617fad957f7c6a12ea16e26","6622cfbf008714f5065deb7f","
    <div id=""grid-container"">
        <!-- Grid items will be dynamically added here -->
    </div>    ","null","","","","","","","","","","","",""
"","null","html-keyboard-response","171","204390","0.0-11.0-0.27","9YZchSawTb","5f91fe1f5ed1060f5afb58a7","6617fad957f7c6a12ea16e26","6622cfbf008714f5065deb7f","fixation cross","null","","","","","","","","","","","",""
"","1173","html-keyboard-response","172","205563","0.0-11.0-1.27","9YZchSawTb","5f91fe1f5ed1060f5afb58a7","6617fad957f7c6a12ea16e26","6622cfbf008714f5065deb7f","image grid","q","","","","","Phylogenetic_Distractor_Threat_target","2500","ongrid","q","9","Phylogenetic","true","experimental"
"","null","html-keyboard-response","173","205724","0.0-11.0-2.27","9YZchSawTb","5f91fe1f5ed1060f5afb58a7","6617fad957f7c6a12ea16e26","6622cfbf008714f5065deb7f","
    <div id=""grid-container"">
        <!-- Grid items will be dynamically added here -->
    </div>    ","null","","","","","","","","","","","",""
"","null","html-keyboard-response","174","206443","0.0-11.0-0.28","9YZchSawTb","5f91fe1f5ed1060f5afb58a7","6617fad957f7c6a12ea16e26","6622cfbf008714f5065deb7f","fixation cross","null","","","","","","","","","","","",""
"","770","html-keyboard-response","175","207213","0.0-11.0-1.28","9YZchSawTb","5f91fe1f5ed1060f5afb58a7","6617fad957f7c6a12ea16e26","6622cfbf008714f5065deb7f","image grid","q","","","","","Phylogenetic_Distractor_Threat_target","2500","ongrid","q","1","Phylogenetic","true","experimental"
"","null","html-keyboard-response","176","207377","0.0-11.0-2.28","9YZchSawTb","5f91fe1f5ed1060f5afb58a7","6617fad957f7c6a12ea16e26","6622cfbf008714f5065deb7f","
    <div id=""grid-container"">
        <!-- Grid items will be dynamically added here -->
    </div>    ","null","","","","","","","","","","","",""
"","null","html-keyboard-response","177","208086","0.0-11.0-0.29","9YZchSawTb","5f91fe1f5ed1060f5afb58a7","6617fad957f7c6a12ea16e26","6622cfbf008714f5065deb7f","fixation cross","null","","","","","","","","","","","",""
"","1264","html-keyboard-response","178","209351","0.0-11.0-1.29","9YZchSawTb","5f91fe1f5ed1060f5afb58a7","6617fad957f7c6a12ea16e26","6622cfbf008714f5065deb7f","image grid","p","","","","","Phylogenetic_Distractor_Nonthreat_target","2500","ongrid","p","7","Phylogenetic","true","experimental"
"","null","html-keyboard-response","179","209515","0.0-11.0-2.29","9YZchSawTb","5f91fe1f5ed1060f5afb58a7","6617fad957f7c6a12ea16e26","6622cfbf008714f5065deb7f","
    <div id=""grid-container"">
        <!-- Grid items will be dynamically added here -->
    </div>    ","null","","","","","","","","","","","",""
"","null","html-keyboard-response","180","210228","0.0-11.0-0.30","9YZchSawTb","5f91fe1f5ed1060f5afb58a7","6617fad957f7c6a12ea16e26","6622cfbf008714f5065deb7f","fixation cross","null","","","","","","","","","","","",""
"","863","html-keyboard-response","181","211091","0.0-11.0-1.30","9YZchSawTb","5f91fe1f5ed1060f5afb58a7","6617fad957f7c6a12ea16e26","6622cfbf008714f5065deb7f","image grid","p","","","","","Phylogenetic_Distractor_Nonthreat_target","2500","ongrid","p","3","Phylogenetic","true","experimental"
"","null","html-keyboard-response","182","211242","0.0-11.0-2.30","9YZchSawTb","5f91fe1f5ed1060f5afb58a7","6617fad957f7c6a12ea16e26","6622cfbf008714f5065deb7f","
    <div id=""grid-container"">
        <!-- Grid items will be dynamically added here -->
    </div>    ","null","","","","","","","","","","","",""
"","null","html-keyboard-response","183","211956","0.0-11.0-0.31","9YZchSawTb","5f91fe1f5ed1060f5afb58a7","6617fad957f7c6a12ea16e26","6622cfbf008714f5065deb7f","fixation cross","null","","","","","","","","","","","",""
"","801","html-keyboard-response","184","212757","0.0-11.0-1.31","9YZchSawTb","5f91fe1f5ed1060f5afb58a7","6617fad957f7c6a12ea16e26","6622cfbf008714f5065deb7f","image grid","q","","","","","Phylogenetic_Distractor_Threat_target","2500","ongrid","q","4","Phylogenetic","true","experimental"
"","null","html-keyboard-response","185","212918","0.0-11.0-2.31","9YZchSawTb","5f91fe1f5ed1060f5afb58a7","6617fad957f7c6a12ea16e26","6622cfbf008714f5065deb7f","
    <div id=""grid-container"">
        <!-- Grid items will be dynamically added here -->
    </div>    ","null","","","","","","","","","","","",""
"","null","html-keyboard-response","186","213636","0.0-11.0-0.32","9YZchSawTb","5f91fe1f5ed1060f5afb58a7","6617fad957f7c6a12ea16e26","6622cfbf008714f5065deb7f","fixation cross","null","","","","","","","","","","","",""
"","1114","html-keyboard-response","187","214751","0.0-11.0-1.32","9YZchSawTb","5f91fe1f5ed1060f5afb58a7","6617fad957f7c6a12ea16e26","6622cfbf008714f5065deb7f","image grid","p","","","","","Phylogenetic_Distractor_Nonthreat_target","2500","ongrid","p","6","Phylogenetic","true","experimental"
"","null","html-keyboard-response","188","214905","0.0-11.0-2.32","9YZchSawTb","5f91fe1f5ed1060f5afb58a7","6617fad957f7c6a12ea16e26","6622cfbf008714f5065deb7f","
    <div id=""grid-container"">
        <!-- Grid items will be dynamically added here -->
    </div>    ","null","","","","","","","","","","","",""
"","null","html-keyboard-response","189","215626","0.0-11.0-0.33","9YZchSawTb","5f91fe1f5ed1060f5afb58a7","6617fad957f7c6a12ea16e26","6622cfbf008714f5065deb7f","fixation cross","null","","","","","","","","","","","",""
"","1239","html-keyboard-response","190","216866","0.0-11.0-1.33","9YZchSawTb","5f91fe1f5ed1060f5afb58a7","6617fad957f7c6a12ea16e26","6622cfbf008714f5065deb7f","image grid","p","","","","","Phylogenetic_Distractor_Nonthreat_target","2500","ongrid","p","6","Phylogenetic","true","experimental"
"","null","html-keyboard-response","191","217022","0.0-11.0-2.33","9YZchSawTb","5f91fe1f5ed1060f5afb58a7","6617fad957f7c6a12ea16e26","6622cfbf008714f5065deb7f","
    <div id=""grid-container"">
        <!-- Grid items will be dynamically added here -->
    </div>    ","null","","","","","","","","","","","",""
"","null","html-keyboard-response","192","217737","0.0-11.0-0.34","9YZchSawTb","5f91fe1f5ed1060f5afb58a7","6617fad957f7c6a12ea16e26","6622cfbf008714f5065deb7f","fixation cross","null","","","","","","","","","","","",""
"","922","html-keyboard-response","193","218659","0.0-11.0-1.34","9YZchSawTb","5f91fe1f5ed1060f5afb58a7","6617fad957f7c6a12ea16e26","6622cfbf008714f5065deb7f","image grid","q","","","","","Phylogenetic_Distractor_Threat_target","2500","ongrid","q","7","Phylogenetic","true","experimental"
"","null","html-keyboard-response","194","218819","0.0-11.0-2.34","9YZchSawTb","5f91fe1f5ed1060f5afb58a7","6617fad957f7c6a12ea16e26","6622cfbf008714f5065deb7f","
    <div id=""grid-container"">
        <!-- Grid items will be dynamically added here -->
    </div>    ","null","","","","","","","","","","","",""
"","null","html-keyboard-response","195","219527","0.0-11.0-0.35","9YZchSawTb","5f91fe1f5ed1060f5afb58a7","6617fad957f7c6a12ea16e26","6622cfbf008714f5065deb7f","fixation cross","null","","","","","","","","","","","",""
"","1806","html-keyboard-response","196","221333","0.0-11.0-1.35","9YZchSawTb","5f91fe1f5ed1060f5afb58a7","6617fad957f7c6a12ea16e26","6622cfbf008714f5065deb7f","image grid","p","","","","","Phylogenetic_Distractor_Nonthreat_target","2500","ongrid","p","8","Phylogenetic","true","experimental"
"","null","html-keyboard-response","197","221485","0.0-11.0-2.35","9YZchSawTb","5f91fe1f5ed1060f5afb58a7","6617fad957f7c6a12ea16e26","6622cfbf008714f5065deb7f","
    <div id=""grid-container"">
        <!-- Grid items will be dynamically added here -->
    </div>    ","null","","","","","","","","","","","",""
"","null","html-keyboard-response","198","222200","0.0-11.0-0.36","9YZchSawTb","5f91fe1f5ed1060f5afb58a7","6617fad957f7c6a12ea16e26","6622cfbf008714f5065deb7f","fixation cross","null","","","","","","","","","","","",""
"","1034","html-keyboard-response","199","223234","0.0-11.0-1.36","9YZchSawTb","5f91fe1f5ed1060f5afb58a7","6617fad957f7c6a12ea16e26","6622cfbf008714f5065deb7f","image grid","q","","","","","Phylogenetic_Distractor_Threat_target","2500","ongrid","q","9","Phylogenetic","true","experimental"
"","null","html-keyboard-response","200","223396","0.0-11.0-2.36","9YZchSawTb","5f91fe1f5ed1060f5afb58a7","6617fad957f7c6a12ea16e26","6622cfbf008714f5065deb7f","
    <div id=""grid-container"">
        <!-- Grid items will be dynamically added here -->
    </div>    ","null","","","","","","","","","","","",""
"","null","html-keyboard-response","201","224105","0.0-11.0-0.37","9YZchSawTb","5f91fe1f5ed1060f5afb58a7","6617fad957f7c6a12ea16e26","6622cfbf008714f5065deb7f","fixation cross","null","","","","","","","","","","","",""
"","1349","html-keyboard-response","202","225455","0.0-11.0-1.37","9YZchSawTb","5f91fe1f5ed1060f5afb58a7","6617fad957f7c6a12ea16e26","6622cfbf008714f5065deb7f","image grid","p","","","","","Phylogenetic_Distractor_Nonthreat_target","2500","ongrid","p","1","Phylogenetic","true","experimental"
"","null","html-keyboard-response","203","225608","0.0-11.0-2.37","9YZchSawTb","5f91fe1f5ed1060f5afb58a7","6617fad957f7c6a12ea16e26","6622cfbf008714f5065deb7f","
    <div id=""grid-container"">
        <!-- Grid items will be dynamically added here -->
    </div>    ","null","","","","","","","","","","","",""
"","null","html-keyboard-response","204","226326","0.0-11.0-0.38","9YZchSawTb","5f91fe1f5ed1060f5afb58a7","6617fad957f7c6a12ea16e26","6622cfbf008714f5065deb7f","fixation cross","null","","","","","","","","","","","",""
"","973","html-keyboard-response","205","227300","0.0-11.0-1.38","9YZchSawTb","5f91fe1f5ed1060f5afb58a7","6617fad957f7c6a12ea16e26","6622cfbf008714f5065deb7f","image grid","p","","","","","Phylogenetic_Distractor_Nonthreat_target","2500","ongrid","p","5","Phylogenetic","true","experimental"
"","null","html-keyboard-response","206","227453","0.0-11.0-2.38","9YZchSawTb","5f91fe1f5ed1060f5afb58a7","6617fad957f7c6a12ea16e26","6622cfbf008714f5065deb7f","
    <div id=""grid-container"">
        <!-- Grid items will be dynamically added here -->
    </div>    ","null","","","","","","","","","","","",""
"","null","html-keyboard-response","207","228175","0.0-11.0-0.39","9YZchSawTb","5f91fe1f5ed1060f5afb58a7","6617fad957f7c6a12ea16e26","6622cfbf008714f5065deb7f","fixation cross","null","","","","","","","","","","","",""
"","1436","html-keyboard-response","208","229611","0.0-11.0-1.39","9YZchSawTb","5f91fe1f5ed1060f5afb58a7","6617fad957f7c6a12ea16e26","6622cfbf008714f5065deb7f","image grid","p","","","","","Phylogenetic_Distractor_Nonthreat_target","2500","ongrid","p","6","Phylogenetic","true","experimental"
"","null","html-keyboard-response","209","229768","0.0-11.0-2.39","9YZchSawTb","5f91fe1f5ed1060f5afb58a7","6617fad957f7c6a12ea16e26","6622cfbf008714f5065deb7f","
    <div id=""grid-container"">
        <!-- Grid items will be dynamically added here -->
    </div>    ","null","","","","","","","","","","","",""
"","35361","html-keyboard-response","210","265354","0.0-12.0","9YZchSawTb","5f91fe1f5ed1060f5afb58a7","6617fad957f7c6a12ea16e26","6622cfbf008714f5065deb7f","break screen"," ","","","","","","","","","","","",""
"","null","html-keyboard-response","211","267893","0.0-13.0-0.0","9YZchSawTb","5f91fe1f5ed1060f5afb58a7","6617fad957f7c6a12ea16e26","6622cfbf008714f5065deb7f","fixation cross","null","","","","","","","","","","","",""
"","659","html-keyboard-response","212","268552","0.0-13.0-1.0","9YZchSawTb","5f91fe1f5ed1060f5afb58a7","6617fad957f7c6a12ea16e26","6622cfbf008714f5065deb7f","image grid","q","","","","","Phylogenetic_Distractor_Threat_target","800","ongrid","q","5","Phylogenetic","true","experimental"
"","null","html-keyboard-response","213","268718","0.0-13.0-2.0","9YZchSawTb","5f91fe1f5ed1060f5afb58a7","6617fad957f7c6a12ea16e26","6622cfbf008714f5065deb7f","
    <div id=""grid-container"">
        <!-- Grid items will be dynamically added here -->
    </div>    ","null","","","","","","","","","","","",""
"","null","html-keyboard-response","214","269436","0.0-13.0-0.1","9YZchSawTb","5f91fe1f5ed1060f5afb58a7","6617fad957f7c6a12ea16e26","6622cfbf008714f5065deb7f","fixation cross","null","","","","","","","","","","","",""
"","null","html-keyboard-response","215","270246","0.0-13.0-1.1","9YZchSawTb","5f91fe1f5ed1060f5afb58a7","6617fad957f7c6a12ea16e26","6622cfbf008714f5065deb7f","
        <div id=""grid-container"">
        <!-- Grid items will be dynamically added here -->
    </div>    ","null","","","","","","","","","","","",""
"","901","html-keyboard-response","216","270347","0.0-13.0-2.1","9YZchSawTb","5f91fe1f5ed1060f5afb58a7","6617fad957f7c6a12ea16e26","6622cfbf008714f5065deb7f","mask grid","p","","","","","Phylogenetic_Distractor_Nonthreat_target","800","onmask","p","3","Phylogenetic","true","experimental"
"","null","html-keyboard-response","217","271070","0.0-13.0-0.2","9YZchSawTb","5f91fe1f5ed1060f5afb58a7","6617fad957f7c6a12ea16e26","6622cfbf008714f5065deb7f","fixation cross","null","","","","","","","","","","","",""
"","631","html-keyboard-response","218","271701","0.0-13.0-1.2","9YZchSawTb","5f91fe1f5ed1060f5afb58a7","6617fad957f7c6a12ea16e26","6622cfbf008714f5065deb7f","image grid","q","","","","","Phylogenetic_Distractor_Threat_target","800","ongrid","q","7","Phylogenetic","true","experimental"
"","null","html-keyboard-response","219","271867","0.0-13.0-2.2","9YZchSawTb","5f91fe1f5ed1060f5afb58a7","6617fad957f7c6a12ea16e26","6622cfbf008714f5065deb7f","
    <div id=""grid-container"">
        <!-- Grid items will be dynamically added here -->
    </div>    ","null","","","","","","","","","","","",""
"","null","html-keyboard-response","220","272582","0.0-13.0-0.3","9YZchSawTb","5f91fe1f5ed1060f5afb58a7","6617fad957f7c6a12ea16e26","6622cfbf008714f5065deb7f","fixation cross","null","","","","","","","","","","","",""
"","null","html-keyboard-response","221","273394","0.0-13.0-1.3","9YZchSawTb","5f91fe1f5ed1060f5afb58a7","6617fad957f7c6a12ea16e26","6622cfbf008714f5065deb7f","
        <div id=""grid-container"">
        <!-- Grid items will be dynamically added here -->
    </div>    ","null","","","","","","","","","","","",""
"","1141","html-keyboard-response","222","273735","0.0-13.0-2.3","9YZchSawTb","5f91fe1f5ed1060f5afb58a7","6617fad957f7c6a12ea16e26","6622cfbf008714f5065deb7f","mask grid","p","","","","","Phylogenetic_Distractor_Nonthreat_target","800","onmask","p","7","Phylogenetic","true","experimental"
"","null","html-keyboard-response","223","274454","0.0-13.0-0.4","9YZchSawTb","5f91fe1f5ed1060f5afb58a7","6617fad957f7c6a12ea16e26","6622cfbf008714f5065deb7f","fixation cross","null","","","","","","","","","","","",""
"","null","html-keyboard-response","224","275263","0.0-13.0-1.4","9YZchSawTb","5f91fe1f5ed1060f5afb58a7","6617fad957f7c6a12ea16e26","6622cfbf008714f5065deb7f","
        <div id=""grid-container"">
        <!-- Grid items will be dynamically added here -->
    </div>    ","null","","","","","","","","","","","",""
"","814","html-keyboard-response","225","275278","0.0-13.0-2.4","9YZchSawTb","5f91fe1f5ed1060f5afb58a7","6617fad957f7c6a12ea16e26","6622cfbf008714f5065deb7f","mask grid","p","","","","","Phylogenetic_Distractor_Nonthreat_target","800","onmask","p","3","Phylogenetic","true","experimental"
"","null","html-keyboard-response","226","275992","0.0-13.0-0.5","9YZchSawTb","5f91fe1f5ed1060f5afb58a7","6617fad957f7c6a12ea16e26","6622cfbf008714f5065deb7f","fixation cross","null","","","","","","","","","","","",""
"","699","html-keyboard-response","227","276691","0.0-13.0-1.5","9YZchSawTb","5f91fe1f5ed1060f5afb58a7","6617fad957f7c6a12ea16e26","6622cfbf008714f5065deb7f","image grid","p","","","","","Phylogenetic_Distractor_Nonthreat_target","800","ongrid","p","5","Phylogenetic","true","experimental"
"","null","html-keyboard-response","228","276846","0.0-13.0-2.5","9YZchSawTb","5f91fe1f5ed1060f5afb58a7","6617fad957f7c6a12ea16e26","6622cfbf008714f5065deb7f","
    <div id=""grid-container"">
        <!-- Grid items will be dynamically added here -->
    </div>    ","null","","","","","","","","","","","",""
"","null","html-keyboard-response","229","277558","0.0-13.0-0.6","9YZchSawTb","5f91fe1f5ed1060f5afb58a7","6617fad957f7c6a12ea16e26","6622cfbf008714f5065deb7f","fixation cross","null","","","","","","","","","","","",""
"","589","html-keyboard-response","230","278147","0.0-13.0-1.6","9YZchSawTb","5f91fe1f5ed1060f5afb58a7","6617fad957f7c6a12ea16e26","6622cfbf008714f5065deb7f","image grid","q","","","","","Phylogenetic_Distractor_Threat_target","800","ongrid","q","2","Phylogenetic","true","experimental"
"","null","html-keyboard-response","231","278305","0.0-13.0-2.6","9YZchSawTb","5f91fe1f5ed1060f5afb58a7","6617fad957f7c6a12ea16e26","6622cfbf008714f5065deb7f","
    <div id=""grid-container"">
        <!-- Grid items will be dynamically added here -->
    </div>    ","null","","","","","","","","","","","",""
"","null","html-keyboard-response","232","279019","0.0-13.0-0.7","9YZchSawTb","5f91fe1f5ed1060f5afb58a7","6617fad957f7c6a12ea16e26","6622cfbf008714f5065deb7f","fixation cross","null","","","","","","","","","","","",""
"","null","html-keyboard-response","233","279828","0.0-13.0-1.7","9YZchSawTb","5f91fe1f5ed1060f5afb58a7","6617fad957f7c6a12ea16e26","6622cfbf008714f5065deb7f","
        <div id=""grid-container"">
        <!-- Grid items will be dynamically added here -->
    </div>    ","null","","","","","","","","","","","",""
"","1759","html-keyboard-response","234","280787","0.0-13.0-2.7","9YZchSawTb","5f91fe1f5ed1060f5afb58a7","6617fad957f7c6a12ea16e26","6622cfbf008714f5065deb7f","mask grid","p","","","","","Phylogenetic_Distractor_notarget","800","onmask"," ","5","Phylogenetic","false","experimental"
"","null","html-keyboard-response","235","281511","0.0-13.0-0.8","9YZchSawTb","5f91fe1f5ed1060f5afb58a7","6617fad957f7c6a12ea16e26","6622cfbf008714f5065deb7f","fixation cross","null","","","","","","","","","","","",""
"","null","html-keyboard-response","236","282323","0.0-13.0-1.8","9YZchSawTb","5f91fe1f5ed1060f5afb58a7","6617fad957f7c6a12ea16e26","6622cfbf008714f5065deb7f","
        <div id=""grid-container"">
        <!-- Grid items will be dynamically added here -->
    </div>    ","null","","","","","","","","","","","",""
"","855","html-keyboard-response","237","282378","0.0-13.0-2.8","9YZchSawTb","5f91fe1f5ed1060f5afb58a7","6617fad957f7c6a12ea16e26","6622cfbf008714f5065deb7f","mask grid","q","","","","","Phylogenetic_Distractor_Threat_target","800","onmask","q","7","Phylogenetic","true","experimental"
"","null","html-keyboard-response","238","283098","0.0-13.0-0.9","9YZchSawTb","5f91fe1f5ed1060f5afb58a7","6617fad957f7c6a12ea16e26","6622cfbf008714f5065deb7f","fixation cross","null","","","","","","","","","","","",""
"","802","html-keyboard-response","239","283900","0.0-13.0-1.9","9YZchSawTb","5f91fe1f5ed1060f5afb58a7","6617fad957f7c6a12ea16e26","6622cfbf008714f5065deb7f","image grid"," ","","","","","Phylogenetic_Distractor_notarget","800","ongrid"," ","2","Phylogenetic","true","experimental"
"","null","html-keyboard-response","240","284062","0.0-13.0-2.9","9YZchSawTb","5f91fe1f5ed1060f5afb58a7","6617fad957f7c6a12ea16e26","6622cfbf008714f5065deb7f","
    <div id=""grid-container"">
        <!-- Grid items will be dynamically added here -->
    </div>    ","null","","","","","","","","","","","",""
"","null","html-keyboard-response","241","284779","0.0-13.0-0.10","9YZchSawTb","5f91fe1f5ed1060f5afb58a7","6617fad957f7c6a12ea16e26","6622cfbf008714f5065deb7f","fixation cross","null","","","","","","","","","","","",""
"","806","html-keyboard-response","242","285585","0.0-13.0-1.10","9YZchSawTb","5f91fe1f5ed1060f5afb58a7","6617fad957f7c6a12ea16e26","6622cfbf008714f5065deb7f","image grid"," ","","","","","Phylogenetic_Distractor_notarget","800","ongrid"," ","9","Phylogenetic","true","experimental"
"","null","html-keyboard-response","243","285742","0.0-13.0-2.10","9YZchSawTb","5f91fe1f5ed1060f5afb58a7","6617fad957f7c6a12ea16e26","6622cfbf008714f5065deb7f","
    <div id=""grid-container"">
        <!-- Grid items will be dynamically added here -->
    </div>    ","null","","","","","","","","","","","",""
"","null","html-keyboard-response","244","286446","0.0-13.0-0.11","9YZchSawTb","5f91fe1f5ed1060f5afb58a7","6617fad957f7c6a12ea16e26","6622cfbf008714f5065deb7f","fixation cross","null","","","","","","","","","","","",""
"","791","html-keyboard-response","245","287237","0.0-13.0-1.11","9YZchSawTb","5f91fe1f5ed1060f5afb58a7","6617fad957f7c6a12ea16e26","6622cfbf008714f5065deb7f","image grid","q","","","","","Phylogenetic_Distractor_Threat_target","800","ongrid","q","2","Phylogenetic","true","experimental"
"","null","html-keyboard-response","246","287393","0.0-13.0-2.11","9YZchSawTb","5f91fe1f5ed1060f5afb58a7","6617fad957f7c6a12ea16e26","6622cfbf008714f5065deb7f","
    <div id=""grid-container"">
        <!-- Grid items will be dynamically added here -->
    </div>    ","null","","","","","","","","","","","",""
"","null","html-keyboard-response","247","288119","0.0-13.0-0.12","9YZchSawTb","5f91fe1f5ed1060f5afb58a7","6617fad957f7c6a12ea16e26","6622cfbf008714f5065deb7f","fixation cross","null","","","","","","","","","","","",""
"","691","html-keyboard-response","248","288811","0.0-13.0-1.12","9YZchSawTb","5f91fe1f5ed1060f5afb58a7","6617fad957f7c6a12ea16e26","6622cfbf008714f5065deb7f","image grid","q","","","","","Phylogenetic_Distractor_Threat_target","800","ongrid","q","5","Phylogenetic","true","experimental"
"","null","html-keyboard-response","249","288971","0.0-13.0-2.12","9YZchSawTb","5f91fe1f5ed1060f5afb58a7","6617fad957f7c6a12ea16e26","6622cfbf008714f5065deb7f","
    <div id=""grid-container"">
        <!-- Grid items will be dynamically added here -->
    </div>    ","null","","","","","","","","","","","",""
"","null","html-keyboard-response","250","289686","0.0-13.0-0.13","9YZchSawTb","5f91fe1f5ed1060f5afb58a7","6617fad957f7c6a12ea16e26","6622cfbf008714f5065deb7f","fixation cross","null","","","","","","","","","","","",""
"","null","html-keyboard-response","251","290497","0.0-13.0-1.13","9YZchSawTb","5f91fe1f5ed1060f5afb58a7","6617fad957f7c6a12ea16e26","6622cfbf008714f5065deb7f","
        <div id=""grid-container"">
        <!-- Grid items will be dynamically added here -->
    </div>    ","null","","","","","","","","","","","",""
"","1104","html-keyboard-response","252","290802","0.0-13.0-2.13","9YZchSawTb","5f91fe1f5ed1060f5afb58a7","6617fad957f7c6a12ea16e26","6622cfbf008714f5065deb7f","mask grid"," ","","","","","Phylogenetic_Distractor_Threat_target","800","onmask","q","7","Phylogenetic","false","experimental"
"","null","html-keyboard-response","253","291525","0.0-13.0-0.14","9YZchSawTb","5f91fe1f5ed1060f5afb58a7","6617fad957f7c6a12ea16e26","6622cfbf008714f5065deb7f","fixation cross","null","","","","","","","","","","","",""
"","null","html-keyboard-response","254","292333","0.0-13.0-1.14","9YZchSawTb","5f91fe1f5ed1060f5afb58a7","6617fad957f7c6a12ea16e26","6622cfbf008714f5065deb7f","
        <div id=""grid-container"">
        <!-- Grid items will be dynamically added here -->
    </div>    ","null","","","","","","","","","","","",""
"","1586","html-keyboard-response","255","293119","0.0-13.0-2.14","9YZchSawTb","5f91fe1f5ed1060f5afb58a7","6617fad957f7c6a12ea16e26","6622cfbf008714f5065deb7f","mask grid","q","","","","","Phylogenetic_Distractor_notarget","800","onmask"," ","4","Phylogenetic","false","experimental"
"","null","html-keyboard-response","256","293839","0.0-13.0-0.15","9YZchSawTb","5f91fe1f5ed1060f5afb58a7","6617fad957f7c6a12ea16e26","6622cfbf008714f5065deb7f","fixation cross","null","","","","","","","","","","","",""
"","660","html-keyboard-response","257","294499","0.0-13.0-1.15","9YZchSawTb","5f91fe1f5ed1060f5afb58a7","6617fad957f7c6a12ea16e26","6622cfbf008714f5065deb7f","image grid","p","","","","","Phylogenetic_Distractor_Nonthreat_target","800","ongrid","p","5","Phylogenetic","true","experimental"
"","null","html-keyboard-response","258","294655","0.0-13.0-2.15","9YZchSawTb","5f91fe1f5ed1060f5afb58a7","6617fad957f7c6a12ea16e26","6622cfbf008714f5065deb7f","
    <div id=""grid-container"">
        <!-- Grid items will be dynamically added here -->
    </div>    ","null","","","","","","","","","","","",""
"","null","html-keyboard-response","259","295381","0.0-13.0-0.16","9YZchSawTb","5f91fe1f5ed1060f5afb58a7","6617fad957f7c6a12ea16e26","6622cfbf008714f5065deb7f","fixation cross","null","","","","","","","","","","","",""
"","null","html-keyboard-response","260","296183","0.0-13.0-1.16","9YZchSawTb","5f91fe1f5ed1060f5afb58a7","6617fad957f7c6a12ea16e26","6622cfbf008714f5065deb7f","
        <div id=""grid-container"">
        <!-- Grid items will be dynamically added here -->
    </div>    ","null","","","","","","","","","","","",""
"","895","html-keyboard-response","261","296277","0.0-13.0-2.16","9YZchSawTb","5f91fe1f5ed1060f5afb58a7","6617fad957f7c6a12ea16e26","6622cfbf008714f5065deb7f","mask grid"," ","","","","","Phylogenetic_Distractor_Threat_target","800","onmask","q","4","Phylogenetic","false","experimental"
"","null","html-keyboard-response","262","297007","0.0-13.0-0.17","9YZchSawTb","5f91fe1f5ed1060f5afb58a7","6617fad957f7c6a12ea16e26","6622cfbf008714f5065deb7f","fixation cross","null","","","","","","","","","","","",""
"","null","html-keyboard-response","263","297815","0.0-13.0-1.17","9YZchSawTb","5f91fe1f5ed1060f5afb58a7","6617fad957f7c6a12ea16e26","6622cfbf008714f5065deb7f","
        <div id=""grid-container"">
        <!-- Grid items will be dynamically added here -->
    </div>    ","null","","","","","","","","","","","",""
"","846","html-keyboard-response","264","297862","0.0-13.0-2.17","9YZchSawTb","5f91fe1f5ed1060f5afb58a7","6617fad957f7c6a12ea16e26","6622cfbf008714f5065deb7f","mask grid","p","","","","","Phylogenetic_Distractor_Nonthreat_target","800","onmask","p","4","Phylogenetic","true","experimental"
"","null","html-keyboard-response","265","298577","0.0-13.0-0.18","9YZchSawTb","5f91fe1f5ed1060f5afb58a7","6617fad957f7c6a12ea16e26","6622cfbf008714f5065deb7f","fixation cross","null","","","","","","","","","","","",""
"","519","html-keyboard-response","266","299096","0.0-13.0-1.18","9YZchSawTb","5f91fe1f5ed1060f5afb58a7","6617fad957f7c6a12ea16e26","6622cfbf008714f5065deb7f","image grid","q","","","","","Phylogenetic_Distractor_Threat_target","800","ongrid","q","5","Phylogenetic","true","experimental"
"","null","html-keyboard-response","267","299261","0.0-13.0-2.18","9YZchSawTb","5f91fe1f5ed1060f5afb58a7","6617fad957f7c6a12ea16e26","6622cfbf008714f5065deb7f","
    <div id=""grid-container"">
        <!-- Grid items will be dynamically added here -->
    </div>    ","null","","","","","","","","","","","",""
"","null","html-keyboard-response","268","299984","0.0-13.0-0.19","9YZchSawTb","5f91fe1f5ed1060f5afb58a7","6617fad957f7c6a12ea16e26","6622cfbf008714f5065deb7f","fixation cross","null","","","","","","","","","","","",""
"","null","html-keyboard-response","269","300796","0.0-13.0-1.19","9YZchSawTb","5f91fe1f5ed1060f5afb58a7","6617fad957f7c6a12ea16e26","6622cfbf008714f5065deb7f","
        <div id=""grid-container"">
        <!-- Grid items will be dynamically added here -->
    </div>    ","null","","","","","","","","","","","",""
"","823","html-keyboard-response","270","300819","0.0-13.0-2.19","9YZchSawTb","5f91fe1f5ed1060f5afb58a7","6617fad957f7c6a12ea16e26","6622cfbf008714f5065deb7f","mask grid","p","","","","","Phylogenetic_Distractor_Nonthreat_target","800","onmask","p","9","Phylogenetic","true","experimental"
"","null","html-keyboard-response","271","301541","0.0-13.0-0.20","9YZchSawTb","5f91fe1f5ed1060f5afb58a7","6617fad957f7c6a12ea16e26","6622cfbf008714f5065deb7f","fixation cross","null","","","","","","","","","","","",""
"","null","html-keyboard-response","272","302351","0.0-13.0-1.20","9YZchSawTb","5f91fe1f5ed1060f5afb58a7","6617fad957f7c6a12ea16e26","6622cfbf008714f5065deb7f","
        <div id=""grid-container"">
        <!-- Grid items will be dynamically added here -->
    </div>    ","null","","","","","","","","","","","",""
"","1513","html-keyboard-response","273","303064","0.0-13.0-2.20","9YZchSawTb","5f91fe1f5ed1060f5afb58a7","6617fad957f7c6a12ea16e26","6622cfbf008714f5065deb7f","mask grid","q","","","","","Phylogenetic_Distractor_Threat_target","800","onmask","q","6","Phylogenetic","true","experimental"
"","null","html-keyboard-response","274","303784","0.0-13.0-0.21","9YZchSawTb","5f91fe1f5ed1060f5afb58a7","6617fad957f7c6a12ea16e26","6622cfbf008714f5065deb7f","fixation cross","null","","","","","","","","","","","",""
"","695","html-keyboard-response","275","304480","0.0-13.0-1.21","9YZchSawTb","5f91fe1f5ed1060f5afb58a7","6617fad957f7c6a12ea16e26","6622cfbf008714f5065deb7f","image grid","q","","","","","Phylogenetic_Distractor_Threat_target","800","ongrid","q","6","Phylogenetic","true","experimental"
"","null","html-keyboard-response","276","304637","0.0-13.0-2.21","9YZchSawTb","5f91fe1f5ed1060f5afb58a7","6617fad957f7c6a12ea16e26","6622cfbf008714f5065deb7f","
    <div id=""grid-container"">
        <!-- Grid items will be dynamically added here -->
    </div>    ","null","","","","","","","","","","","",""
"","null","html-keyboard-response","277","305355","0.0-13.0-0.22","9YZchSawTb","5f91fe1f5ed1060f5afb58a7","6617fad957f7c6a12ea16e26","6622cfbf008714f5065deb7f","fixation cross","null","","","","","","","","","","","",""
"","624","html-keyboard-response","278","305979","0.0-13.0-1.22","9YZchSawTb","5f91fe1f5ed1060f5afb58a7","6617fad957f7c6a12ea16e26","6622cfbf008714f5065deb7f","image grid","q","","","","","Phylogenetic_Distractor_Threat_target","800","ongrid","q","8","Phylogenetic","true","experimental"
"","null","html-keyboard-response","279","306135","0.0-13.0-2.22","9YZchSawTb","5f91fe1f5ed1060f5afb58a7","6617fad957f7c6a12ea16e26","6622cfbf008714f5065deb7f","
    <div id=""grid-container"">
        <!-- Grid items will be dynamically added here -->
    </div>    ","null","","","","","","","","","","","",""
"","null","html-keyboard-response","280","306850","0.0-13.0-0.23","9YZchSawTb","5f91fe1f5ed1060f5afb58a7","6617fad957f7c6a12ea16e26","6622cfbf008714f5065deb7f","fixation cross","null","","","","","","","","","","","",""
"","713","html-keyboard-response","281","307563","0.0-13.0-1.23","9YZchSawTb","5f91fe1f5ed1060f5afb58a7","6617fad957f7c6a12ea16e26","6622cfbf008714f5065deb7f","image grid","p","","","","","Phylogenetic_Distractor_Nonthreat_target","800","ongrid","p","3","Phylogenetic","true","experimental"
"","null","html-keyboard-response","282","307720","0.0-13.0-2.23","9YZchSawTb","5f91fe1f5ed1060f5afb58a7","6617fad957f7c6a12ea16e26","6622cfbf008714f5065deb7f","
    <div id=""grid-container"">
        <!-- Grid items will be dynamically added here -->
    </div>    ","null","","","","","","","","","","","",""
"","null","html-keyboard-response","283","308434","0.0-13.0-0.24","9YZchSawTb","5f91fe1f5ed1060f5afb58a7","6617fad957f7c6a12ea16e26","6622cfbf008714f5065deb7f","fixation cross","null","","","","","","","","","","","",""
"","null","html-keyboard-response","284","309246","0.0-13.0-1.24","9YZchSawTb","5f91fe1f5ed1060f5afb58a7","6617fad957f7c6a12ea16e26","6622cfbf008714f5065deb7f","
        <div id=""grid-container"">
        <!-- Grid items will be dynamically added here -->
    </div>    ","null","","","","","","","","","","","",""
"","831","html-keyboard-response","285","309277","0.0-13.0-2.24","9YZchSawTb","5f91fe1f5ed1060f5afb58a7","6617fad957f7c6a12ea16e26","6622cfbf008714f5065deb7f","mask grid","p","","","","","Phylogenetic_Distractor_Nonthreat_target","800","onmask","p","2","Phylogenetic","true","experimental"
"","null","html-keyboard-response","286","309989","0.0-13.0-0.25","9YZchSawTb","5f91fe1f5ed1060f5afb58a7","6617fad957f7c6a12ea16e26","6622cfbf008714f5065deb7f","fixation cross","null","","","","","","","","","","","",""
"","null","html-keyboard-response","287","310795","0.0-13.0-1.25","9YZchSawTb","5f91fe1f5ed1060f5afb58a7","6617fad957f7c6a12ea16e26","6622cfbf008714f5065deb7f","
        <div id=""grid-container"">
        <!-- Grid items will be dynamically added here -->
    </div>    ","null","","","","","","","","","","","",""
"","896","html-keyboard-response","288","310891","0.0-13.0-2.25","9YZchSawTb","5f91fe1f5ed1060f5afb58a7","6617fad957f7c6a12ea16e26","6622cfbf008714f5065deb7f","mask grid","p","","","","","Phylogenetic_Distractor_Nonthreat_target","800","onmask","p","6","Phylogenetic","true","experimental"
"","null","html-keyboard-response","289","311618","0.0-13.0-0.26","9YZchSawTb","5f91fe1f5ed1060f5afb58a7","6617fad957f7c6a12ea16e26","6622cfbf008714f5065deb7f","fixation cross","null","","","","","","","","","","","",""
"","670","html-keyboard-response","290","312289","0.0-13.0-1.26","9YZchSawTb","5f91fe1f5ed1060f5afb58a7","6617fad957f7c6a12ea16e26","6622cfbf008714f5065deb7f","image grid","q","","","","","Phylogenetic_Distractor_Threat_target","800","ongrid","q","1","Phylogenetic","true","experimental"
"","null","html-keyboard-response","291","312441","0.0-13.0-2.26","9YZchSawTb","5f91fe1f5ed1060f5afb58a7","6617fad957f7c6a12ea16e26","6622cfbf008714f5065deb7f","
    <div id=""grid-container"">
        <!-- Grid items will be dynamically added here -->
    </div>    ","null","","","","","","","","","","","",""
"","null","html-keyboard-response","292","313155","0.0-13.0-0.27","9YZchSawTb","5f91fe1f5ed1060f5afb58a7","6617fad957f7c6a12ea16e26","6622cfbf008714f5065deb7f","fixation cross","null","","","","","","","","","","","",""
"","635","html-keyboard-response","293","313790","0.0-13.0-1.27","9YZchSawTb","5f91fe1f5ed1060f5afb58a7","6617fad957f7c6a12ea16e26","6622cfbf008714f5065deb7f","image grid","p","","","","","Phylogenetic_Distractor_Nonthreat_target","800","ongrid","p","5","Phylogenetic","true","experimental"
"","null","html-keyboard-response","294","313947","0.0-13.0-2.27","9YZchSawTb","5f91fe1f5ed1060f5afb58a7","6617fad957f7c6a12ea16e26","6622cfbf008714f5065deb7f","
    <div id=""grid-container"">
        <!-- Grid items will be dynamically added here -->
    </div>    ","null","","","","","","","","","","","",""
"","null","html-keyboard-response","295","314665","0.0-13.0-0.28","9YZchSawTb","5f91fe1f5ed1060f5afb58a7","6617fad957f7c6a12ea16e26","6622cfbf008714f5065deb7f","fixation cross","null","","","","","","","","","","","",""
"","590","html-keyboard-response","296","315255","0.0-13.0-1.28","9YZchSawTb","5f91fe1f5ed1060f5afb58a7","6617fad957f7c6a12ea16e26","6622cfbf008714f5065deb7f","image grid","q","","","","","Phylogenetic_Distractor_Threat_target","800","ongrid","q","4","Phylogenetic","true","experimental"
"","null","html-keyboard-response","297","315411","0.0-13.0-2.28","9YZchSawTb","5f91fe1f5ed1060f5afb58a7","6617fad957f7c6a12ea16e26","6622cfbf008714f5065deb7f","
    <div id=""grid-container"">
        <!-- Grid items will be dynamically added here -->
    </div>    ","null","","","","","","","","","","","",""
"","null","html-keyboard-response","298","316127","0.0-13.0-0.29","9YZchSawTb","5f91fe1f5ed1060f5afb58a7","6617fad957f7c6a12ea16e26","6622cfbf008714f5065deb7f","fixation cross","null","","","","","","","","","","","",""
"","605","html-keyboard-response","299","316732","0.0-13.0-1.29","9YZchSawTb","5f91fe1f5ed1060f5afb58a7","6617fad957f7c6a12ea16e26","6622cfbf008714f5065deb7f","image grid","p","","","","","Phylogenetic_Distractor_Nonthreat_target","800","ongrid","p","5","Phylogenetic","true","experimental"
"","null","html-keyboard-response","300","316890","0.0-13.0-2.29","9YZchSawTb","5f91fe1f5ed1060f5afb58a7","6617fad957f7c6a12ea16e26","6622cfbf008714f5065deb7f","
    <div id=""grid-container"">
        <!-- Grid items will be dynamically added here -->
    </div>    ","null","","","","","","","","","","","",""
"","null","html-keyboard-response","301","317605","0.0-13.0-0.30","9YZchSawTb","5f91fe1f5ed1060f5afb58a7","6617fad957f7c6a12ea16e26","6622cfbf008714f5065deb7f","fixation cross","null","","","","","","","","","","","",""
"","620","html-keyboard-response","302","318225","0.0-13.0-1.30","9YZchSawTb","5f91fe1f5ed1060f5afb58a7","6617fad957f7c6a12ea16e26","6622cfbf008714f5065deb7f","image grid","q","","","","","Phylogenetic_Distractor_Threat_target","800","ongrid","q","6","Phylogenetic","true","experimental"
"","null","html-keyboard-response","303","318382","0.0-13.0-2.30","9YZchSawTb","5f91fe1f5ed1060f5afb58a7","6617fad957f7c6a12ea16e26","6622cfbf008714f5065deb7f","
    <div id=""grid-container"">
        <!-- Grid items will be dynamically added here -->
    </div>    ","null","","","","","","","","","","","",""
"","null","html-keyboard-response","304","319096","0.0-13.0-0.31","9YZchSawTb","5f91fe1f5ed1060f5afb58a7","6617fad957f7c6a12ea16e26","6622cfbf008714f5065deb7f","fixation cross","null","","","","","","","","","","","",""
"","689","html-keyboard-response","305","319784","0.0-13.0-1.31","9YZchSawTb","5f91fe1f5ed1060f5afb58a7","6617fad957f7c6a12ea16e26","6622cfbf008714f5065deb7f","image grid","q","","","","","Phylogenetic_Distractor_Threat_target","800","ongrid","q","5","Phylogenetic","true","experimental"
"","null","html-keyboard-response","306","319950","0.0-13.0-2.31","9YZchSawTb","5f91fe1f5ed1060f5afb58a7","6617fad957f7c6a12ea16e26","6622cfbf008714f5065deb7f","
    <div id=""grid-container"">
        <!-- Grid items will be dynamically added here -->
    </div>    ","null","","","","","","","","","","","",""
"","null","html-keyboard-response","307","320661","0.0-13.0-0.32","9YZchSawTb","5f91fe1f5ed1060f5afb58a7","6617fad957f7c6a12ea16e26","6622cfbf008714f5065deb7f","fixation cross","null","","","","","","","","","","","",""
"","764","html-keyboard-response","308","321425","0.0-13.0-1.32","9YZchSawTb","5f91fe1f5ed1060f5afb58a7","6617fad957f7c6a12ea16e26","6622cfbf008714f5065deb7f","image grid","p","","","","","Phylogenetic_Distractor_Nonthreat_target","800","ongrid","p","7","Phylogenetic","true","experimental"
"","null","html-keyboard-response","309","321577","0.0-13.0-2.32","9YZchSawTb","5f91fe1f5ed1060f5afb58a7","6617fad957f7c6a12ea16e26","6622cfbf008714f5065deb7f","
    <div id=""grid-container"">
        <!-- Grid items will be dynamically added here -->
    </div>    ","null","","","","","","","","","","","",""
"","null","html-keyboard-response","310","322290","0.0-13.0-0.33","9YZchSawTb","5f91fe1f5ed1060f5afb58a7","6617fad957f7c6a12ea16e26","6622cfbf008714f5065deb7f","fixation cross","null","","","","","","","","","","","",""
"","738","html-keyboard-response","311","323029","0.0-13.0-1.33","9YZchSawTb","5f91fe1f5ed1060f5afb58a7","6617fad957f7c6a12ea16e26","6622cfbf008714f5065deb7f","image grid","q","","","","","Phylogenetic_Distractor_Threat_target","800","ongrid","q","5","Phylogenetic","true","experimental"
"","null","html-keyboard-response","312","323192","0.0-13.0-2.33","9YZchSawTb","5f91fe1f5ed1060f5afb58a7","6617fad957f7c6a12ea16e26","6622cfbf008714f5065deb7f","
    <div id=""grid-container"">
        <!-- Grid items will be dynamically added here -->
    </div>    ","null","","","","","","","","","","","",""
"","null","html-keyboard-response","313","323899","0.0-13.0-0.34","9YZchSawTb","5f91fe1f5ed1060f5afb58a7","6617fad957f7c6a12ea16e26","6622cfbf008714f5065deb7f","fixation cross","null","","","","","","","","","","","",""
"","null","html-keyboard-response","314","324709","0.0-13.0-1.34","9YZchSawTb","5f91fe1f5ed1060f5afb58a7","6617fad957f7c6a12ea16e26","6622cfbf008714f5065deb7f","
        <div id=""grid-container"">
        <!-- Grid items will be dynamically added here -->
    </div>    ","null","","","","","","","","","","","",""
"","981","html-keyboard-response","315","324890","0.0-13.0-2.34","9YZchSawTb","5f91fe1f5ed1060f5afb58a7","6617fad957f7c6a12ea16e26","6622cfbf008714f5065deb7f","mask grid","p","","","","","Phylogenetic_Distractor_Nonthreat_target","800","onmask","p","6","Phylogenetic","true","experimental"
"","null","html-keyboard-response","316","325610","0.0-13.0-0.35","9YZchSawTb","5f91fe1f5ed1060f5afb58a7","6617fad957f7c6a12ea16e26","6622cfbf008714f5065deb7f","fixation cross","null","","","","","","","","","","","",""
"","null","html-keyboard-response","317","326419","0.0-13.0-1.35","9YZchSawTb","5f91fe1f5ed1060f5afb58a7","6617fad957f7c6a12ea16e26","6622cfbf008714f5065deb7f","
        <div id=""grid-container"">
        <!-- Grid items will be dynamically added here -->
    </div>    ","null","","","","","","","","","","","",""
"","1126","html-keyboard-response","318","326746","0.0-13.0-2.35","9YZchSawTb","5f91fe1f5ed1060f5afb58a7","6617fad957f7c6a12ea16e26","6622cfbf008714f5065deb7f","mask grid","p","","","","","Phylogenetic_Distractor_Nonthreat_target","800","onmask","p","7","Phylogenetic","true","experimental"
"","null","html-keyboard-response","319","327473","0.0-13.0-0.36","9YZchSawTb","5f91fe1f5ed1060f5afb58a7","6617fad957f7c6a12ea16e26","6622cfbf008714f5065deb7f","fixation cross","null","","","","","","","","","","","",""
"","775","html-keyboard-response","320","328248","0.0-13.0-1.36","9YZchSawTb","5f91fe1f5ed1060f5afb58a7","6617fad957f7c6a12ea16e26","6622cfbf008714f5065deb7f","image grid","p","","","","","Phylogenetic_Distractor_Nonthreat_target","800","ongrid","p","2","Phylogenetic","true","experimental"
"","null","html-keyboard-response","321","328407","0.0-13.0-2.36","9YZchSawTb","5f91fe1f5ed1060f5afb58a7","6617fad957f7c6a12ea16e26","6622cfbf008714f5065deb7f","
    <div id=""grid-container"">
        <!-- Grid items will be dynamically added here -->
    </div>    ","null","","","","","","","","","","","",""
"","null","html-keyboard-response","322","329123","0.0-13.0-0.37","9YZchSawTb","5f91fe1f5ed1060f5afb58a7","6617fad957f7c6a12ea16e26","6622cfbf008714f5065deb7f","fixation cross","null","","","","","","","","","","","",""
"","653","html-keyboard-response","323","329776","0.0-13.0-1.37","9YZchSawTb","5f91fe1f5ed1060f5afb58a7","6617fad957f7c6a12ea16e26","6622cfbf008714f5065deb7f","image grid","p","","","","","Phylogenetic_Distractor_Nonthreat_target","800","ongrid","p","2","Phylogenetic","true","experimental"
"","null","html-keyboard-response","324","329934","0.0-13.0-2.37","9YZchSawTb","5f91fe1f5ed1060f5afb58a7","6617fad957f7c6a12ea16e26","6622cfbf008714f5065deb7f","
    <div id=""grid-container"">
        <!-- Grid items will be dynamically added here -->
    </div>    ","null","","","","","","","","","","","",""
"","null","html-keyboard-response","325","330652","0.0-13.0-0.38","9YZchSawTb","5f91fe1f5ed1060f5afb58a7","6617fad957f7c6a12ea16e26","6622cfbf008714f5065deb7f","fixation cross","null","","","","","","","","","","","",""
"","null","html-keyboard-response","326","331459","0.0-13.0-1.38","9YZchSawTb","5f91fe1f5ed1060f5afb58a7","6617fad957f7c6a12ea16e26","6622cfbf008714f5065deb7f","
        <div id=""grid-container"">
        <!-- Grid items will be dynamically added here -->
    </div>    ","null","","","","","","","","","","","",""
"","1033","html-keyboard-response","327","331693","0.0-13.0-2.38","9YZchSawTb","5f91fe1f5ed1060f5afb58a7","6617fad957f7c6a12ea16e26","6622cfbf008714f5065deb7f","mask grid","q","","","","","Phylogenetic_Distractor_Threat_target","800","onmask","q","3","Phylogenetic","true","experimental"
"","null","html-keyboard-response","328","332412","0.0-13.0-0.39","9YZchSawTb","5f91fe1f5ed1060f5afb58a7","6617fad957f7c6a12ea16e26","6622cfbf008714f5065deb7f","fixation cross","null","","","","","","","","","","","",""
"","null","html-keyboard-response","329","333219","0.0-13.0-1.39","9YZchSawTb","5f91fe1f5ed1060f5afb58a7","6617fad957f7c6a12ea16e26","6622cfbf008714f5065deb7f","
        <div id=""grid-container"">
        <!-- Grid items will be dynamically added here -->
    </div>    ","null","","","","","","","","","","","",""
"","819","html-keyboard-response","330","333238","0.0-13.0-2.39","9YZchSawTb","5f91fe1f5ed1060f5afb58a7","6617fad957f7c6a12ea16e26","6622cfbf008714f5065deb7f","mask grid","p","","","","","Phylogenetic_Distractor_Nonthreat_target","800","onmask","p","6","Phylogenetic","true","experimental"
"","39628","html-keyboard-response","331","373081","0.0-14.0","9YZchSawTb","5f91fe1f5ed1060f5afb58a7","6617fad957f7c6a12ea16e26","6622cfbf008714f5065deb7f","break screen"," ","","","","","","","","","","","",""
"","null","html-keyboard-response","332","375596","0.0-15.0-0.0","9YZchSawTb","5f91fe1f5ed1060f5afb58a7","6617fad957f7c6a12ea16e26","6622cfbf008714f5065deb7f","fixation cross","null","","","","","","","","","","","",""
"","1313","html-keyboard-response","333","376910","0.0-15.0-1.0","9YZchSawTb","5f91fe1f5ed1060f5afb58a7","6617fad957f7c6a12ea16e26","6622cfbf008714f5065deb7f","image grid","p","","","","","Ontogenetic_Distractor_Nonthreat_target","2500","ongrid","p","3","Ontogenetic","true","experimental"
"","null","html-keyboard-response","334","377062","0.0-15.0-2.0","9YZchSawTb","5f91fe1f5ed1060f5afb58a7","6617fad957f7c6a12ea16e26","6622cfbf008714f5065deb7f","
    <div id=""grid-container"">
        <!-- Grid items will be dynamically added here -->
    </div>    ","null","","","","","","","","","","","",""
"","null","html-keyboard-response","335","377776","0.0-15.0-0.1","9YZchSawTb","5f91fe1f5ed1060f5afb58a7","6617fad957f7c6a12ea16e26","6622cfbf008714f5065deb7f","fixation cross","null","","","","","","","","","","","",""
"","864","html-keyboard-response","336","378640","0.0-15.0-1.1","9YZchSawTb","5f91fe1f5ed1060f5afb58a7","6617fad957f7c6a12ea16e26","6622cfbf008714f5065deb7f","image grid","p","","","","","Ontogenetic_Distractor_Nonthreat_target","2500","ongrid","p","7","Ontogenetic","true","experimental"
"","null","html-keyboard-response","337","378806","0.0-15.0-2.1","9YZchSawTb","5f91fe1f5ed1060f5afb58a7","6617fad957f7c6a12ea16e26","6622cfbf008714f5065deb7f","
    <div id=""grid-container"">
        <!-- Grid items will be dynamically added here -->
    </div>    ","null","","","","","","","","","","","",""
"","null","html-keyboard-response","338","379521","0.0-15.0-0.2","9YZchSawTb","5f91fe1f5ed1060f5afb58a7","6617fad957f7c6a12ea16e26","6622cfbf008714f5065deb7f","fixation cross","null","","","","","","","","","","","",""
"","962","html-keyboard-response","339","380484","0.0-15.0-1.2","9YZchSawTb","5f91fe1f5ed1060f5afb58a7","6617fad957f7c6a12ea16e26","6622cfbf008714f5065deb7f","image grid"," ","","","","","Ontogenetic_Distractor_notarget","2500","ongrid"," ","1","Ontogenetic","true","experimental"
"","null","html-keyboard-response","340","380643","0.0-15.0-2.2","9YZchSawTb","5f91fe1f5ed1060f5afb58a7","6617fad957f7c6a12ea16e26","6622cfbf008714f5065deb7f","
    <div id=""grid-container"">
        <!-- Grid items will be dynamically added here -->
    </div>    ","null","","","","","","","","","","","",""
"","null","html-keyboard-response","341","381356","0.0-15.0-0.3","9YZchSawTb","5f91fe1f5ed1060f5afb58a7","6617fad957f7c6a12ea16e26","6622cfbf008714f5065deb7f","fixation cross","null","","","","","","","","","","","",""
"","1009","html-keyboard-response","342","382365","0.0-15.0-1.3","9YZchSawTb","5f91fe1f5ed1060f5afb58a7","6617fad957f7c6a12ea16e26","6622cfbf008714f5065deb7f","image grid"," ","","","","","Ontogenetic_Distractor_notarget","2500","ongrid"," ","3","Ontogenetic","true","experimental"
"","null","html-keyboard-response","343","382525","0.0-15.0-2.3","9YZchSawTb","5f91fe1f5ed1060f5afb58a7","6617fad957f7c6a12ea16e26","6622cfbf008714f5065deb7f","
    <div id=""grid-container"">
        <!-- Grid items will be dynamically added here -->
    </div>    ","null","","","","","","","","","","","",""
"","null","html-keyboard-response","344","383241","0.0-15.0-0.4","9YZchSawTb","5f91fe1f5ed1060f5afb58a7","6617fad957f7c6a12ea16e26","6622cfbf008714f5065deb7f","fixation cross","null","","","","","","","","","","","",""
"","1243","html-keyboard-response","345","384484","0.0-15.0-1.4","9YZchSawTb","5f91fe1f5ed1060f5afb58a7","6617fad957f7c6a12ea16e26","6622cfbf008714f5065deb7f","image grid"," ","","","","","Ontogenetic_Distractor_notarget","2500","ongrid"," ","3","Ontogenetic","true","experimental"
"","null","html-keyboard-response","346","384638","0.0-15.0-2.4","9YZchSawTb","5f91fe1f5ed1060f5afb58a7","6617fad957f7c6a12ea16e26","6622cfbf008714f5065deb7f","
    <div id=""grid-container"">
        <!-- Grid items will be dynamically added here -->
    </div>    ","null","","","","","","","","","","","",""
"","null","html-keyboard-response","347","385360","0.0-15.0-0.5","9YZchSawTb","5f91fe1f5ed1060f5afb58a7","6617fad957f7c6a12ea16e26","6622cfbf008714f5065deb7f","fixation cross","null","","","","","","","","","","","",""
"","749","html-keyboard-response","348","386110","0.0-15.0-1.5","9YZchSawTb","5f91fe1f5ed1060f5afb58a7","6617fad957f7c6a12ea16e26","6622cfbf008714f5065deb7f","image grid","p","","","","","Ontogenetic_Distractor_Nonthreat_target","2500","ongrid","p","4","Ontogenetic","true","experimental"
"","null","html-keyboard-response","349","386261","0.0-15.0-2.5","9YZchSawTb","5f91fe1f5ed1060f5afb58a7","6617fad957f7c6a12ea16e26","6622cfbf008714f5065deb7f","
    <div id=""grid-container"">
        <!-- Grid items will be dynamically added here -->
    </div>    ","null","","","","","","","","","","","",""
"","null","html-keyboard-response","350","386975","0.0-15.0-0.6","9YZchSawTb","5f91fe1f5ed1060f5afb58a7","6617fad957f7c6a12ea16e26","6622cfbf008714f5065deb7f","fixation cross","null","","","","","","","","","","","",""
"","822","html-keyboard-response","351","387797","0.0-15.0-1.6","9YZchSawTb","5f91fe1f5ed1060f5afb58a7","6617fad957f7c6a12ea16e26","6622cfbf008714f5065deb7f","image grid","p","","","","","Ontogenetic_Distractor_Nonthreat_target","2500","ongrid","p","9","Ontogenetic","true","experimental"
"","null","html-keyboard-response","352","387949","0.0-15.0-2.6","9YZchSawTb","5f91fe1f5ed1060f5afb58a7","6617fad957f7c6a12ea16e26","6622cfbf008714f5065deb7f","
    <div id=""grid-container"">
        <!-- Grid items will be dynamically added here -->
    </div>    ","null","","","","","","","","","","","",""
"","null","html-keyboard-response","353","388663","0.0-15.0-0.7","9YZchSawTb","5f91fe1f5ed1060f5afb58a7","6617fad957f7c6a12ea16e26","6622cfbf008714f5065deb7f","fixation cross","null","","","","","","","","","","","",""
"","761","html-keyboard-response","354","389424","0.0-15.0-1.7","9YZchSawTb","5f91fe1f5ed1060f5afb58a7","6617fad957f7c6a12ea16e26","6622cfbf008714f5065deb7f","image grid","p","","","","","Ontogenetic_Distractor_Nonthreat_target","2500","ongrid","p","6","Ontogenetic","true","experimental"
"","null","html-keyboard-response","355","389580","0.0-15.0-2.7","9YZchSawTb","5f91fe1f5ed1060f5afb58a7","6617fad957f7c6a12ea16e26","6622cfbf008714f5065deb7f","
    <div id=""grid-container"">
        <!-- Grid items will be dynamically added here -->
    </div>    ","null","","","","","","","","","","","",""
"","null","html-keyboard-response","356","390297","0.0-15.0-0.8","9YZchSawTb","5f91fe1f5ed1060f5afb58a7","6617fad957f7c6a12ea16e26","6622cfbf008714f5065deb7f","fixation cross","null","","","","","","","","","","","",""
"","782","html-keyboard-response","357","391080","0.0-15.0-1.8","9YZchSawTb","5f91fe1f5ed1060f5afb58a7","6617fad957f7c6a12ea16e26","6622cfbf008714f5065deb7f","image grid","q","","","","","Ontogenetic_Distractor_Threat_target","2500","ongrid","q","7","Ontogenetic","true","experimental"
"","null","html-keyboard-response","358","391242","0.0-15.0-2.8","9YZchSawTb","5f91fe1f5ed1060f5afb58a7","6617fad957f7c6a12ea16e26","6622cfbf008714f5065deb7f","
    <div id=""grid-container"">
        <!-- Grid items will be dynamically added here -->
    </div>    ","null","","","","","","","","","","","",""
"","null","html-keyboard-response","359","391955","0.0-15.0-0.9","9YZchSawTb","5f91fe1f5ed1060f5afb58a7","6617fad957f7c6a12ea16e26","6622cfbf008714f5065deb7f","fixation cross","null","","","","","","","","","","","",""
"","709","html-keyboard-response","360","392664","0.0-15.0-1.9","9YZchSawTb","5f91fe1f5ed1060f5afb58a7","6617fad957f7c6a12ea16e26","6622cfbf008714f5065deb7f","image grid","q","","","","","Ontogenetic_Distractor_Threat_target","2500","ongrid","q","7","Ontogenetic","true","experimental"
"","null","html-keyboard-response","361","392816","0.0-15.0-2.9","9YZchSawTb","5f91fe1f5ed1060f5afb58a7","6617fad957f7c6a12ea16e26","6622cfbf008714f5065deb7f","
    <div id=""grid-container"">
        <!-- Grid items will be dynamically added here -->
    </div>    ","null","","","","","","","","","","","",""
"","null","html-keyboard-response","362","393544","0.0-15.0-0.10","9YZchSawTb","5f91fe1f5ed1060f5afb58a7","6617fad957f7c6a12ea16e26","6622cfbf008714f5065deb7f","fixation cross","null","","","","","","","","","","","",""
"","622","html-keyboard-response","363","394166","0.0-15.0-1.10","9YZchSawTb","5f91fe1f5ed1060f5afb58a7","6617fad957f7c6a12ea16e26","6622cfbf008714f5065deb7f","image grid","p","","","","","Ontogenetic_Distractor_Nonthreat_target","2500","ongrid","p","2","Ontogenetic","true","experimental"
"","null","html-keyboard-response","364","394323","0.0-15.0-2.10","9YZchSawTb","5f91fe1f5ed1060f5afb58a7","6617fad957f7c6a12ea16e26","6622cfbf008714f5065deb7f","
    <div id=""grid-container"">
        <!-- Grid items will be dynamically added here -->
    </div>    ","null","","","","","","","","","","","",""
"","null","html-keyboard-response","365","395036","0.0-15.0-0.11","9YZchSawTb","5f91fe1f5ed1060f5afb58a7","6617fad957f7c6a12ea16e26","6622cfbf008714f5065deb7f","fixation cross","null","","","","","","","","","","","",""
"","681","html-keyboard-response","366","395717","0.0-15.0-1.11","9YZchSawTb","5f91fe1f5ed1060f5afb58a7","6617fad957f7c6a12ea16e26","6622cfbf008714f5065deb7f","image grid","q","","","","","Ontogenetic_Distractor_Threat_target","2500","ongrid","q","7","Ontogenetic","true","experimental"
"","null","html-keyboard-response","367","395875","0.0-15.0-2.11","9YZchSawTb","5f91fe1f5ed1060f5afb58a7","6617fad957f7c6a12ea16e26","6622cfbf008714f5065deb7f","
    <div id=""grid-container"">
        <!-- Grid items will be dynamically added here -->
    </div>    ","null","","","","","","","","","","","",""
"","null","html-keyboard-response","368","396593","0.0-15.0-0.12","9YZchSawTb","5f91fe1f5ed1060f5afb58a7","6617fad957f7c6a12ea16e26","6622cfbf008714f5065deb7f","fixation cross","null","","","","","","","","","","","",""
"","779","html-keyboard-response","369","397373","0.0-15.0-1.12","9YZchSawTb","5f91fe1f5ed1060f5afb58a7","6617fad957f7c6a12ea16e26","6622cfbf008714f5065deb7f","image grid","q","","","","","Ontogenetic_Distractor_Threat_target","2500","ongrid","q","7","Ontogenetic","true","experimental"
"","null","html-keyboard-response","370","397528","0.0-15.0-2.12","9YZchSawTb","5f91fe1f5ed1060f5afb58a7","6617fad957f7c6a12ea16e26","6622cfbf008714f5065deb7f","
    <div id=""grid-container"">
