"success","rt","trial_type","trial_index","time_elapsed","internal_node_id","unique_identifier","subject_id","study_id","session_id","stimulus","response","timeout","failed_images","failed_audio","failed_video","task","time_manipulation","respondedwhen","correctresponse","targetimagelocation","blocktype","correct","roundtype"
"true","3276","fullscreen","0","4279","0.0-0.0","Cf9bmm76sG","5fd5381b5807b616d910c586","6617fad957f7c6a12ea16e26","6622cd6cc8a4c02db902d0fe","","","","","","","","","","","","","",""
"","15431","html-keyboard-response","1","19713","0.0-1.0","Cf9bmm76sG","5fd5381b5807b616d910c586","6617fad957f7c6a12ea16e26","6622cd6cc8a4c02db902d0fe","instruction screen 0"," ","","","","","","","","","","","",""
"true","","preload","2","26403","0.0-2.0","Cf9bmm76sG","5fd5381b5807b616d910c586","6617fad957f7c6a12ea16e26","6622cd6cc8a4c02db902d0fe","","","false","[]","[]","[]","","","","","","","",""
"","17317","html-keyboard-response","3","43722","0.0-3.0","Cf9bmm76sG","5fd5381b5807b616d910c586","6617fad957f7c6a12ea16e26","6622cd6cc8a4c02db902d0fe","instruction screen 1"," ","","","","","","","","","","","",""
"","9550","html-keyboard-response","4","53277","0.0-4.0","Cf9bmm76sG","5fd5381b5807b616d910c586","6617fad957f7c6a12ea16e26","6622cd6cc8a4c02db902d0fe","instruction screen 2","q","","","","","","","","","","","",""
"","5418","html-keyboard-response","5","58699","0.0-5.0","Cf9bmm76sG","5fd5381b5807b616d910c586","6617fad957f7c6a12ea16e26","6622cd6cc8a4c02db902d0fe","instruction screen 3","p","","","","","","","","","","","",""
"","7790","html-keyboard-response","6","66492","0.0-6.0","Cf9bmm76sG","5fd5381b5807b616d910c586","6617fad957f7c6a12ea16e26","6622cd6cc8a4c02db902d0fe","instruction screen 4"," ","","","","","","","","","","","",""
"","12001","html-keyboard-response","7","78530","0.0-7.0","Cf9bmm76sG","5fd5381b5807b616d910c586","6617fad957f7c6a12ea16e26","6622cd6cc8a4c02db902d0fe","instruction screen 5"," ","","","","","","","","","","","",""
"","null","html-keyboard-response","8","79070","0.0-8.0","Cf9bmm76sG","5fd5381b5807b616d910c586","6617fad957f7c6a12ea16e26","6622cd6cc8a4c02db902d0fe","fixation cross","null","","","","","","","","","","","",""
"","null","html-keyboard-response","9","79571","0.0-9.0-0.0","Cf9bmm76sG","5fd5381b5807b616d910c586","6617fad957f7c6a12ea16e26","6622cd6cc8a4c02db902d0fe","fixation cross","null","","","","","","","","","","","",""
"","2350","html-keyboard-response","10","81922","0.0-9.0-1.0","Cf9bmm76sG","5fd5381b5807b616d910c586","6617fad957f7c6a12ea16e26","6622cd6cc8a4c02db902d0fe","image grid","q","","","","","Ontogenetic_Distractor_Threat_target","3000","ongrid","q","9","Phylogenetic","true","practice"
"","null","html-keyboard-response","11","82074","0.0-9.0-2.0","Cf9bmm76sG","5fd5381b5807b616d910c586","6617fad957f7c6a12ea16e26","6622cd6cc8a4c02db902d0fe","
    <div id=""grid-container"">
        <!-- Grid items will be dynamically added here -->
    </div>    ","null","","","","","","","","","","","",""
"","null","html-keyboard-response","12","83277","0.0-9.0-3.0","Cf9bmm76sG","5fd5381b5807b616d910c586","6617fad957f7c6a12ea16e26","6622cd6cc8a4c02db902d0fe","feedback screen","null","","","","","","","","","","","",""
"","null","html-keyboard-response","13","83781","0.0-9.0-0.1","Cf9bmm76sG","5fd5381b5807b616d910c586","6617fad957f7c6a12ea16e26","6622cd6cc8a4c02db902d0fe","fixation cross","null","","","","","","","","","","","",""
"","971","html-keyboard-response","14","84753","0.0-9.0-1.1","Cf9bmm76sG","5fd5381b5807b616d910c586","6617fad957f7c6a12ea16e26","6622cd6cc8a4c02db902d0fe","image grid","q","","","","","Ontogenetic_Distractor_Threat_target","2900","ongrid","q","8","Phylogenetic","true","practice"
"","null","html-keyboard-response","15","84905","0.0-9.0-2.1","Cf9bmm76sG","5fd5381b5807b616d910c586","6617fad957f7c6a12ea16e26","6622cd6cc8a4c02db902d0fe","
    <div id=""grid-container"">
        <!-- Grid items will be dynamically added here -->
    </div>    ","null","","","","","","","","","","","",""
"","null","html-keyboard-response","16","86110","0.0-9.0-3.1","Cf9bmm76sG","5fd5381b5807b616d910c586","6617fad957f7c6a12ea16e26","6622cd6cc8a4c02db902d0fe","feedback screen","null","","","","","","","","","","","",""
"","null","html-keyboard-response","17","86614","0.0-9.0-0.2","Cf9bmm76sG","5fd5381b5807b616d910c586","6617fad957f7c6a12ea16e26","6622cd6cc8a4c02db902d0fe","fixation cross","null","","","","","","","","","","","",""
"","1349","html-keyboard-response","18","87963","0.0-9.0-1.2","Cf9bmm76sG","5fd5381b5807b616d910c586","6617fad957f7c6a12ea16e26","6622cd6cc8a4c02db902d0fe","image grid"," ","","","","","Ontogenetic_Distractor_notarget","2800","ongrid"," ","1","Phylogenetic","true","practice"
"","null","html-keyboard-response","19","88115","0.0-9.0-2.2","Cf9bmm76sG","5fd5381b5807b616d910c586","6617fad957f7c6a12ea16e26","6622cd6cc8a4c02db902d0fe","
    <div id=""grid-container"">
        <!-- Grid items will be dynamically added here -->
    </div>    ","null","","","","","","","","","","","",""
"","null","html-keyboard-response","20","89320","0.0-9.0-3.2","Cf9bmm76sG","5fd5381b5807b616d910c586","6617fad957f7c6a12ea16e26","6622cd6cc8a4c02db902d0fe","feedback screen","null","","","","","","","","","","","",""
"","null","html-keyboard-response","21","89824","0.0-9.0-0.3","Cf9bmm76sG","5fd5381b5807b616d910c586","6617fad957f7c6a12ea16e26","6622cd6cc8a4c02db902d0fe","fixation cross","null","","","","","","","","","","","",""
"","1486","html-keyboard-response","22","91311","0.0-9.0-1.3","Cf9bmm76sG","5fd5381b5807b616d910c586","6617fad957f7c6a12ea16e26","6622cd6cc8a4c02db902d0fe","image grid","q","","","","","Phylogenetic_Distractor_Threat_target","2700","ongrid","q","6","Phylogenetic","true","practice"
"","null","html-keyboard-response","23","91463","0.0-9.0-2.3","Cf9bmm76sG","5fd5381b5807b616d910c586","6617fad957f7c6a12ea16e26","6622cd6cc8a4c02db902d0fe","
    <div id=""grid-container"">
        <!-- Grid items will be dynamically added here -->
    </div>    ","null","","","","","","","","","","","",""
"","645","html-keyboard-response","24","92311","0.0-9.0-3.3","Cf9bmm76sG","5fd5381b5807b616d910c586","6617fad957f7c6a12ea16e26","6622cd6cc8a4c02db902d0fe","feedback screen"," ","","","","","","","","","","","",""
"","null","html-keyboard-response","25","92814","0.0-9.0-0.4","Cf9bmm76sG","5fd5381b5807b616d910c586","6617fad957f7c6a12ea16e26","6622cd6cc8a4c02db902d0fe","fixation cross","null","","","","","","","","","","","",""
"","1236","html-keyboard-response","26","94050","0.0-9.0-1.4","Cf9bmm76sG","5fd5381b5807b616d910c586","6617fad957f7c6a12ea16e26","6622cd6cc8a4c02db902d0fe","image grid","q","","","","","Phylogenetic_Distractor_Threat_target","2600","ongrid","q","4","Phylogenetic","true","practice"
"","null","html-keyboard-response","27","94203","0.0-9.0-2.4","Cf9bmm76sG","5fd5381b5807b616d910c586","6617fad957f7c6a12ea16e26","6622cd6cc8a4c02db902d0fe","
    <div id=""grid-container"">
        <!-- Grid items will be dynamically added here -->
    </div>    ","null","","","","","","","","","","","",""
"","null","html-keyboard-response","28","95406","0.0-9.0-3.4","Cf9bmm76sG","5fd5381b5807b616d910c586","6617fad957f7c6a12ea16e26","6622cd6cc8a4c02db902d0fe","feedback screen","null","","","","","","","","","","","",""
"","null","html-keyboard-response","29","95910","0.0-9.0-0.5","Cf9bmm76sG","5fd5381b5807b616d910c586","6617fad957f7c6a12ea16e26","6622cd6cc8a4c02db902d0fe","fixation cross","null","","","","","","","","","","","",""
"","1367","html-keyboard-response","30","97277","0.0-9.0-1.5","Cf9bmm76sG","5fd5381b5807b616d910c586","6617fad957f7c6a12ea16e26","6622cd6cc8a4c02db902d0fe","image grid"," ","","","","","Phylogenetic_Distractor_Nonthreat_target","2500","ongrid","p","1","Phylogenetic","false","practice"
"","null","html-keyboard-response","31","97429","0.0-9.0-2.5","Cf9bmm76sG","5fd5381b5807b616d910c586","6617fad957f7c6a12ea16e26","6622cd6cc8a4c02db902d0fe","
    <div id=""grid-container"">
        <!-- Grid items will be dynamically added here -->
    </div>    ","null","","","","","","","","","","","",""
"","null","html-keyboard-response","32","98633","0.0-9.0-3.5","Cf9bmm76sG","5fd5381b5807b616d910c586","6617fad957f7c6a12ea16e26","6622cd6cc8a4c02db902d0fe","feedback screen","null","","","","","","","","","","","",""
"","null","html-keyboard-response","33","99136","0.0-9.0-0.6","Cf9bmm76sG","5fd5381b5807b616d910c586","6617fad957f7c6a12ea16e26","6622cd6cc8a4c02db902d0fe","fixation cross","null","","","","","","","","","","","",""
"","1837","html-keyboard-response","34","100973","0.0-9.0-1.6","Cf9bmm76sG","5fd5381b5807b616d910c586","6617fad957f7c6a12ea16e26","6622cd6cc8a4c02db902d0fe","image grid"," ","","","","","Phylogenetic_Distractor_notarget","2400","ongrid"," ","7","Phylogenetic","true","practice"
"","null","html-keyboard-response","35","101125","0.0-9.0-2.6","Cf9bmm76sG","5fd5381b5807b616d910c586","6617fad957f7c6a12ea16e26","6622cd6cc8a4c02db902d0fe","
    <div id=""grid-container"">
        <!-- Grid items will be dynamically added here -->
    </div>    ","null","","","","","","","","","","","",""
"","null","html-keyboard-response","36","102328","0.0-9.0-3.6","Cf9bmm76sG","5fd5381b5807b616d910c586","6617fad957f7c6a12ea16e26","6622cd6cc8a4c02db902d0fe","feedback screen","null","","","","","","","","","","","",""
"","null","html-keyboard-response","37","102832","0.0-9.0-0.7","Cf9bmm76sG","5fd5381b5807b616d910c586","6617fad957f7c6a12ea16e26","6622cd6cc8a4c02db902d0fe","fixation cross","null","","","","","","","","","","","",""
"","1640","html-keyboard-response","38","104473","0.0-9.0-1.7","Cf9bmm76sG","5fd5381b5807b616d910c586","6617fad957f7c6a12ea16e26","6622cd6cc8a4c02db902d0fe","image grid","p","","","","","Ontogenetic_Distractor_Nonthreat_target","2300","ongrid","p","1","Phylogenetic","true","practice"
"","null","html-keyboard-response","39","104625","0.0-9.0-2.7","Cf9bmm76sG","5fd5381b5807b616d910c586","6617fad957f7c6a12ea16e26","6622cd6cc8a4c02db902d0fe","
    <div id=""grid-container"">
        <!-- Grid items will be dynamically added here -->
    </div>    ","null","","","","","","","","","","","",""
"","null","html-keyboard-response","40","105829","0.0-9.0-3.7","Cf9bmm76sG","5fd5381b5807b616d910c586","6617fad957f7c6a12ea16e26","6622cd6cc8a4c02db902d0fe","feedback screen","null","","","","","","","","","","","",""
"","null","html-keyboard-response","41","106333","0.0-9.0-0.8","Cf9bmm76sG","5fd5381b5807b616d910c586","6617fad957f7c6a12ea16e26","6622cd6cc8a4c02db902d0fe","fixation cross","null","","","","","","","","","","","",""
"","1287","html-keyboard-response","42","107620","0.0-9.0-1.8","Cf9bmm76sG","5fd5381b5807b616d910c586","6617fad957f7c6a12ea16e26","6622cd6cc8a4c02db902d0fe","image grid"," ","","","","","Ontogenetic_Distractor_notarget","2200","ongrid"," ","9","Phylogenetic","true","practice"
"","null","html-keyboard-response","43","107772","0.0-9.0-2.8","Cf9bmm76sG","5fd5381b5807b616d910c586","6617fad957f7c6a12ea16e26","6622cd6cc8a4c02db902d0fe","
    <div id=""grid-container"">
        <!-- Grid items will be dynamically added here -->
    </div>    ","null","","","","","","","","","","","",""
"","null","html-keyboard-response","44","108975","0.0-9.0-3.8","Cf9bmm76sG","5fd5381b5807b616d910c586","6617fad957f7c6a12ea16e26","6622cd6cc8a4c02db902d0fe","feedback screen","null","","","","","","","","","","","",""
"","null","html-keyboard-response","45","109480","0.0-9.0-0.9","Cf9bmm76sG","5fd5381b5807b616d910c586","6617fad957f7c6a12ea16e26","6622cd6cc8a4c02db902d0fe","fixation cross","null","","","","","","","","","","","",""
"","895","html-keyboard-response","46","110375","0.0-9.0-1.9","Cf9bmm76sG","5fd5381b5807b616d910c586","6617fad957f7c6a12ea16e26","6622cd6cc8a4c02db902d0fe","image grid","p","","","","","Ontogenetic_Distractor_Nonthreat_target","2100","ongrid","p","9","Phylogenetic","true","practice"
"","null","html-keyboard-response","47","110527","0.0-9.0-2.9","Cf9bmm76sG","5fd5381b5807b616d910c586","6617fad957f7c6a12ea16e26","6622cd6cc8a4c02db902d0fe","
    <div id=""grid-container"">
        <!-- Grid items will be dynamically added here -->
    </div>    ","null","","","","","","","","","","","",""
"","null","html-keyboard-response","48","111730","0.0-9.0-3.9","Cf9bmm76sG","5fd5381b5807b616d910c586","6617fad957f7c6a12ea16e26","6622cd6cc8a4c02db902d0fe","feedback screen","null","","","","","","","","","","","",""
"","null","html-keyboard-response","49","112234","0.0-9.0-0.10","Cf9bmm76sG","5fd5381b5807b616d910c586","6617fad957f7c6a12ea16e26","6622cd6cc8a4c02db902d0fe","fixation cross","null","","","","","","","","","","","",""
"","1140","html-keyboard-response","50","113375","0.0-9.0-1.10","Cf9bmm76sG","5fd5381b5807b616d910c586","6617fad957f7c6a12ea16e26","6622cd6cc8a4c02db902d0fe","image grid","q","","","","","Phylogenetic_Distractor_Threat_target","2000","ongrid","q","9","Phylogenetic","true","practice"
"","null","html-keyboard-response","51","113526","0.0-9.0-2.10","Cf9bmm76sG","5fd5381b5807b616d910c586","6617fad957f7c6a12ea16e26","6622cd6cc8a4c02db902d0fe","
    <div id=""grid-container"">
        <!-- Grid items will be dynamically added here -->
    </div>    ","null","","","","","","","","","","","",""
"","null","html-keyboard-response","52","114728","0.0-9.0-3.10","Cf9bmm76sG","5fd5381b5807b616d910c586","6617fad957f7c6a12ea16e26","6622cd6cc8a4c02db902d0fe","feedback screen","null","","","","","","","","","","","",""
"","null","html-keyboard-response","53","115232","0.0-9.0-0.11","Cf9bmm76sG","5fd5381b5807b616d910c586","6617fad957f7c6a12ea16e26","6622cd6cc8a4c02db902d0fe","fixation cross","null","","","","","","","","","","","",""
"","710","html-keyboard-response","54","115943","0.0-9.0-1.11","Cf9bmm76sG","5fd5381b5807b616d910c586","6617fad957f7c6a12ea16e26","6622cd6cc8a4c02db902d0fe","image grid","p","","","","","Ontogenetic_Distractor_Nonthreat_target","1900","ongrid","p","8","Phylogenetic","true","practice"
"","null","html-keyboard-response","55","116095","0.0-9.0-2.11","Cf9bmm76sG","5fd5381b5807b616d910c586","6617fad957f7c6a12ea16e26","6622cd6cc8a4c02db902d0fe","
    <div id=""grid-container"">
        <!-- Grid items will be dynamically added here -->
    </div>    ","null","","","","","","","","","","","",""
"","null","html-keyboard-response","56","117298","0.0-9.0-3.11","Cf9bmm76sG","5fd5381b5807b616d910c586","6617fad957f7c6a12ea16e26","6622cd6cc8a4c02db902d0fe","feedback screen","null","","","","","","","","","","","",""
"","null","html-keyboard-response","57","117802","0.0-9.0-0.12","Cf9bmm76sG","5fd5381b5807b616d910c586","6617fad957f7c6a12ea16e26","6622cd6cc8a4c02db902d0fe","fixation cross","null","","","","","","","","","","","",""
"","1028","html-keyboard-response","58","118831","0.0-9.0-1.12","Cf9bmm76sG","5fd5381b5807b616d910c586","6617fad957f7c6a12ea16e26","6622cd6cc8a4c02db902d0fe","image grid"," ","","","","","Phylogenetic_Distractor_notarget","1800","ongrid"," ","2","Phylogenetic","true","practice"
"","null","html-keyboard-response","59","118982","0.0-9.0-2.12","Cf9bmm76sG","5fd5381b5807b616d910c586","6617fad957f7c6a12ea16e26","6622cd6cc8a4c02db902d0fe","
    <div id=""grid-container"">
        <!-- Grid items will be dynamically added here -->
    </div>    ","null","","","","","","","","","","","",""
"","null","html-keyboard-response","60","120187","0.0-9.0-3.12","Cf9bmm76sG","5fd5381b5807b616d910c586","6617fad957f7c6a12ea16e26","6622cd6cc8a4c02db902d0fe","feedback screen","null","","","","","","","","","","","",""
"","null","html-keyboard-response","61","120690","0.0-9.0-0.13","Cf9bmm76sG","5fd5381b5807b616d910c586","6617fad957f7c6a12ea16e26","6622cd6cc8a4c02db902d0fe","fixation cross","null","","","","","","","","","","","",""
"","731","html-keyboard-response","62","121422","0.0-9.0-1.13","Cf9bmm76sG","5fd5381b5807b616d910c586","6617fad957f7c6a12ea16e26","6622cd6cc8a4c02db902d0fe","image grid","q","","","","","Ontogenetic_Distractor_Threat_target","1700","ongrid","q","7","Phylogenetic","true","practice"
"","null","html-keyboard-response","63","121574","0.0-9.0-2.13","Cf9bmm76sG","5fd5381b5807b616d910c586","6617fad957f7c6a12ea16e26","6622cd6cc8a4c02db902d0fe","
    <div id=""grid-container"">
        <!-- Grid items will be dynamically added here -->
    </div>    ","null","","","","","","","","","","","",""
"","null","html-keyboard-response","64","122777","0.0-9.0-3.13","Cf9bmm76sG","5fd5381b5807b616d910c586","6617fad957f7c6a12ea16e26","6622cd6cc8a4c02db902d0fe","feedback screen","null","","","","","","","","","","","",""
"","null","html-keyboard-response","65","123280","0.0-9.0-0.14","Cf9bmm76sG","5fd5381b5807b616d910c586","6617fad957f7c6a12ea16e26","6622cd6cc8a4c02db902d0fe","fixation cross","null","","","","","","","","","","","",""
"","584","html-keyboard-response","66","123865","0.0-9.0-1.14","Cf9bmm76sG","5fd5381b5807b616d910c586","6617fad957f7c6a12ea16e26","6622cd6cc8a4c02db902d0fe","image grid","q","","","","","Ontogenetic_Distractor_Threat_target","1600","ongrid","q","5","Phylogenetic","true","practice"
"","null","html-keyboard-response","67","124017","0.0-9.0-2.14","Cf9bmm76sG","5fd5381b5807b616d910c586","6617fad957f7c6a12ea16e26","6622cd6cc8a4c02db902d0fe","
    <div id=""grid-container"">
        <!-- Grid items will be dynamically added here -->
    </div>    ","null","","","","","","","","","","","",""
"","null","html-keyboard-response","68","125220","0.0-9.0-3.14","Cf9bmm76sG","5fd5381b5807b616d910c586","6617fad957f7c6a12ea16e26","6622cd6cc8a4c02db902d0fe","feedback screen","null","","","","","","","","","","","",""
"","null","html-keyboard-response","69","125723","0.0-9.0-0.15","Cf9bmm76sG","5fd5381b5807b616d910c586","6617fad957f7c6a12ea16e26","6622cd6cc8a4c02db902d0fe","fixation cross","null","","","","","","","","","","","",""
"","null","html-keyboard-response","70","127225","0.0-9.0-1.15","Cf9bmm76sG","5fd5381b5807b616d910c586","6617fad957f7c6a12ea16e26","6622cd6cc8a4c02db902d0fe","
        <div id=""grid-container"">
        <!-- Grid items will be dynamically added here -->
    </div>    ","null","","","","","","","","","","","",""
"","1612","html-keyboard-response","71","127337","0.0-9.0-2.15","Cf9bmm76sG","5fd5381b5807b616d910c586","6617fad957f7c6a12ea16e26","6622cd6cc8a4c02db902d0fe","mask grid"," ","","","","","Phylogenetic_Distractor_Nonthreat_target","1500","onmask","p","2","Phylogenetic","false","practice"
"","null","html-keyboard-response","72","128541","0.0-9.0-3.15","Cf9bmm76sG","5fd5381b5807b616d910c586","6617fad957f7c6a12ea16e26","6622cd6cc8a4c02db902d0fe","feedback screen","null","","","","","","","","","","","",""
"","null","html-keyboard-response","73","129046","0.0-9.0-0.16","Cf9bmm76sG","5fd5381b5807b616d910c586","6617fad957f7c6a12ea16e26","6622cd6cc8a4c02db902d0fe","fixation cross","null","","","","","","","","","","","",""
"","null","html-keyboard-response","74","130447","0.0-9.0-1.16","Cf9bmm76sG","5fd5381b5807b616d910c586","6617fad957f7c6a12ea16e26","6622cd6cc8a4c02db902d0fe","
        <div id=""grid-container"">
        <!-- Grid items will be dynamically added here -->
    </div>    ","null","","","","","","","","","","","",""
"","3077","html-keyboard-response","75","132124","0.0-9.0-2.16","Cf9bmm76sG","5fd5381b5807b616d910c586","6617fad957f7c6a12ea16e26","6622cd6cc8a4c02db902d0fe","mask grid","q","","","","","Phylogenetic_Distractor_Nonthreat_target","1400","onmask","p","2","Phylogenetic","false","practice"
"","null","html-keyboard-response","76","133327","0.0-9.0-3.16","Cf9bmm76sG","5fd5381b5807b616d910c586","6617fad957f7c6a12ea16e26","6622cd6cc8a4c02db902d0fe","feedback screen","null","","","","","","","","","","","",""
"","null","html-keyboard-response","77","133830","0.0-9.0-0.17","Cf9bmm76sG","5fd5381b5807b616d910c586","6617fad957f7c6a12ea16e26","6622cd6cc8a4c02db902d0fe","fixation cross","null","","","","","","","","","","","",""
"","704","html-keyboard-response","78","134535","0.0-9.0-1.17","Cf9bmm76sG","5fd5381b5807b616d910c586","6617fad957f7c6a12ea16e26","6622cd6cc8a4c02db902d0fe","image grid","p","","","","","Ontogenetic_Distractor_Nonthreat_target","1300","ongrid","p","2","Phylogenetic","true","practice"
"","null","html-keyboard-response","79","134687","0.0-9.0-2.17","Cf9bmm76sG","5fd5381b5807b616d910c586","6617fad957f7c6a12ea16e26","6622cd6cc8a4c02db902d0fe","
    <div id=""grid-container"">
        <!-- Grid items will be dynamically added here -->
    </div>    ","null","","","","","","","","","","","",""
"","null","html-keyboard-response","80","135890","0.0-9.0-3.17","Cf9bmm76sG","5fd5381b5807b616d910c586","6617fad957f7c6a12ea16e26","6622cd6cc8a4c02db902d0fe","feedback screen","null","","","","","","","","","","","",""
"","null","html-keyboard-response","81","136395","0.0-9.0-0.18","Cf9bmm76sG","5fd5381b5807b616d910c586","6617fad957f7c6a12ea16e26","6622cd6cc8a4c02db902d0fe","fixation cross","null","","","","","","","","","","","",""
"","null","html-keyboard-response","82","137597","0.0-9.0-1.18","Cf9bmm76sG","5fd5381b5807b616d910c586","6617fad957f7c6a12ea16e26","6622cd6cc8a4c02db902d0fe","
        <div id=""grid-container"">
        <!-- Grid items will be dynamically added here -->
    </div>    ","null","","","","","","","","","","","",""
"","2000","html-keyboard-response","83","138398","0.0-9.0-2.18","Cf9bmm76sG","5fd5381b5807b616d910c586","6617fad957f7c6a12ea16e26","6622cd6cc8a4c02db902d0fe","mask grid","q","","","","","Phylogenetic_Distractor_Threat_target","1200","onmask","q","1","Phylogenetic","true","practice"
"","null","html-keyboard-response","84","139602","0.0-9.0-3.18","Cf9bmm76sG","5fd5381b5807b616d910c586","6617fad957f7c6a12ea16e26","6622cd6cc8a4c02db902d0fe","feedback screen","null","","","","","","","","","","","",""
"","null","html-keyboard-response","85","140106","0.0-9.0-0.19","Cf9bmm76sG","5fd5381b5807b616d910c586","6617fad957f7c6a12ea16e26","6622cd6cc8a4c02db902d0fe","fixation cross","null","","","","","","","","","","","",""
"","null","html-keyboard-response","86","141208","0.0-9.0-1.19","Cf9bmm76sG","5fd5381b5807b616d910c586","6617fad957f7c6a12ea16e26","6622cd6cc8a4c02db902d0fe","
        <div id=""grid-container"">
        <!-- Grid items will be dynamically added here -->
    </div>    ","null","","","","","","","","","","","",""
"","1508","html-keyboard-response","87","141617","0.0-9.0-2.19","Cf9bmm76sG","5fd5381b5807b616d910c586","6617fad957f7c6a12ea16e26","6622cd6cc8a4c02db902d0fe","mask grid"," ","","","","","Phylogenetic_Distractor_Nonthreat_target","1100","onmask","p","9","Phylogenetic","false","practice"
"","null","html-keyboard-response","88","142819","0.0-9.0-3.19","Cf9bmm76sG","5fd5381b5807b616d910c586","6617fad957f7c6a12ea16e26","6622cd6cc8a4c02db902d0fe","feedback screen","null","","","","","","","","","","","",""
"","10725","html-keyboard-response","89","153583","0.0-10.0","Cf9bmm76sG","5fd5381b5807b616d910c586","6617fad957f7c6a12ea16e26","6622cd6cc8a4c02db902d0fe","pre-experimental_briefing"," ","","","","","","","","","","","",""
"","null","html-keyboard-response","90","156121","0.0-11.0-0.0","Cf9bmm76sG","5fd5381b5807b616d910c586","6617fad957f7c6a12ea16e26","6622cd6cc8a4c02db902d0fe","fixation cross","null","","","","","","","","","","","",""
"","1786","html-keyboard-response","91","157908","0.0-11.0-1.0","Cf9bmm76sG","5fd5381b5807b616d910c586","6617fad957f7c6a12ea16e26","6622cd6cc8a4c02db902d0fe","image grid","q","","","","","Phylogenetic_Distractor_Nonthreat_target","2500","ongrid","p","7","Phylogenetic","false","experimental"
"","null","html-keyboard-response","92","158060","0.0-11.0-2.0","Cf9bmm76sG","5fd5381b5807b616d910c586","6617fad957f7c6a12ea16e26","6622cd6cc8a4c02db902d0fe","
    <div id=""grid-container"">
        <!-- Grid items will be dynamically added here -->
    </div>    ","null","","","","","","","","","","","",""
"","null","html-keyboard-response","93","158762","0.0-11.0-0.1","Cf9bmm76sG","5fd5381b5807b616d910c586","6617fad957f7c6a12ea16e26","6622cd6cc8a4c02db902d0fe","fixation cross","null","","","","","","","","","","","",""
"","null","html-keyboard-response","94","161264","0.0-11.0-1.1","Cf9bmm76sG","5fd5381b5807b616d910c586","6617fad957f7c6a12ea16e26","6622cd6cc8a4c02db902d0fe","
        <div id=""grid-container"">
        <!-- Grid items will be dynamically added here -->
    </div>    ","null","","","","","","","","","","","",""
"","2557","html-keyboard-response","95","161322","0.0-11.0-2.1","Cf9bmm76sG","5fd5381b5807b616d910c586","6617fad957f7c6a12ea16e26","6622cd6cc8a4c02db902d0fe","mask grid","q","","","","","Phylogenetic_Distractor_Threat_target","2500","onmask","q","1","Phylogenetic","true","experimental"
"","null","html-keyboard-response","96","162025","0.0-11.0-0.2","Cf9bmm76sG","5fd5381b5807b616d910c586","6617fad957f7c6a12ea16e26","6622cd6cc8a4c02db902d0fe","fixation cross","null","","","","","","","","","","","",""
"","1307","html-keyboard-response","97","163333","0.0-11.0-1.2","Cf9bmm76sG","5fd5381b5807b616d910c586","6617fad957f7c6a12ea16e26","6622cd6cc8a4c02db902d0fe","image grid","p","","","","","Phylogenetic_Distractor_Nonthreat_target","2500","ongrid","p","2","Phylogenetic","true","experimental"
"","null","html-keyboard-response","98","163485","0.0-11.0-2.2","Cf9bmm76sG","5fd5381b5807b616d910c586","6617fad957f7c6a12ea16e26","6622cd6cc8a4c02db902d0fe","
    <div id=""grid-container"">
        <!-- Grid items will be dynamically added here -->
    </div>    ","null","","","","","","","","","","","",""
"","null","html-keyboard-response","99","164189","0.0-11.0-0.3","Cf9bmm76sG","5fd5381b5807b616d910c586","6617fad957f7c6a12ea16e26","6622cd6cc8a4c02db902d0fe","fixation cross","null","","","","","","","","","","","",""
"","1033","html-keyboard-response","100","165222","0.0-11.0-1.3","Cf9bmm76sG","5fd5381b5807b616d910c586","6617fad957f7c6a12ea16e26","6622cd6cc8a4c02db902d0fe","image grid","q","","","","","Phylogenetic_Distractor_Threat_target","2500","ongrid","q","8","Phylogenetic","true","experimental"
"","null","html-keyboard-response","101","165373","0.0-11.0-2.3","Cf9bmm76sG","5fd5381b5807b616d910c586","6617fad957f7c6a12ea16e26","6622cd6cc8a4c02db902d0fe","
    <div id=""grid-container"">
        <!-- Grid items will be dynamically added here -->
    </div>    ","null","","","","","","","","","","","",""
"","null","html-keyboard-response","102","166077","0.0-11.0-0.4","Cf9bmm76sG","5fd5381b5807b616d910c586","6617fad957f7c6a12ea16e26","6622cd6cc8a4c02db902d0fe","fixation cross","null","","","","","","","","","","","",""
"","969","html-keyboard-response","103","167046","0.0-11.0-1.4","Cf9bmm76sG","5fd5381b5807b616d910c586","6617fad957f7c6a12ea16e26","6622cd6cc8a4c02db902d0fe","image grid","q","","","","","Phylogenetic_Distractor_Threat_target","2500","ongrid","q","2","Phylogenetic","true","experimental"
"","null","html-keyboard-response","104","167198","0.0-11.0-2.4","Cf9bmm76sG","5fd5381b5807b616d910c586","6617fad957f7c6a12ea16e26","6622cd6cc8a4c02db902d0fe","
    <div id=""grid-container"">
        <!-- Grid items will be dynamically added here -->
    </div>    ","null","","","","","","","","","","","",""
"","null","html-keyboard-response","105","167899","0.0-11.0-0.5","Cf9bmm76sG","5fd5381b5807b616d910c586","6617fad957f7c6a12ea16e26","6622cd6cc8a4c02db902d0fe","fixation cross","null","","","","","","","","","","","",""
"","845","html-keyboard-response","106","168744","0.0-11.0-1.5","Cf9bmm76sG","5fd5381b5807b616d910c586","6617fad957f7c6a12ea16e26","6622cd6cc8a4c02db902d0fe","image grid","q","","","","","Phylogenetic_Distractor_Threat_target","2500","ongrid","q","8","Phylogenetic","true","experimental"
"","null","html-keyboard-response","107","168895","0.0-11.0-2.5","Cf9bmm76sG","5fd5381b5807b616d910c586","6617fad957f7c6a12ea16e26","6622cd6cc8a4c02db902d0fe","
    <div id=""grid-container"">
        <!-- Grid items will be dynamically added here -->
    </div>    ","null","","","","","","","","","","","",""
"","null","html-keyboard-response","108","169599","0.0-11.0-0.6","Cf9bmm76sG","5fd5381b5807b616d910c586","6617fad957f7c6a12ea16e26","6622cd6cc8a4c02db902d0fe","fixation cross","null","","","","","","","","","","","",""
"","913","html-keyboard-response","109","170512","0.0-11.0-1.6","Cf9bmm76sG","5fd5381b5807b616d910c586","6617fad957f7c6a12ea16e26","6622cd6cc8a4c02db902d0fe","image grid","p","","","","","Phylogenetic_Distractor_Nonthreat_target","2500","ongrid","p","3","Phylogenetic","true","experimental"
"","null","html-keyboard-response","110","170664","0.0-11.0-2.6","Cf9bmm76sG","5fd5381b5807b616d910c586","6617fad957f7c6a12ea16e26","6622cd6cc8a4c02db902d0fe","
    <div id=""grid-container"">
        <!-- Grid items will be dynamically added here -->
    </div>    ","null","","","","","","","","","","","",""
"","null","html-keyboard-response","111","171367","0.0-11.0-0.7","Cf9bmm76sG","5fd5381b5807b616d910c586","6617fad957f7c6a12ea16e26","6622cd6cc8a4c02db902d0fe","fixation cross","null","","","","","","","","","","","",""
"","1060","html-keyboard-response","112","172428","0.0-11.0-1.7","Cf9bmm76sG","5fd5381b5807b616d910c586","6617fad957f7c6a12ea16e26","6622cd6cc8a4c02db902d0fe","image grid","p","","","","","Phylogenetic_Distractor_Nonthreat_target","2500","ongrid","p","8","Phylogenetic","true","experimental"
"","null","html-keyboard-response","113","172580","0.0-11.0-2.7","Cf9bmm76sG","5fd5381b5807b616d910c586","6617fad957f7c6a12ea16e26","6622cd6cc8a4c02db902d0fe","
    <div id=""grid-container"">
        <!-- Grid items will be dynamically added here -->
    </div>    ","null","","","","","","","","","","","",""
"","null","html-keyboard-response","114","173284","0.0-11.0-0.8","Cf9bmm76sG","5fd5381b5807b616d910c586","6617fad957f7c6a12ea16e26","6622cd6cc8a4c02db902d0fe","fixation cross","null","","","","","","","","","","","",""
"","1626","html-keyboard-response","115","174910","0.0-11.0-1.8","Cf9bmm76sG","5fd5381b5807b616d910c586","6617fad957f7c6a12ea16e26","6622cd6cc8a4c02db902d0fe","image grid","q","","","","","Phylogenetic_Distractor_Nonthreat_target","2500","ongrid","p","8","Phylogenetic","false","experimental"
"","null","html-keyboard-response","116","175061","0.0-11.0-2.8","Cf9bmm76sG","5fd5381b5807b616d910c586","6617fad957f7c6a12ea16e26","6622cd6cc8a4c02db902d0fe","
    <div id=""grid-container"">
        <!-- Grid items will be dynamically added here -->
    </div>    ","null","","","","","","","","","","","",""
"","null","html-keyboard-response","117","175764","0.0-11.0-0.9","Cf9bmm76sG","5fd5381b5807b616d910c586","6617fad957f7c6a12ea16e26","6622cd6cc8a4c02db902d0fe","fixation cross","null","","","","","","","","","","","",""
"","1620","html-keyboard-response","118","177385","0.0-11.0-1.9","Cf9bmm76sG","5fd5381b5807b616d910c586","6617fad957f7c6a12ea16e26","6622cd6cc8a4c02db902d0fe","image grid"," ","","","","","Phylogenetic_Distractor_notarget","2500","ongrid"," ","8","Phylogenetic","true","experimental"
"","null","html-keyboard-response","119","177536","0.0-11.0-2.9","Cf9bmm76sG","5fd5381b5807b616d910c586","6617fad957f7c6a12ea16e26","6622cd6cc8a4c02db902d0fe","
    <div id=""grid-container"">
        <!-- Grid items will be dynamically added here -->
    </div>    ","null","","","","","","","","","","","",""
"","null","html-keyboard-response","120","178238","0.0-11.0-0.10","Cf9bmm76sG","5fd5381b5807b616d910c586","6617fad957f7c6a12ea16e26","6622cd6cc8a4c02db902d0fe","fixation cross","null","","","","","","","","","","","",""
"","1558","html-keyboard-response","121","179796","0.0-11.0-1.10","Cf9bmm76sG","5fd5381b5807b616d910c586","6617fad957f7c6a12ea16e26","6622cd6cc8a4c02db902d0fe","image grid","p","","","","","Phylogenetic_Distractor_Nonthreat_target","2500","ongrid","p","5","Phylogenetic","true","experimental"
"","null","html-keyboard-response","122","179948","0.0-11.0-2.10","Cf9bmm76sG","5fd5381b5807b616d910c586","6617fad957f7c6a12ea16e26","6622cd6cc8a4c02db902d0fe","
    <div id=""grid-container"">
        <!-- Grid items will be dynamically added here -->
    </div>    ","null","","","","","","","","","","","",""
"","null","html-keyboard-response","123","180652","0.0-11.0-0.11","Cf9bmm76sG","5fd5381b5807b616d910c586","6617fad957f7c6a12ea16e26","6622cd6cc8a4c02db902d0fe","fixation cross","null","","","","","","","","","","","",""
"","1505","html-keyboard-response","124","182157","0.0-11.0-1.11","Cf9bmm76sG","5fd5381b5807b616d910c586","6617fad957f7c6a12ea16e26","6622cd6cc8a4c02db902d0fe","image grid","p","","","","","Phylogenetic_Distractor_Nonthreat_target","2500","ongrid","p","3","Phylogenetic","true","experimental"
"","null","html-keyboard-response","125","182309","0.0-11.0-2.11","Cf9bmm76sG","5fd5381b5807b616d910c586","6617fad957f7c6a12ea16e26","6622cd6cc8a4c02db902d0fe","
    <div id=""grid-container"">
        <!-- Grid items will be dynamically added here -->
    </div>    ","null","","","","","","","","","","","",""
"","null","html-keyboard-response","126","183011","0.0-11.0-0.12","Cf9bmm76sG","5fd5381b5807b616d910c586","6617fad957f7c6a12ea16e26","6622cd6cc8a4c02db902d0fe","fixation cross","null","","","","","","","","","","","",""
"","875","html-keyboard-response","127","183886","0.0-11.0-1.12","Cf9bmm76sG","5fd5381b5807b616d910c586","6617fad957f7c6a12ea16e26","6622cd6cc8a4c02db902d0fe","image grid","q","","","","","Phylogenetic_Distractor_Threat_target","2500","ongrid","q","2","Phylogenetic","true","experimental"
"","null","html-keyboard-response","128","184038","0.0-11.0-2.12","Cf9bmm76sG","5fd5381b5807b616d910c586","6617fad957f7c6a12ea16e26","6622cd6cc8a4c02db902d0fe","
    <div id=""grid-container"">
        <!-- Grid items will be dynamically added here -->
    </div>    ","null","","","","","","","","","","","",""
"","null","html-keyboard-response","129","184741","0.0-11.0-0.13","Cf9bmm76sG","5fd5381b5807b616d910c586","6617fad957f7c6a12ea16e26","6622cd6cc8a4c02db902d0fe","fixation cross","null","","","","","","","","","","","",""
"","1163","html-keyboard-response","130","185904","0.0-11.0-1.13","Cf9bmm76sG","5fd5381b5807b616d910c586","6617fad957f7c6a12ea16e26","6622cd6cc8a4c02db902d0fe","image grid","p","","","","","Phylogenetic_Distractor_Nonthreat_target","2500","ongrid","p","2","Phylogenetic","true","experimental"
"","null","html-keyboard-response","131","186056","0.0-11.0-2.13","Cf9bmm76sG","5fd5381b5807b616d910c586","6617fad957f7c6a12ea16e26","6622cd6cc8a4c02db902d0fe","
    <div id=""grid-container"">
        <!-- Grid items will be dynamically added here -->
    </div>    ","null","","","","","","","","","","","",""
"","null","html-keyboard-response","132","186758","0.0-11.0-0.14","Cf9bmm76sG","5fd5381b5807b616d910c586","6617fad957f7c6a12ea16e26","6622cd6cc8a4c02db902d0fe","fixation cross","null","","","","","","","","","","","",""
"","862","html-keyboard-response","133","187621","0.0-11.0-1.14","Cf9bmm76sG","5fd5381b5807b616d910c586","6617fad957f7c6a12ea16e26","6622cd6cc8a4c02db902d0fe","image grid","p","","","","","Phylogenetic_Distractor_Nonthreat_target","2500","ongrid","p","2","Phylogenetic","true","experimental"
"","null","html-keyboard-response","134","187772","0.0-11.0-2.14","Cf9bmm76sG","5fd5381b5807b616d910c586","6617fad957f7c6a12ea16e26","6622cd6cc8a4c02db902d0fe","
    <div id=""grid-container"">
        <!-- Grid items will be dynamically added here -->
    </div>    ","null","","","","","","","","","","","",""
"","null","html-keyboard-response","135","188474","0.0-11.0-0.15","Cf9bmm76sG","5fd5381b5807b616d910c586","6617fad957f7c6a12ea16e26","6622cd6cc8a4c02db902d0fe","fixation cross","null","","","","","","","","","","","",""
"","1057","html-keyboard-response","136","189531","0.0-11.0-1.15","Cf9bmm76sG","5fd5381b5807b616d910c586","6617fad957f7c6a12ea16e26","6622cd6cc8a4c02db902d0fe","image grid","q","","","","","Phylogenetic_Distractor_Nonthreat_target","2500","ongrid","p","4","Phylogenetic","false","experimental"
"","null","html-keyboard-response","137","189684","0.0-11.0-2.15","Cf9bmm76sG","5fd5381b5807b616d910c586","6617fad957f7c6a12ea16e26","6622cd6cc8a4c02db902d0fe","
    <div id=""grid-container"">
        <!-- Grid items will be dynamically added here -->
    </div>    ","null","","","","","","","","","","","",""
"","null","html-keyboard-response","138","190385","0.0-11.0-0.16","Cf9bmm76sG","5fd5381b5807b616d910c586","6617fad957f7c6a12ea16e26","6622cd6cc8a4c02db902d0fe","fixation cross","null","","","","","","","","","","","",""
"","910","html-keyboard-response","139","191295","0.0-11.0-1.16","Cf9bmm76sG","5fd5381b5807b616d910c586","6617fad957f7c6a12ea16e26","6622cd6cc8a4c02db902d0fe","image grid","q","","","","","Phylogenetic_Distractor_Threat_target","2500","ongrid","q","3","Phylogenetic","true","experimental"
"","null","html-keyboard-response","140","191447","0.0-11.0-2.16","Cf9bmm76sG","5fd5381b5807b616d910c586","6617fad957f7c6a12ea16e26","6622cd6cc8a4c02db902d0fe","
    <div id=""grid-container"">
        <!-- Grid items will be dynamically added here -->
    </div>    ","null","","","","","","","","","","","",""
"","null","html-keyboard-response","141","192150","0.0-11.0-0.17","Cf9bmm76sG","5fd5381b5807b616d910c586","6617fad957f7c6a12ea16e26","6622cd6cc8a4c02db902d0fe","fixation cross","null","","","","","","","","","","","",""
"","783","html-keyboard-response","142","192934","0.0-11.0-1.17","Cf9bmm76sG","5fd5381b5807b616d910c586","6617fad957f7c6a12ea16e26","6622cd6cc8a4c02db902d0fe","image grid","q","","","","","Phylogenetic_Distractor_Threat_target","2500","ongrid","q","6","Phylogenetic","true","experimental"
"","null","html-keyboard-response","143","193085","0.0-11.0-2.17","Cf9bmm76sG","5fd5381b5807b616d910c586","6617fad957f7c6a12ea16e26","6622cd6cc8a4c02db902d0fe","
    <div id=""grid-container"">
        <!-- Grid items will be dynamically added here -->
    </div>    ","null","","","","","","","","","","","",""
"","null","html-keyboard-response","144","193788","0.0-11.0-0.18","Cf9bmm76sG","5fd5381b5807b616d910c586","6617fad957f7c6a12ea16e26","6622cd6cc8a4c02db902d0fe","fixation cross","null","","","","","","","","","","","",""
"","1524","html-keyboard-response","145","195313","0.0-11.0-1.18","Cf9bmm76sG","5fd5381b5807b616d910c586","6617fad957f7c6a12ea16e26","6622cd6cc8a4c02db902d0fe","image grid"," ","","","","","Phylogenetic_Distractor_notarget","2500","ongrid"," ","4","Phylogenetic","true","experimental"
"","null","html-keyboard-response","146","195465","0.0-11.0-2.18","Cf9bmm76sG","5fd5381b5807b616d910c586","6617fad957f7c6a12ea16e26","6622cd6cc8a4c02db902d0fe","
    <div id=""grid-container"">
        <!-- Grid items will be dynamically added here -->
    </div>    ","null","","","","","","","","","","","",""
"","null","html-keyboard-response","147","196168","0.0-11.0-0.19","Cf9bmm76sG","5fd5381b5807b616d910c586","6617fad957f7c6a12ea16e26","6622cd6cc8a4c02db902d0fe","fixation cross","null","","","","","","","","","","","",""
"","1117","html-keyboard-response","148","197285","0.0-11.0-1.19","Cf9bmm76sG","5fd5381b5807b616d910c586","6617fad957f7c6a12ea16e26","6622cd6cc8a4c02db902d0fe","image grid","q","","","","","Phylogenetic_Distractor_Threat_target","2500","ongrid","q","7","Phylogenetic","true","experimental"
"","null","html-keyboard-response","149","197438","0.0-11.0-2.19","Cf9bmm76sG","5fd5381b5807b616d910c586","6617fad957f7c6a12ea16e26","6622cd6cc8a4c02db902d0fe","
    <div id=""grid-container"">
        <!-- Grid items will be dynamically added here -->
    </div>    ","null","","","","","","","","","","","",""
"","null","html-keyboard-response","150","198140","0.0-11.0-0.20","Cf9bmm76sG","5fd5381b5807b616d910c586","6617fad957f7c6a12ea16e26","6622cd6cc8a4c02db902d0fe","fixation cross","null","","","","","","","","","","","",""
"","649","html-keyboard-response","151","198789","0.0-11.0-1.20","Cf9bmm76sG","5fd5381b5807b616d910c586","6617fad957f7c6a12ea16e26","6622cd6cc8a4c02db902d0fe","image grid","q","","","","","Phylogenetic_Distractor_Threat_target","2500","ongrid","q","6","Phylogenetic","true","experimental"
"","null","html-keyboard-response","152","198941","0.0-11.0-2.20","Cf9bmm76sG","5fd5381b5807b616d910c586","6617fad957f7c6a12ea16e26","6622cd6cc8a4c02db902d0fe","
    <div id=""grid-container"">
        <!-- Grid items will be dynamically added here -->
    </div>    ","null","","","","","","","","","","","",""
"","null","html-keyboard-response","153","199644","0.0-11.0-0.21","Cf9bmm76sG","5fd5381b5807b616d910c586","6617fad957f7c6a12ea16e26","6622cd6cc8a4c02db902d0fe","fixation cross","null","","","","","","","","","","","",""
"","596","html-keyboard-response","154","200241","0.0-11.0-1.21","Cf9bmm76sG","5fd5381b5807b616d910c586","6617fad957f7c6a12ea16e26","6622cd6cc8a4c02db902d0fe","image grid","q","","","","","Phylogenetic_Distractor_Threat_target","2500","ongrid","q","9","Phylogenetic","true","experimental"
"","null","html-keyboard-response","155","200393","0.0-11.0-2.21","Cf9bmm76sG","5fd5381b5807b616d910c586","6617fad957f7c6a12ea16e26","6622cd6cc8a4c02db902d0fe","
    <div id=""grid-container"">
        <!-- Grid items will be dynamically added here -->
    </div>    ","null","","","","","","","","","","","",""
"","null","html-keyboard-response","156","201096","0.0-11.0-0.22","Cf9bmm76sG","5fd5381b5807b616d910c586","6617fad957f7c6a12ea16e26","6622cd6cc8a4c02db902d0fe","fixation cross","null","","","","","","","","","","","",""
"","1648","html-keyboard-response","157","202744","0.0-11.0-1.22","Cf9bmm76sG","5fd5381b5807b616d910c586","6617fad957f7c6a12ea16e26","6622cd6cc8a4c02db902d0fe","image grid","q","","","","","Phylogenetic_Distractor_Nonthreat_target","2500","ongrid","p","9","Phylogenetic","false","experimental"
"","null","html-keyboard-response","158","202896","0.0-11.0-2.22","Cf9bmm76sG","5fd5381b5807b616d910c586","6617fad957f7c6a12ea16e26","6622cd6cc8a4c02db902d0fe","
    <div id=""grid-container"">
        <!-- Grid items will be dynamically added here -->
    </div>    ","null","","","","","","","","","","","",""
"","null","html-keyboard-response","159","203599","0.0-11.0-0.23","Cf9bmm76sG","5fd5381b5807b616d910c586","6617fad957f7c6a12ea16e26","6622cd6cc8a4c02db902d0fe","fixation cross","null","","","","","","","","","","","",""
"","738","html-keyboard-response","160","204337","0.0-11.0-1.23","Cf9bmm76sG","5fd5381b5807b616d910c586","6617fad957f7c6a12ea16e26","6622cd6cc8a4c02db902d0fe","image grid","q","","","","","Phylogenetic_Distractor_Threat_target","2500","ongrid","q","7","Phylogenetic","true","experimental"
"","null","html-keyboard-response","161","204488","0.0-11.0-2.23","Cf9bmm76sG","5fd5381b5807b616d910c586","6617fad957f7c6a12ea16e26","6622cd6cc8a4c02db902d0fe","
    <div id=""grid-container"">
        <!-- Grid items will be dynamically added here -->
    </div>    ","null","","","","","","","","","","","",""
"","null","html-keyboard-response","162","205190","0.0-11.0-0.24","Cf9bmm76sG","5fd5381b5807b616d910c586","6617fad957f7c6a12ea16e26","6622cd6cc8a4c02db902d0fe","fixation cross","null","","","","","","","","","","","",""
"","851","html-keyboard-response","163","206041","0.0-11.0-1.24","Cf9bmm76sG","5fd5381b5807b616d910c586","6617fad957f7c6a12ea16e26","6622cd6cc8a4c02db902d0fe","image grid","q","","","","","Phylogenetic_Distractor_Threat_target","2500","ongrid","q","1","Phylogenetic","true","experimental"
"","null","html-keyboard-response","164","206193","0.0-11.0-2.24","Cf9bmm76sG","5fd5381b5807b616d910c586","6617fad957f7c6a12ea16e26","6622cd6cc8a4c02db902d0fe","
    <div id=""grid-container"">
        <!-- Grid items will be dynamically added here -->
    </div>    ","null","","","","","","","","","","","",""
"","null","html-keyboard-response","165","206895","0.0-11.0-0.25","Cf9bmm76sG","5fd5381b5807b616d910c586","6617fad957f7c6a12ea16e26","6622cd6cc8a4c02db902d0fe","fixation cross","null","","","","","","","","","","","",""
"","809","html-keyboard-response","166","207705","0.0-11.0-1.25","Cf9bmm76sG","5fd5381b5807b616d910c586","6617fad957f7c6a12ea16e26","6622cd6cc8a4c02db902d0fe","image grid"," ","","","","","Phylogenetic_Distractor_Nonthreat_target","2500","ongrid","p","4","Phylogenetic","false","experimental"
"","null","html-keyboard-response","167","207856","0.0-11.0-2.25","Cf9bmm76sG","5fd5381b5807b616d910c586","6617fad957f7c6a12ea16e26","6622cd6cc8a4c02db902d0fe","
    <div id=""grid-container"">
        <!-- Grid items will be dynamically added here -->
    </div>    ","null","","","","","","","","","","","",""
"","null","html-keyboard-response","168","208558","0.0-11.0-0.26","Cf9bmm76sG","5fd5381b5807b616d910c586","6617fad957f7c6a12ea16e26","6622cd6cc8a4c02db902d0fe","fixation cross","null","","","","","","","","","","","",""
"","1214","html-keyboard-response","169","209772","0.0-11.0-1.26","Cf9bmm76sG","5fd5381b5807b616d910c586","6617fad957f7c6a12ea16e26","6622cd6cc8a4c02db902d0fe","image grid","q","","","","","Phylogenetic_Distractor_Threat_target","2500","ongrid","q","3","Phylogenetic","true","experimental"
"","null","html-keyboard-response","170","209923","0.0-11.0-2.26","Cf9bmm76sG","5fd5381b5807b616d910c586","6617fad957f7c6a12ea16e26","6622cd6cc8a4c02db902d0fe","
    <div id=""grid-container"">
        <!-- Grid items will be dynamically added here -->
    </div>    ","null","","","","","","","","","","","",""
"","null","html-keyboard-response","171","210626","0.0-11.0-0.27","Cf9bmm76sG","5fd5381b5807b616d910c586","6617fad957f7c6a12ea16e26","6622cd6cc8a4c02db902d0fe","fixation cross","null","","","","","","","","","","","",""
"","704","html-keyboard-response","172","211330","0.0-11.0-1.27","Cf9bmm76sG","5fd5381b5807b616d910c586","6617fad957f7c6a12ea16e26","6622cd6cc8a4c02db902d0fe","image grid","p","","","","","Phylogenetic_Distractor_Nonthreat_target","2500","ongrid","p","7","Phylogenetic","true","experimental"
"","null","html-keyboard-response","173","211483","0.0-11.0-2.27","Cf9bmm76sG","5fd5381b5807b616d910c586","6617fad957f7c6a12ea16e26","6622cd6cc8a4c02db902d0fe","
    <div id=""grid-container"">
        <!-- Grid items will be dynamically added here -->
    </div>    ","null","","","","","","","","","","","",""
"","null","html-keyboard-response","174","212185","0.0-11.0-0.28","Cf9bmm76sG","5fd5381b5807b616d910c586","6617fad957f7c6a12ea16e26","6622cd6cc8a4c02db902d0fe","fixation cross","null","","","","","","","","","","","",""
"","1132","html-keyboard-response","175","213318","0.0-11.0-1.28","Cf9bmm76sG","5fd5381b5807b616d910c586","6617fad957f7c6a12ea16e26","6622cd6cc8a4c02db902d0fe","image grid"," ","","","","","Phylogenetic_Distractor_notarget","2500","ongrid"," ","6","Phylogenetic","true","experimental"
"","null","html-keyboard-response","176","213470","0.0-11.0-2.28","Cf9bmm76sG","5fd5381b5807b616d910c586","6617fad957f7c6a12ea16e26","6622cd6cc8a4c02db902d0fe","
    <div id=""grid-container"">
        <!-- Grid items will be dynamically added here -->
    </div>    ","null","","","","","","","","","","","",""
"","null","html-keyboard-response","177","214173","0.0-11.0-0.29","Cf9bmm76sG","5fd5381b5807b616d910c586","6617fad957f7c6a12ea16e26","6622cd6cc8a4c02db902d0fe","fixation cross","null","","","","","","","","","","","",""
"","1385","html-keyboard-response","178","215558","0.0-11.0-1.29","Cf9bmm76sG","5fd5381b5807b616d910c586","6617fad957f7c6a12ea16e26","6622cd6cc8a4c02db902d0fe","image grid"," ","","","","","Phylogenetic_Distractor_notarget","2500","ongrid"," ","3","Phylogenetic","true","experimental"
"","null","html-keyboard-response","179","215710","0.0-11.0-2.29","Cf9bmm76sG","5fd5381b5807b616d910c586","6617fad957f7c6a12ea16e26","6622cd6cc8a4c02db902d0fe","
    <div id=""grid-container"">
        <!-- Grid items will be dynamically added here -->
    </div>    ","null","","","","","","","","","","","",""
"","null","html-keyboard-response","180","216412","0.0-11.0-0.30","Cf9bmm76sG","5fd5381b5807b616d910c586","6617fad957f7c6a12ea16e26","6622cd6cc8a4c02db902d0fe","fixation cross","null","","","","","","","","","","","",""
"","826","html-keyboard-response","181","217239","0.0-11.0-1.30","Cf9bmm76sG","5fd5381b5807b616d910c586","6617fad957f7c6a12ea16e26","6622cd6cc8a4c02db902d0fe","image grid","q","","","","","Phylogenetic_Distractor_Threat_target","2500","ongrid","q","6","Phylogenetic","true","experimental"
"","null","html-keyboard-response","182","217391","0.0-11.0-2.30","Cf9bmm76sG","5fd5381b5807b616d910c586","6617fad957f7c6a12ea16e26","6622cd6cc8a4c02db902d0fe","
    <div id=""grid-container"">
        <!-- Grid items will be dynamically added here -->
    </div>    ","null","","","","","","","","","","","",""
"","null","html-keyboard-response","183","218094","0.0-11.0-0.31","Cf9bmm76sG","5fd5381b5807b616d910c586","6617fad957f7c6a12ea16e26","6622cd6cc8a4c02db902d0fe","fixation cross","null","","","","","","","","","","","",""
"","1780","html-keyboard-response","184","219875","0.0-11.0-1.31","Cf9bmm76sG","5fd5381b5807b616d910c586","6617fad957f7c6a12ea16e26","6622cd6cc8a4c02db902d0fe","image grid","p","","","","","Phylogenetic_Distractor_Nonthreat_target","2500","ongrid","p","3","Phylogenetic","true","experimental"
"","null","html-keyboard-response","185","220026","0.0-11.0-2.31","Cf9bmm76sG","5fd5381b5807b616d910c586","6617fad957f7c6a12ea16e26","6622cd6cc8a4c02db902d0fe","
    <div id=""grid-container"">
        <!-- Grid items will be dynamically added here -->
    </div>    ","null","","","","","","","","","","","",""
"","null","html-keyboard-response","186","220729","0.0-11.0-0.32","Cf9bmm76sG","5fd5381b5807b616d910c586","6617fad957f7c6a12ea16e26","6622cd6cc8a4c02db902d0fe","fixation cross","null","","","","","","","","","","","",""
"","811","html-keyboard-response","187","221541","0.0-11.0-1.32","Cf9bmm76sG","5fd5381b5807b616d910c586","6617fad957f7c6a12ea16e26","6622cd6cc8a4c02db902d0fe","image grid","p","","","","","Phylogenetic_Distractor_Nonthreat_target","2500","ongrid","p","6","Phylogenetic","true","experimental"
"","null","html-keyboard-response","188","221694","0.0-11.0-2.32","Cf9bmm76sG","5fd5381b5807b616d910c586","6617fad957f7c6a12ea16e26","6622cd6cc8a4c02db902d0fe","
    <div id=""grid-container"">
        <!-- Grid items will be dynamically added here -->
    </div>    ","null","","","","","","","","","","","",""
"","null","html-keyboard-response","189","222396","0.0-11.0-0.33","Cf9bmm76sG","5fd5381b5807b616d910c586","6617fad957f7c6a12ea16e26","6622cd6cc8a4c02db902d0fe","fixation cross","null","","","","","","","","","","","",""
"","882","html-keyboard-response","190","223279","0.0-11.0-1.33","Cf9bmm76sG","5fd5381b5807b616d910c586","6617fad957f7c6a12ea16e26","6622cd6cc8a4c02db902d0fe","image grid","p","","","","","Phylogenetic_Distractor_Nonthreat_target","2500","ongrid","p","4","Phylogenetic","true","experimental"
"","null","html-keyboard-response","191","223431","0.0-11.0-2.33","Cf9bmm76sG","5fd5381b5807b616d910c586","6617fad957f7c6a12ea16e26","6622cd6cc8a4c02db902d0fe","
    <div id=""grid-container"">
        <!-- Grid items will be dynamically added here -->
    </div>    ","null","","","","","","","","","","","",""
"","null","html-keyboard-response","192","224134","0.0-11.0-0.34","Cf9bmm76sG","5fd5381b5807b616d910c586","6617fad957f7c6a12ea16e26","6622cd6cc8a4c02db902d0fe","fixation cross","null","","","","","","","","","","","",""
"","1606","html-keyboard-response","193","225741","0.0-11.0-1.34","Cf9bmm76sG","5fd5381b5807b616d910c586","6617fad957f7c6a12ea16e26","6622cd6cc8a4c02db902d0fe","image grid","p","","","","","Phylogenetic_Distractor_Nonthreat_target","2500","ongrid","p","1","Phylogenetic","true","experimental"
"","null","html-keyboard-response","194","225893","0.0-11.0-2.34","Cf9bmm76sG","5fd5381b5807b616d910c586","6617fad957f7c6a12ea16e26","6622cd6cc8a4c02db902d0fe","
    <div id=""grid-container"">
        <!-- Grid items will be dynamically added here -->
    </div>    ","null","","","","","","","","","","","",""
"","null","html-keyboard-response","195","226596","0.0-11.0-0.35","Cf9bmm76sG","5fd5381b5807b616d910c586","6617fad957f7c6a12ea16e26","6622cd6cc8a4c02db902d0fe","fixation cross","null","","","","","","","","","","","",""
"","726","html-keyboard-response","196","227323","0.0-11.0-1.35","Cf9bmm76sG","5fd5381b5807b616d910c586","6617fad957f7c6a12ea16e26","6622cd6cc8a4c02db902d0fe","image grid","q","","","","","Phylogenetic_Distractor_Threat_target","2500","ongrid","q","9","Phylogenetic","true","experimental"
"","null","html-keyboard-response","197","227475","0.0-11.0-2.35","Cf9bmm76sG","5fd5381b5807b616d910c586","6617fad957f7c6a12ea16e26","6622cd6cc8a4c02db902d0fe","
    <div id=""grid-container"">
        <!-- Grid items will be dynamically added here -->
    </div>    ","null","","","","","","","","","","","",""
"","null","html-keyboard-response","198","228176","0.0-11.0-0.36","Cf9bmm76sG","5fd5381b5807b616d910c586","6617fad957f7c6a12ea16e26","6622cd6cc8a4c02db902d0fe","fixation cross","null","","","","","","","","","","","",""
"","963","html-keyboard-response","199","229140","0.0-11.0-1.36","Cf9bmm76sG","5fd5381b5807b616d910c586","6617fad957f7c6a12ea16e26","6622cd6cc8a4c02db902d0fe","image grid","p","","","","","Phylogenetic_Distractor_Nonthreat_target","2500","ongrid","p","9","Phylogenetic","true","experimental"
"","null","html-keyboard-response","200","229291","0.0-11.0-2.36","Cf9bmm76sG","5fd5381b5807b616d910c586","6617fad957f7c6a12ea16e26","6622cd6cc8a4c02db902d0fe","
    <div id=""grid-container"">
        <!-- Grid items will be dynamically added here -->
    </div>    ","null","","","","","","","","","","","",""
"","null","html-keyboard-response","201","229994","0.0-11.0-0.37","Cf9bmm76sG","5fd5381b5807b616d910c586","6617fad957f7c6a12ea16e26","6622cd6cc8a4c02db902d0fe","fixation cross","null","","","","","","","","","","","",""
"","724","html-keyboard-response","202","230718","0.0-11.0-1.37","Cf9bmm76sG","5fd5381b5807b616d910c586","6617fad957f7c6a12ea16e26","6622cd6cc8a4c02db902d0fe","image grid","q","","","","","Phylogenetic_Distractor_Threat_target","2500","ongrid","q","2","Phylogenetic","true","experimental"
"","null","html-keyboard-response","203","230870","0.0-11.0-2.37","Cf9bmm76sG","5fd5381b5807b616d910c586","6617fad957f7c6a12ea16e26","6622cd6cc8a4c02db902d0fe","
    <div id=""grid-container"">
        <!-- Grid items will be dynamically added here -->
    </div>    ","null","","","","","","","","","","","",""
"","null","html-keyboard-response","204","231574","0.0-11.0-0.38","Cf9bmm76sG","5fd5381b5807b616d910c586","6617fad957f7c6a12ea16e26","6622cd6cc8a4c02db902d0fe","fixation cross","null","","","","","","","","","","","",""
"","798","html-keyboard-response","205","232373","0.0-11.0-1.38","Cf9bmm76sG","5fd5381b5807b616d910c586","6617fad957f7c6a12ea16e26","6622cd6cc8a4c02db902d0fe","image grid","q","","","","","Phylogenetic_Distractor_Threat_target","2500","ongrid","q","1","Phylogenetic","true","experimental"
"","null","html-keyboard-response","206","232525","0.0-11.0-2.38","Cf9bmm76sG","5fd5381b5807b616d910c586","6617fad957f7c6a12ea16e26","6622cd6cc8a4c02db902d0fe","
    <div id=""grid-container"">
        <!-- Grid items will be dynamically added here -->
    </div>    ","null","","","","","","","","","","","",""
"","null","html-keyboard-response","207","233229","0.0-11.0-0.39","Cf9bmm76sG","5fd5381b5807b616d910c586","6617fad957f7c6a12ea16e26","6622cd6cc8a4c02db902d0fe","fixation cross","null","","","","","","","","","","","",""
"","577","html-keyboard-response","208","233807","0.0-11.0-1.39","Cf9bmm76sG","5fd5381b5807b616d910c586","6617fad957f7c6a12ea16e26","6622cd6cc8a4c02db902d0fe","image grid","q","","","","","Phylogenetic_Distractor_Threat_target","2500","ongrid","q","1","Phylogenetic","true","experimental"
"","null","html-keyboard-response","209","233958","0.0-11.0-2.39","Cf9bmm76sG","5fd5381b5807b616d910c586","6617fad957f7c6a12ea16e26","6622cd6cc8a4c02db902d0fe","
    <div id=""grid-container"">
        <!-- Grid items will be dynamically added here -->
    </div>    ","null","","","","","","","","","","","",""
"","28730","html-keyboard-response","210","262930","0.0-12.0","Cf9bmm76sG","5fd5381b5807b616d910c586","6617fad957f7c6a12ea16e26","6622cd6cc8a4c02db902d0fe","break screen"," ","","","","","","","","","","","",""
"","null","html-keyboard-response","211","265468","0.0-13.0-0.0","Cf9bmm76sG","5fd5381b5807b616d910c586","6617fad957f7c6a12ea16e26","6622cd6cc8a4c02db902d0fe","fixation cross","null","","","","","","","","","","","",""
"","null","html-keyboard-response","212","266270","0.0-13.0-1.0","Cf9bmm76sG","5fd5381b5807b616d910c586","6617fad957f7c6a12ea16e26","6622cd6cc8a4c02db902d0fe","
        <div id=""grid-container"">
        <!-- Grid items will be dynamically added here -->
    </div>    ","null","","","","","","","","","","","",""
"","1731","html-keyboard-response","213","267202","0.0-13.0-2.0","Cf9bmm76sG","5fd5381b5807b616d910c586","6617fad957f7c6a12ea16e26","6622cd6cc8a4c02db902d0fe","mask grid","p","","","","","Phylogenetic_Distractor_Nonthreat_target","800","onmask","p","2","Phylogenetic","true","experimental"
"","null","html-keyboard-response","214","267905","0.0-13.0-0.1","Cf9bmm76sG","5fd5381b5807b616d910c586","6617fad957f7c6a12ea16e26","6622cd6cc8a4c02db902d0fe","fixation cross","null","","","","","","","","","","","",""
"","null","html-keyboard-response","215","268706","0.0-13.0-1.1","Cf9bmm76sG","5fd5381b5807b616d910c586","6617fad957f7c6a12ea16e26","6622cd6cc8a4c02db902d0fe","
        <div id=""grid-container"">
        <!-- Grid items will be dynamically added here -->
    </div>    ","null","","","","","","","","","","","",""
"","1113","html-keyboard-response","216","269019","0.0-13.0-2.1","Cf9bmm76sG","5fd5381b5807b616d910c586","6617fad957f7c6a12ea16e26","6622cd6cc8a4c02db902d0fe","mask grid","p","","","","","Phylogenetic_Distractor_Nonthreat_target","800","onmask","p","1","Phylogenetic","true","experimental"
"","null","html-keyboard-response","217","269723","0.0-13.0-0.2","Cf9bmm76sG","5fd5381b5807b616d910c586","6617fad957f7c6a12ea16e26","6622cd6cc8a4c02db902d0fe","fixation cross","null","","","","","","","","","","","",""
"","null","html-keyboard-response","218","270525","0.0-13.0-1.2","Cf9bmm76sG","5fd5381b5807b616d910c586","6617fad957f7c6a12ea16e26","6622cd6cc8a4c02db902d0fe","
        <div id=""grid-container"">
        <!-- Grid items will be dynamically added here -->
    </div>    ","null","","","","","","","","","","","",""
"","973","html-keyboard-response","219","270699","0.0-13.0-2.2","Cf9bmm76sG","5fd5381b5807b616d910c586","6617fad957f7c6a12ea16e26","6622cd6cc8a4c02db902d0fe","mask grid"," ","","","","","Phylogenetic_Distractor_Nonthreat_target","800","onmask","p","2","Phylogenetic","false","experimental"
"","null","html-keyboard-response","220","271402","0.0-13.0-0.3","Cf9bmm76sG","5fd5381b5807b616d910c586","6617fad957f7c6a12ea16e26","6622cd6cc8a4c02db902d0fe","fixation cross","null","","","","","","","","","","","",""
"","676","html-keyboard-response","221","272079","0.0-13.0-1.3","Cf9bmm76sG","5fd5381b5807b616d910c586","6617fad957f7c6a12ea16e26","6622cd6cc8a4c02db902d0fe","image grid","q","","","","","Phylogenetic_Distractor_Threat_target","800","ongrid","q","1","Phylogenetic","true","experimental"
"","null","html-keyboard-response","222","272230","0.0-13.0-2.3","Cf9bmm76sG","5fd5381b5807b616d910c586","6617fad957f7c6a12ea16e26","6622cd6cc8a4c02db902d0fe","
    <div id=""grid-container"">
        <!-- Grid items will be dynamically added here -->
    </div>    ","null","","","","","","","","","","","",""
"","null","html-keyboard-response","223","272932","0.0-13.0-0.4","Cf9bmm76sG","5fd5381b5807b616d910c586","6617fad957f7c6a12ea16e26","6622cd6cc8a4c02db902d0fe","fixation cross","null","","","","","","","","","","","",""
"","512","html-keyboard-response","224","273444","0.0-13.0-1.4","Cf9bmm76sG","5fd5381b5807b616d910c586","6617fad957f7c6a12ea16e26","6622cd6cc8a4c02db902d0fe","image grid","q","","","","","Phylogenetic_Distractor_Threat_target","800","ongrid","q","1","Phylogenetic","true","experimental"
"","null","html-keyboard-response","225","273596","0.0-13.0-2.4","Cf9bmm76sG","5fd5381b5807b616d910c586","6617fad957f7c6a12ea16e26","6622cd6cc8a4c02db902d0fe","
    <div id=""grid-container"">
        <!-- Grid items will be dynamically added here -->
    </div>    ","null","","","","","","","","","","","",""
"","null","html-keyboard-response","226","274298","0.0-13.0-0.5","Cf9bmm76sG","5fd5381b5807b616d910c586","6617fad957f7c6a12ea16e26","6622cd6cc8a4c02db902d0fe","fixation cross","null","","","","","","","","","","","",""
"","470","html-keyboard-response","227","274768","0.0-13.0-1.5","Cf9bmm76sG","5fd5381b5807b616d910c586","6617fad957f7c6a12ea16e26","6622cd6cc8a4c02db902d0fe","image grid","q","","","","","Phylogenetic_Distractor_Threat_target","800","ongrid","q","2","Phylogenetic","true","experimental"
"","null","html-keyboard-response","228","274919","0.0-13.0-2.5","Cf9bmm76sG","5fd5381b5807b616d910c586","6617fad957f7c6a12ea16e26","6622cd6cc8a4c02db902d0fe","
    <div id=""grid-container"">
        <!-- Grid items will be dynamically added here -->
    </div>    ","null","","","","","","","","","","","",""
"","null","html-keyboard-response","229","275623","0.0-13.0-0.6","Cf9bmm76sG","5fd5381b5807b616d910c586","6617fad957f7c6a12ea16e26","6622cd6cc8a4c02db902d0fe","fixation cross","null","","","","","","","","","","","",""
"","null","html-keyboard-response","230","276425","0.0-13.0-1.6","Cf9bmm76sG","5fd5381b5807b616d910c586","6617fad957f7c6a12ea16e26","6622cd6cc8a4c02db902d0fe","
        <div id=""grid-container"">
        <!-- Grid items will be dynamically added here -->
    </div>    ","null","","","","","","","","","","","",""
"","820","html-keyboard-response","231","276446","0.0-13.0-2.6","Cf9bmm76sG","5fd5381b5807b616d910c586","6617fad957f7c6a12ea16e26","6622cd6cc8a4c02db902d0fe","mask grid","p","","","","","Phylogenetic_Distractor_Nonthreat_target","800","onmask","p","7","Phylogenetic","true","experimental"
"","null","html-keyboard-response","232","277150","0.0-13.0-0.7","Cf9bmm76sG","5fd5381b5807b616d910c586","6617fad957f7c6a12ea16e26","6622cd6cc8a4c02db902d0fe","fixation cross","null","","","","","","","","","","","",""
"","597","html-keyboard-response","233","277747","0.0-13.0-1.7","Cf9bmm76sG","5fd5381b5807b616d910c586","6617fad957f7c6a12ea16e26","6622cd6cc8a4c02db902d0fe","image grid","q","","","","","Phylogenetic_Distractor_Threat_target","800","ongrid","q","9","Phylogenetic","true","experimental"
"","null","html-keyboard-response","234","277899","0.0-13.0-2.7","Cf9bmm76sG","5fd5381b5807b616d910c586","6617fad957f7c6a12ea16e26","6622cd6cc8a4c02db902d0fe","
    <div id=""grid-container"">
        <!-- Grid items will be dynamically added here -->
    </div>    ","null","","","","","","","","","","","",""
"","null","html-keyboard-response","235","278603","0.0-13.0-0.8","Cf9bmm76sG","5fd5381b5807b616d910c586","6617fad957f7c6a12ea16e26","6622cd6cc8a4c02db902d0fe","fixation cross","null","","","","","","","","","","","",""
"","769","html-keyboard-response","236","279373","0.0-13.0-1.8","Cf9bmm76sG","5fd5381b5807b616d910c586","6617fad957f7c6a12ea16e26","6622cd6cc8a4c02db902d0fe","image grid","p","","","","","Phylogenetic_Distractor_Threat_target","800","ongrid","q","3","Phylogenetic","false","experimental"
"","null","html-keyboard-response","237","279525","0.0-13.0-2.8","Cf9bmm76sG","5fd5381b5807b616d910c586","6617fad957f7c6a12ea16e26","6622cd6cc8a4c02db902d0fe","
    <div id=""grid-container"">
        <!-- Grid items will be dynamically added here -->
    </div>    ","null","","","","","","","","","","","",""
"","null","html-keyboard-response","238","280228","0.0-13.0-0.9","Cf9bmm76sG","5fd5381b5807b616d910c586","6617fad957f7c6a12ea16e26","6622cd6cc8a4c02db902d0fe","fixation cross","null","","","","","","","","","","","",""
"","758","html-keyboard-response","239","280986","0.0-13.0-1.9","Cf9bmm76sG","5fd5381b5807b616d910c586","6617fad957f7c6a12ea16e26","6622cd6cc8a4c02db902d0fe","image grid","q","","","","","Phylogenetic_Distractor_Threat_target","800","ongrid","q","5","Phylogenetic","true","experimental"
"","null","html-keyboard-response","240","281138","0.0-13.0-2.9","Cf9bmm76sG","5fd5381b5807b616d910c586","6617fad957f7c6a12ea16e26","6622cd6cc8a4c02db902d0fe","
    <div id=""grid-container"">
        <!-- Grid items will be dynamically added here -->
    </div>    ","null","","","","","","","","","","","",""
"","null","html-keyboard-response","241","281840","0.0-13.0-0.10","Cf9bmm76sG","5fd5381b5807b616d910c586","6617fad957f7c6a12ea16e26","6622cd6cc8a4c02db902d0fe","fixation cross","null","","","","","","","","","","","",""
"","789","html-keyboard-response","242","282630","0.0-13.0-1.10","Cf9bmm76sG","5fd5381b5807b616d910c586","6617fad957f7c6a12ea16e26","6622cd6cc8a4c02db902d0fe","image grid","p","","","","","Phylogenetic_Distractor_Nonthreat_target","800","ongrid","p","4","Phylogenetic","true","experimental"
"","null","html-keyboard-response","243","282781","0.0-13.0-2.10","Cf9bmm76sG","5fd5381b5807b616d910c586","6617fad957f7c6a12ea16e26","6622cd6cc8a4c02db902d0fe","
    <div id=""grid-container"">
        <!-- Grid items will be dynamically added here -->
    </div>    ","null","","","","","","","","","","","",""
"","null","html-keyboard-response","244","283485","0.0-13.0-0.11","Cf9bmm76sG","5fd5381b5807b616d910c586","6617fad957f7c6a12ea16e26","6622cd6cc8a4c02db902d0fe","fixation cross","null","","","","","","","","","","","",""
"","793","html-keyboard-response","245","284279","0.0-13.0-1.11","Cf9bmm76sG","5fd5381b5807b616d910c586","6617fad957f7c6a12ea16e26","6622cd6cc8a4c02db902d0fe","image grid","p","","","","","Phylogenetic_Distractor_Nonthreat_target","800","ongrid","p","8","Phylogenetic","true","experimental"
"","null","html-keyboard-response","246","284431","0.0-13.0-2.11","Cf9bmm76sG","5fd5381b5807b616d910c586","6617fad957f7c6a12ea16e26","6622cd6cc8a4c02db902d0fe","
    <div id=""grid-container"">
        <!-- Grid items will be dynamically added here -->
    </div>    ","null","","","","","","","","","","","",""
"","null","html-keyboard-response","247","285133","0.0-13.0-0.12","Cf9bmm76sG","5fd5381b5807b616d910c586","6617fad957f7c6a12ea16e26","6622cd6cc8a4c02db902d0fe","fixation cross","null","","","","","","","","","","","",""
"","549","html-keyboard-response","248","285683","0.0-13.0-1.12","Cf9bmm76sG","5fd5381b5807b616d910c586","6617fad957f7c6a12ea16e26","6622cd6cc8a4c02db902d0fe","image grid","p","","","","","Phylogenetic_Distractor_Nonthreat_target","800","ongrid","p","6","Phylogenetic","true","experimental"
"","null","html-keyboard-response","249","285835","0.0-13.0-2.12","Cf9bmm76sG","5fd5381b5807b616d910c586","6617fad957f7c6a12ea16e26","6622cd6cc8a4c02db902d0fe","
    <div id=""grid-container"">
        <!-- Grid items will be dynamically added here -->
    </div>    ","null","","","","","","","","","","","",""
"","null","html-keyboard-response","250","286537","0.0-13.0-0.13","Cf9bmm76sG","5fd5381b5807b616d910c586","6617fad957f7c6a12ea16e26","6622cd6cc8a4c02db902d0fe","fixation cross","null","","","","","","","","","","","",""
"","615","html-keyboard-response","251","287153","0.0-13.0-1.13","Cf9bmm76sG","5fd5381b5807b616d910c586","6617fad957f7c6a12ea16e26","6622cd6cc8a4c02db902d0fe","image grid","q","","","","","Phylogenetic_Distractor_Threat_target","800","ongrid","q","2","Phylogenetic","true","experimental"
"","null","html-keyboard-response","252","287305","0.0-13.0-2.13","Cf9bmm76sG","5fd5381b5807b616d910c586","6617fad957f7c6a12ea16e26","6622cd6cc8a4c02db902d0fe","
    <div id=""grid-container"">
        <!-- Grid items will be dynamically added here -->
    </div>    ","null","","","","","","","","","","","",""
"","null","html-keyboard-response","253","288008","0.0-13.0-0.14","Cf9bmm76sG","5fd5381b5807b616d910c586","6617fad957f7c6a12ea16e26","6622cd6cc8a4c02db902d0fe","fixation cross","null","","","","","","","","","","","",""
"","null","html-keyboard-response","254","288810","0.0-13.0-1.14","Cf9bmm76sG","5fd5381b5807b616d910c586","6617fad957f7c6a12ea16e26","6622cd6cc8a4c02db902d0fe","
        <div id=""grid-container"">
        <!-- Grid items will be dynamically added here -->
    </div>    ","null","","","","","","","","","","","",""
"","835","html-keyboard-response","255","288845","0.0-13.0-2.14","Cf9bmm76sG","5fd5381b5807b616d910c586","6617fad957f7c6a12ea16e26","6622cd6cc8a4c02db902d0fe","mask grid","p","","","","","Phylogenetic_Distractor_Nonthreat_target","800","onmask","p","6","Phylogenetic","true","experimental"
"","null","html-keyboard-response","256","289549","0.0-13.0-0.15","Cf9bmm76sG","5fd5381b5807b616d910c586","6617fad957f7c6a12ea16e26","6622cd6cc8a4c02db902d0fe","fixation cross","null","","","","","","","","","","","",""
"","null","html-keyboard-response","257","290350","0.0-13.0-1.15","Cf9bmm76sG","5fd5381b5807b616d910c586","6617fad957f7c6a12ea16e26","6622cd6cc8a4c02db902d0fe","
        <div id=""grid-container"">
        <!-- Grid items will be dynamically added here -->
    </div>    ","null","","","","","","","","","","","",""
"","879","html-keyboard-response","258","290430","0.0-13.0-2.15","Cf9bmm76sG","5fd5381b5807b616d910c586","6617fad957f7c6a12ea16e26","6622cd6cc8a4c02db902d0fe","mask grid","q","","","","","Phylogenetic_Distractor_Threat_target","800","onmask","q","2","Phylogenetic","true","experimental"
"","null","html-keyboard-response","259","291133","0.0-13.0-0.16","Cf9bmm76sG","5fd5381b5807b616d910c586","6617fad957f7c6a12ea16e26","6622cd6cc8a4c02db902d0fe","fixation cross","null","","","","","","","","","","","",""
"","null","html-keyboard-response","260","291935","0.0-13.0-1.16","Cf9bmm76sG","5fd5381b5807b616d910c586","6617fad957f7c6a12ea16e26","6622cd6cc8a4c02db902d0fe","
        <div id=""grid-container"">
        <!-- Grid items will be dynamically added here -->
    </div>    ","null","","","","","","","","","","","",""
"","1386","html-keyboard-response","261","292522","0.0-13.0-2.16","Cf9bmm76sG","5fd5381b5807b616d910c586","6617fad957f7c6a12ea16e26","6622cd6cc8a4c02db902d0fe","mask grid","p","","","","","Phylogenetic_Distractor_Nonthreat_target","800","onmask","p","1","Phylogenetic","true","experimental"
"","null","html-keyboard-response","262","293225","0.0-13.0-0.17","Cf9bmm76sG","5fd5381b5807b616d910c586","6617fad957f7c6a12ea16e26","6622cd6cc8a4c02db902d0fe","fixation cross","null","","","","","","","","","","","",""
"","null","html-keyboard-response","263","294026","0.0-13.0-1.17","Cf9bmm76sG","5fd5381b5807b616d910c586","6617fad957f7c6a12ea16e26","6622cd6cc8a4c02db902d0fe","
        <div id=""grid-container"">
        <!-- Grid items will be dynamically added here -->
    </div>    ","null","","","","","","","","","","","",""
"","1498","html-keyboard-response","264","294725","0.0-13.0-2.17","Cf9bmm76sG","5fd5381b5807b616d910c586","6617fad957f7c6a12ea16e26","6622cd6cc8a4c02db902d0fe","mask grid"," ","","","","","Phylogenetic_Distractor_notarget","800","onmask"," ","8","Phylogenetic","true","experimental"
"","null","html-keyboard-response","265","295428","0.0-13.0-0.18","Cf9bmm76sG","5fd5381b5807b616d910c586","6617fad957f7c6a12ea16e26","6622cd6cc8a4c02db902d0fe","fixation cross","null","","","","","","","","","","","",""
"","659","html-keyboard-response","266","296087","0.0-13.0-1.18","Cf9bmm76sG","5fd5381b5807b616d910c586","6617fad957f7c6a12ea16e26","6622cd6cc8a4c02db902d0fe","image grid","p","","","","","Phylogenetic_Distractor_Nonthreat_target","800","ongrid","p","4","Phylogenetic","true","experimental"
"","null","html-keyboard-response","267","296239","0.0-13.0-2.18","Cf9bmm76sG","5fd5381b5807b616d910c586","6617fad957f7c6a12ea16e26","6622cd6cc8a4c02db902d0fe","
    <div id=""grid-container"">
        <!-- Grid items will be dynamically added here -->
    </div>    ","null","","","","","","","","","","","",""
"","null","html-keyboard-response","268","296942","0.0-13.0-0.19","Cf9bmm76sG","5fd5381b5807b616d910c586","6617fad957f7c6a12ea16e26","6622cd6cc8a4c02db902d0fe","fixation cross","null","","","","","","","","","","","",""
"","534","html-keyboard-response","269","297476","0.0-13.0-1.19","Cf9bmm76sG","5fd5381b5807b616d910c586","6617fad957f7c6a12ea16e26","6622cd6cc8a4c02db902d0fe","image grid","q","","","","","Phylogenetic_Distractor_Threat_target","800","ongrid","q","8","Phylogenetic","true","experimental"
"","null","html-keyboard-response","270","297629","0.0-13.0-2.19","Cf9bmm76sG","5fd5381b5807b616d910c586","6617fad957f7c6a12ea16e26","6622cd6cc8a4c02db902d0fe","
    <div id=""grid-container"">
        <!-- Grid items will be dynamically added here -->
    </div>    ","null","","","","","","","","","","","",""
"","null","html-keyboard-response","271","298333","0.0-13.0-0.20","Cf9bmm76sG","5fd5381b5807b616d910c586","6617fad957f7c6a12ea16e26","6622cd6cc8a4c02db902d0fe","fixation cross","null","","","","","","","","","","","",""
"","661","html-keyboard-response","272","298994","0.0-13.0-1.20","Cf9bmm76sG","5fd5381b5807b616d910c586","6617fad957f7c6a12ea16e26","6622cd6cc8a4c02db902d0fe","image grid","p","","","","","Phylogenetic_Distractor_Nonthreat_target","800","ongrid","p","2","Phylogenetic","true","experimental"
"","null","html-keyboard-response","273","299145","0.0-13.0-2.20","Cf9bmm76sG","5fd5381b5807b616d910c586","6617fad957f7c6a12ea16e26","6622cd6cc8a4c02db902d0fe","
    <div id=""grid-container"">
        <!-- Grid items will be dynamically added here -->
    </div>    ","null","","","","","","","","","","","",""
"","null","html-keyboard-response","274","299849","0.0-13.0-0.21","Cf9bmm76sG","5fd5381b5807b616d910c586","6617fad957f7c6a12ea16e26","6622cd6cc8a4c02db902d0fe","fixation cross","null","","","","","","","","","","","",""
"","606","html-keyboard-response","275","300455","0.0-13.0-1.21","Cf9bmm76sG","5fd5381b5807b616d910c586","6617fad957f7c6a12ea16e26","6622cd6cc8a4c02db902d0fe","image grid","q","","","","","Phylogenetic_Distractor_Threat_target","800","ongrid","q","9","Phylogenetic","true","experimental"
"","null","html-keyboard-response","276","300607","0.0-13.0-2.21","Cf9bmm76sG","5fd5381b5807b616d910c586","6617fad957f7c6a12ea16e26","6622cd6cc8a4c02db902d0fe","
    <div id=""grid-container"">
        <!-- Grid items will be dynamically added here -->
    </div>    ","null","","","","","","","","","","","",""
"","null","html-keyboard-response","277","301311","0.0-13.0-0.22","Cf9bmm76sG","5fd5381b5807b616d910c586","6617fad957f7c6a12ea16e26","6622cd6cc8a4c02db902d0fe","fixation cross","null","","","","","","","","","","","",""
"","696","html-keyboard-response","278","302008","0.0-13.0-1.22","Cf9bmm76sG","5fd5381b5807b616d910c586","6617fad957f7c6a12ea16e26","6622cd6cc8a4c02db902d0fe","image grid","q","","","","","Phylogenetic_Distractor_Threat_target","800","ongrid","q","6","Phylogenetic","true","experimental"
"","null","html-keyboard-response","279","302160","0.0-13.0-2.22","Cf9bmm76sG","5fd5381b5807b616d910c586","6617fad957f7c6a12ea16e26","6622cd6cc8a4c02db902d0fe","
    <div id=""grid-container"">
        <!-- Grid items will be dynamically added here -->
    </div>    ","null","","","","","","","","","","","",""
"","null","html-keyboard-response","280","302861","0.0-13.0-0.23","Cf9bmm76sG","5fd5381b5807b616d910c586","6617fad957f7c6a12ea16e26","6622cd6cc8a4c02db902d0fe","fixation cross","null","","","","","","","","","","","",""
"","776","html-keyboard-response","281","303637","0.0-13.0-1.23","Cf9bmm76sG","5fd5381b5807b616d910c586","6617fad957f7c6a12ea16e26","6622cd6cc8a4c02db902d0fe","image grid","p","","","","","Phylogenetic_Distractor_Nonthreat_target","800","ongrid","p","3","Phylogenetic","true","experimental"
"","null","html-keyboard-response","282","303789","0.0-13.0-2.23","Cf9bmm76sG","5fd5381b5807b616d910c586","6617fad957f7c6a12ea16e26","6622cd6cc8a4c02db902d0fe","
    <div id=""grid-container"">
        <!-- Grid items will be dynamically added here -->
    </div>    ","null","","","","","","","","","","","",""
"","null","html-keyboard-response","283","304491","0.0-13.0-0.24","Cf9bmm76sG","5fd5381b5807b616d910c586","6617fad957f7c6a12ea16e26","6622cd6cc8a4c02db902d0fe","fixation cross","null","","","","","","","","","","","",""
"","607","html-keyboard-response","284","305098","0.0-13.0-1.24","Cf9bmm76sG","5fd5381b5807b616d910c586","6617fad957f7c6a12ea16e26","6622cd6cc8a4c02db902d0fe","image grid","q","","","","","Phylogenetic_Distractor_Threat_target","800","ongrid","q","5","Phylogenetic","true","experimental"
"","null","html-keyboard-response","285","305250","0.0-13.0-2.24","Cf9bmm76sG","5fd5381b5807b616d910c586","6617fad957f7c6a12ea16e26","6622cd6cc8a4c02db902d0fe","
    <div id=""grid-container"">
        <!-- Grid items will be dynamically added here -->
    </div>    ","null","","","","","","","","","","","",""
"","null","html-keyboard-response","286","305952","0.0-13.0-0.25","Cf9bmm76sG","5fd5381b5807b616d910c586","6617fad957f7c6a12ea16e26","6622cd6cc8a4c02db902d0fe","fixation cross","null","","","","","","","","","","","",""
"","638","html-keyboard-response","287","306590","0.0-13.0-1.25","Cf9bmm76sG","5fd5381b5807b616d910c586","6617fad957f7c6a12ea16e26","6622cd6cc8a4c02db902d0fe","image grid"," ","","","","","Phylogenetic_Distractor_Nonthreat_target","800","ongrid","p","2","Phylogenetic","false","experimental"
"","null","html-keyboard-response","288","306743","0.0-13.0-2.25","Cf9bmm76sG","5fd5381b5807b616d910c586","6617fad957f7c6a12ea16e26","6622cd6cc8a4c02db902d0fe","
    <div id=""grid-container"">
        <!-- Grid items will be dynamically added here -->
    </div>    ","null","","","","","","","","","","","",""
"","30","html-keyboard-response","289","307447","0.0-13.0-0.26","Cf9bmm76sG","5fd5381b5807b616d910c586","6617fad957f7c6a12ea16e26","6622cd6cc8a4c02db902d0fe","fixation cross","p","","","","","","","","","","","",""
"","null","html-keyboard-response","290","308249","0.0-13.0-1.26","Cf9bmm76sG","5fd5381b5807b616d910c586","6617fad957f7c6a12ea16e26","6622cd6cc8a4c02db902d0fe","
        <div id=""grid-container"">
        <!-- Grid items will be dynamically added here -->
    </div>    ","null","","","","","","","","","","","",""
"","1209","html-keyboard-response","291","308658","0.0-13.0-2.26","Cf9bmm76sG","5fd5381b5807b616d910c586","6617fad957f7c6a12ea16e26","6622cd6cc8a4c02db902d0fe","mask grid","p","","","","","Phylogenetic_Distractor_Nonthreat_target","800","onmask","p","4","Phylogenetic","true","experimental"
"","null","html-keyboard-response","292","309362","0.0-13.0-0.27","Cf9bmm76sG","5fd5381b5807b616d910c586","6617fad957f7c6a12ea16e26","6622cd6cc8a4c02db902d0fe","fixation cross","null","","","","","","","","","","","",""
"","null","html-keyboard-response","293","310164","0.0-13.0-1.27","Cf9bmm76sG","5fd5381b5807b616d910c586","6617fad957f7c6a12ea16e26","6622cd6cc8a4c02db902d0fe","
        <div id=""grid-container"">
        <!-- Grid items will be dynamically added here -->
    </div>    ","null","","","","","","","","","","","",""
"","866","html-keyboard-response","294","310230","0.0-13.0-2.27","Cf9bmm76sG","5fd5381b5807b616d910c586","6617fad957f7c6a12ea16e26","6622cd6cc8a4c02db902d0fe","mask grid"," ","","","","","Phylogenetic_Distractor_notarget","800","onmask"," ","4","Phylogenetic","true","experimental"
"","null","html-keyboard-response","295","310935","0.0-13.0-0.28","Cf9bmm76sG","5fd5381b5807b616d910c586","6617fad957f7c6a12ea16e26","6622cd6cc8a4c02db902d0fe","fixation cross","null","","","","","","","","","","","",""
"","562","html-keyboard-response","296","311497","0.0-13.0-1.28","Cf9bmm76sG","5fd5381b5807b616d910c586","6617fad957f7c6a12ea16e26","6622cd6cc8a4c02db902d0fe","image grid","q","","","","","Phylogenetic_Distractor_Threat_target","800","ongrid","q","6","Phylogenetic","true","experimental"
"","null","html-keyboard-response","297","311650","0.0-13.0-2.28","Cf9bmm76sG","5fd5381b5807b616d910c586","6617fad957f7c6a12ea16e26","6622cd6cc8a4c02db902d0fe","
    <div id=""grid-container"">
        <!-- Grid items will be dynamically added here -->
    </div>    ","null","","","","","","","","","","","",""
"","null","html-keyboard-response","298","312353","0.0-13.0-0.29","Cf9bmm76sG","5fd5381b5807b616d910c586","6617fad957f7c6a12ea16e26","6622cd6cc8a4c02db902d0fe","fixation cross","null","","","","","","","","","","","",""
"","473","html-keyboard-response","299","312827","0.0-13.0-1.29","Cf9bmm76sG","5fd5381b5807b616d910c586","6617fad957f7c6a12ea16e26","6622cd6cc8a4c02db902d0fe","image grid","q","","","","","Phylogenetic_Distractor_Threat_target","800","ongrid","q","9","Phylogenetic","true","experimental"
"","null","html-keyboard-response","300","312979","0.0-13.0-2.29","Cf9bmm76sG","5fd5381b5807b616d910c586","6617fad957f7c6a12ea16e26","6622cd6cc8a4c02db902d0fe","
    <div id=""grid-container"">
        <!-- Grid items will be dynamically added here -->
    </div>    ","null","","","","","","","","","","","",""
"","null","html-keyboard-response","301","313680","0.0-13.0-0.30","Cf9bmm76sG","5fd5381b5807b616d910c586","6617fad957f7c6a12ea16e26","6622cd6cc8a4c02db902d0fe","fixation cross","null","","","","","","","","","","","",""
"","602","html-keyboard-response","302","314282","0.0-13.0-1.30","Cf9bmm76sG","5fd5381b5807b616d910c586","6617fad957f7c6a12ea16e26","6622cd6cc8a4c02db902d0fe","image grid"," ","","","","","Phylogenetic_Distractor_Nonthreat_target","800","ongrid","p","9","Phylogenetic","false","experimental"
"","null","html-keyboard-response","303","314435","0.0-13.0-2.30","Cf9bmm76sG","5fd5381b5807b616d910c586","6617fad957f7c6a12ea16e26","6622cd6cc8a4c02db902d0fe","
    <div id=""grid-container"">
        <!-- Grid items will be dynamically added here -->
    </div>    ","null","","","","","","","","","","","",""
"","null","html-keyboard-response","304","315138","0.0-13.0-0.31","Cf9bmm76sG","5fd5381b5807b616d910c586","6617fad957f7c6a12ea16e26","6622cd6cc8a4c02db902d0fe","fixation cross","null","","","","","","","","","","","",""
"","595","html-keyboard-response","305","315734","0.0-13.0-1.31","Cf9bmm76sG","5fd5381b5807b616d910c586","6617fad957f7c6a12ea16e26","6622cd6cc8a4c02db902d0fe","image grid"," ","","","","","Phylogenetic_Distractor_Threat_target","800","ongrid","q","2","Phylogenetic","false","experimental"
"","null","html-keyboard-response","306","315886","0.0-13.0-2.31","Cf9bmm76sG","5fd5381b5807b616d910c586","6617fad957f7c6a12ea16e26","6622cd6cc8a4c02db902d0fe","
    <div id=""grid-container"">
        <!-- Grid items will be dynamically added here -->
    </div>    ","null","","","","","","","","","","","",""
"","null","html-keyboard-response","307","316588","0.0-13.0-0.32","Cf9bmm76sG","5fd5381b5807b616d910c586","6617fad957f7c6a12ea16e26","6622cd6cc8a4c02db902d0fe","fixation cross","null","","","","","","","","","","","",""
"","549","html-keyboard-response","308","317138","0.0-13.0-1.32","Cf9bmm76sG","5fd5381b5807b616d910c586","6617fad957f7c6a12ea16e26","6622cd6cc8a4c02db902d0fe","image grid","q","","","","","Phylogenetic_Distractor_Threat_target","800","ongrid","q","2","Phylogenetic","true","experimental"
"","null","html-keyboard-response","309","317289","0.0-13.0-2.32","Cf9bmm76sG","5fd5381b5807b616d910c586","6617fad957f7c6a12ea16e26","6622cd6cc8a4c02db902d0fe","
    <div id=""grid-container"">
        <!-- Grid items will be dynamically added here -->
    </div>    ","null","","","","","","","","","","","",""
"","null","html-keyboard-response","310","317993","0.0-13.0-0.33","Cf9bmm76sG","5fd5381b5807b616d910c586","6617fad957f7c6a12ea16e26","6622cd6cc8a4c02db902d0fe","fixation cross","null","","","","","","","","","","","",""
"","null","html-keyboard-response","311","318795","0.0-13.0-1.33","Cf9bmm76sG","5fd5381b5807b616d910c586","6617fad957f7c6a12ea16e26","6622cd6cc8a4c02db902d0fe","
        <div id=""grid-container"">
        <!-- Grid items will be dynamically added here -->
    </div>    ","null","","","","","","","","","","","",""
"","825","html-keyboard-response","312","318821","0.0-13.0-2.33","Cf9bmm76sG","5fd5381b5807b616d910c586","6617fad957f7c6a12ea16e26","6622cd6cc8a4c02db902d0fe","mask grid"," ","","","","","Phylogenetic_Distractor_notarget","800","onmask"," ","7","Phylogenetic","true","experimental"
"","null","html-keyboard-response","313","319524","0.0-13.0-0.34","Cf9bmm76sG","5fd5381b5807b616d910c586","6617fad957f7c6a12ea16e26","6622cd6cc8a4c02db902d0fe","fixation cross","null","","","","","","","","","","","",""
"","646","html-keyboard-response","314","320171","0.0-13.0-1.34","Cf9bmm76sG","5fd5381b5807b616d910c586","6617fad957f7c6a12ea16e26","6622cd6cc8a4c02db902d0fe","image grid","p","","","","","Phylogenetic_Distractor_Threat_target","800","ongrid","q","6","Phylogenetic","false","experimental"
"","null","html-keyboard-response","315","320324","0.0-13.0-2.34","Cf9bmm76sG","5fd5381b5807b616d910c586","6617fad957f7c6a12ea16e26","6622cd6cc8a4c02db902d0fe","
    <div id=""grid-container"">
        <!-- Grid items will be dynamically added here -->
    </div>    ","null","","","","","","","","","","","",""
"","null","html-keyboard-response","316","321026","0.0-13.0-0.35","Cf9bmm76sG","5fd5381b5807b616d910c586","6617fad957f7c6a12ea16e26","6622cd6cc8a4c02db902d0fe","fixation cross","null","","","","","","","","","","","",""
"","null","html-keyboard-response","317","321828","0.0-13.0-1.35","Cf9bmm76sG","5fd5381b5807b616d910c586","6617fad957f7c6a12ea16e26","6622cd6cc8a4c02db902d0fe","
        <div id=""grid-container"">
        <!-- Grid items will be dynamically added here -->
    </div>    ","null","","","","","","","","","","","",""
"","967","html-keyboard-response","318","321996","0.0-13.0-2.35","Cf9bmm76sG","5fd5381b5807b616d910c586","6617fad957f7c6a12ea16e26","6622cd6cc8a4c02db902d0fe","mask grid","q","","","","","Phylogenetic_Distractor_notarget","800","onmask"," ","7","Phylogenetic","false","experimental"
"","null","html-keyboard-response","319","322699","0.0-13.0-0.36","Cf9bmm76sG","5fd5381b5807b616d910c586","6617fad957f7c6a12ea16e26","6622cd6cc8a4c02db902d0fe","fixation cross","null","","","","","","","","","","","",""
"","null","html-keyboard-response","320","323500","0.0-13.0-1.36","Cf9bmm76sG","5fd5381b5807b616d910c586","6617fad957f7c6a12ea16e26","6622cd6cc8a4c02db902d0fe","
        <div id=""grid-container"">
        <!-- Grid items will be dynamically added here -->
    </div>    ","null","","","","","","","","","","","",""
"","867","html-keyboard-response","321","323567","0.0-13.0-2.36","Cf9bmm76sG","5fd5381b5807b616d910c586","6617fad957f7c6a12ea16e26","6622cd6cc8a4c02db902d0fe","mask grid","p","","","","","Phylogenetic_Distractor_Nonthreat_target","800","onmask","p","5","Phylogenetic","true","experimental"
"","null","html-keyboard-response","322","324271","0.0-13.0-0.37","Cf9bmm76sG","5fd5381b5807b616d910c586","6617fad957f7c6a12ea16e26","6622cd6cc8a4c02db902d0fe","fixation cross","null","","","","","","","","","","","",""
"","714","html-keyboard-response","323","324985","0.0-13.0-1.37","Cf9bmm76sG","5fd5381b5807b616d910c586","6617fad957f7c6a12ea16e26","6622cd6cc8a4c02db902d0fe","image grid","p","","","","","Phylogenetic_Distractor_Nonthreat_target","800","ongrid","p","4","Phylogenetic","true","experimental"
"","null","html-keyboard-response","324","325138","0.0-13.0-2.37","Cf9bmm76sG","5fd5381b5807b616d910c586","6617fad957f7c6a12ea16e26","6622cd6cc8a4c02db902d0fe","
    <div id=""grid-container"">
        <!-- Grid items will be dynamically added here -->
    </div>    ","null","","","","","","","","","","","",""
"","null","html-keyboard-response","325","325840","0.0-13.0-0.38","Cf9bmm76sG","5fd5381b5807b616d910c586","6617fad957f7c6a12ea16e26","6622cd6cc8a4c02db902d0fe","fixation cross","null","","","","","","","","","","","",""
"","770","html-keyboard-response","326","326610","0.0-13.0-1.38","Cf9bmm76sG","5fd5381b5807b616d910c586","6617fad957f7c6a12ea16e26","6622cd6cc8a4c02db902d0fe","image grid","q","","","","","Phylogenetic_Distractor_Threat_target","800","ongrid","q","7","Phylogenetic","true","experimental"
"","null","html-keyboard-response","327","326763","0.0-13.0-2.38","Cf9bmm76sG","5fd5381b5807b616d910c586","6617fad957f7c6a12ea16e26","6622cd6cc8a4c02db902d0fe","
    <div id=""grid-container"">
        <!-- Grid items will be dynamically added here -->
    </div>    ","null","","","","","","","","","","","",""
"","null","html-keyboard-response","328","327465","0.0-13.0-0.39","Cf9bmm76sG","5fd5381b5807b616d910c586","6617fad957f7c6a12ea16e26","6622cd6cc8a4c02db902d0fe","fixation cross","null","","","","","","","","","","","",""
"","787","html-keyboard-response","329","328253","0.0-13.0-1.39","Cf9bmm76sG","5fd5381b5807b616d910c586","6617fad957f7c6a12ea16e26","6622cd6cc8a4c02db902d0fe","image grid","p","","","","","Phylogenetic_Distractor_Nonthreat_target","800","ongrid","p","1","Phylogenetic","true","experimental"
"","null","html-keyboard-response","330","328406","0.0-13.0-2.39","Cf9bmm76sG","5fd5381b5807b616d910c586","6617fad957f7c6a12ea16e26","6622cd6cc8a4c02db902d0fe","
    <div id=""grid-container"">
        <!-- Grid items will be dynamically added here -->
    </div>    ","null","","","","","","","","","","","",""
"","6737","html-keyboard-response","331","335345","0.0-14.0","Cf9bmm76sG","5fd5381b5807b616d910c586","6617fad957f7c6a12ea16e26","6622cd6cc8a4c02db902d0fe","break screen"," ","","","","","","","","","","","",""
"","null","html-keyboard-response","332","337847","0.0-15.0-0.0","Cf9bmm76sG","5fd5381b5807b616d910c586","6617fad957f7c6a12ea16e26","6622cd6cc8a4c02db902d0fe","fixation cross","null","","","","","","","","","","","",""
"","1402","html-keyboard-response","333","339249","0.0-15.0-1.0","Cf9bmm76sG","5fd5381b5807b616d910c586","6617fad957f7c6a12ea16e26","6622cd6cc8a4c02db902d0fe","image grid","p","","","","","Ontogenetic_Distractor_Nonthreat_target","2500","ongrid","p","2","Ontogenetic","true","experimental"
"","null","html-keyboard-response","334","339402","0.0-15.0-2.0","Cf9bmm76sG","5fd5381b5807b616d910c586","6617fad957f7c6a12ea16e26","6622cd6cc8a4c02db902d0fe","
    <div id=""grid-container"">
        <!-- Grid items will be dynamically added here -->
    </div>    ","null","","","","","","","","","","","",""
"","null","html-keyboard-response","335","340105","0.0-15.0-0.1","Cf9bmm76sG","5fd5381b5807b616d910c586","6617fad957f7c6a12ea16e26","6622cd6cc8a4c02db902d0fe","fixation cross","null","","","","","","","","","","","",""
"","1118","html-keyboard-response","336","341224","0.0-15.0-1.1","Cf9bmm76sG","5fd5381b5807b616d910c586","6617fad957f7c6a12ea16e26","6622cd6cc8a4c02db902d0fe","image grid"," ","","","","","Ontogenetic_Distractor_Threat_target","2500","ongrid","q","7","Ontogenetic","false","experimental"
"","null","html-keyboard-response","337","341376","0.0-15.0-2.1","Cf9bmm76sG","5fd5381b5807b616d910c586","6617fad957f7c6a12ea16e26","6622cd6cc8a4c02db902d0fe","
    <div id=""grid-container"">
        <!-- Grid items will be dynamically added here -->
    </div>    ","null","","","","","","","","","","","",""
"","null","html-keyboard-response","338","342079","0.0-15.0-0.2","Cf9bmm76sG","5fd5381b5807b616d910c586","6617fad957f7c6a12ea16e26","6622cd6cc8a4c02db902d0fe","fixation cross","null","","","","","","","","","","","",""
"","1334","html-keyboard-response","339","343414","0.0-15.0-1.2","Cf9bmm76sG","5fd5381b5807b616d910c586","6617fad957f7c6a12ea16e26","6622cd6cc8a4c02db902d0fe","image grid","q","","","","","Ontogenetic_Distractor_Threat_target","2500","ongrid","q","3","Ontogenetic","true","experimental"
"","null","html-keyboard-response","340","343567","0.0-15.0-2.2","Cf9bmm76sG","5fd5381b5807b616d910c586","6617fad957f7c6a12ea16e26","6622cd6cc8a4c02db902d0fe","
    <div id=""grid-container"">
        <!-- Grid items will be dynamically added here -->
    </div>    ","null","","","","","","","","","","","",""
"","null","html-keyboard-response","341","344270","0.0-15.0-0.3","Cf9bmm76sG","5fd5381b5807b616d910c586","6617fad957f7c6a12ea16e26","6622cd6cc8a4c02db902d0fe","fixation cross","null","","","","","","","","","","","",""
"","758","html-keyboard-response","342","345028","0.0-15.0-1.3","Cf9bmm76sG","5fd5381b5807b616d910c586","6617fad957f7c6a12ea16e26","6622cd6cc8a4c02db902d0fe","image grid","q","","","","","Ontogenetic_Distractor_Threat_target","2500","ongrid","q","1","Ontogenetic","true","experimental"
"","null","html-keyboard-response","343","345180","0.0-15.0-2.3","Cf9bmm76sG","5fd5381b5807b616d910c586","6617fad957f7c6a12ea16e26","6622cd6cc8a4c02db902d0fe","
    <div id=""grid-container"">
        <!-- Grid items will be dynamically added here -->
    </div>    ","null","","","","","","","","","","","",""
"","null","html-keyboard-response","344","345883","0.0-15.0-0.4","Cf9bmm76sG","5fd5381b5807b616d910c586","6617fad957f7c6a12ea16e26","6622cd6cc8a4c02db902d0fe","fixation cross","null","","","","","","","","","","","",""
"","1506","html-keyboard-response","345","347390","0.0-15.0-1.4","Cf9bmm76sG","5fd5381b5807b616d910c586","6617fad957f7c6a12ea16e26","6622cd6cc8a4c02db902d0fe","image grid","p","","","","","Ontogenetic_Distractor_Nonthreat_target","2500","ongrid","p","9","Ontogenetic","true","experimental"
"","null","html-keyboard-response","346","347542","0.0-15.0-2.4","Cf9bmm76sG","5fd5381b5807b616d910c586","6617fad957f7c6a12ea16e26","6622cd6cc8a4c02db902d0fe","
    <div id=""grid-container"">
        <!-- Grid items will be dynamically added here -->
    </div>    ","null","","","","","","","","","","","",""
"","null","html-keyboard-response","347","348244","0.0-15.0-0.5","Cf9bmm76sG","5fd5381b5807b616d910c586","6617fad957f7c6a12ea16e26","6622cd6cc8a4c02db902d0fe","fixation cross","null","","","","","","","","","","","",""
"","771","html-keyboard-response","348","349015","0.0-15.0-1.5","Cf9bmm76sG","5fd5381b5807b616d910c586","6617fad957f7c6a12ea16e26","6622cd6cc8a4c02db902d0fe","image grid","q","","","","","Ontogenetic_Distractor_Threat_target","2500","ongrid","q","2","Ontogenetic","true","experimental"
"","null","html-keyboard-response","349","349167","0.0-15.0-2.5","Cf9bmm76sG","5fd5381b5807b616d910c586","6617fad957f7c6a12ea16e26","6622cd6cc8a4c02db902d0fe","
    <div id=""grid-container"">
        <!-- Grid items will be dynamically added here -->
    </div>    ","null","","","","","","","","","","","",""
"","null","html-keyboard-response","350","349868","0.0-15.0-0.6","Cf9bmm76sG","5fd5381b5807b616d910c586","6617fad957f7c6a12ea16e26","6622cd6cc8a4c02db902d0fe","fixation cross","null","","","","","","","","","","","",""
"","1015","html-keyboard-response","351","350884","0.0-15.0-1.6","Cf9bmm76sG","5fd5381b5807b616d910c586","6617fad957f7c6a12ea16e26","6622cd6cc8a4c02db902d0fe","image grid"," ","","","","","Ontogenetic_Distractor_notarget","2500","ongrid"," ","7","Ontogenetic","true","experimental"
"","null","html-keyboard-response","352","351035","0.0-15.0-2.6","Cf9bmm76sG","5fd5381b5807b616d910c586","6617fad957f7c6a12ea16e26","6622cd6cc8a4c02db902d0fe","
    <div id=""grid-container"">
        <!-- Grid items will be dynamically added here -->
    </div>    ","null","","","","","","","","","","","",""
"","null","html-keyboard-response","353","351738","0.0-15.0-0.7","Cf9bmm76sG","5fd5381b5807b616d910c586","6617fad957f7c6a12ea16e26","6622cd6cc8a4c02db902d0fe","fixation cross","null","","","","","","","","","","","",""
"","742","html-keyboard-response","354","352481","0.0-15.0-1.7","Cf9bmm76sG","5fd5381b5807b616d910c586","6617fad957f7c6a12ea16e26","6622cd6cc8a4c02db902d0fe","image grid","q","","","","","Ontogenetic_Distractor_Threat_target","2500","ongrid","q","6","Ontogenetic","true","experimental"
"","null","html-keyboard-response","355","352634","0.0-15.0-2.7","Cf9bmm76sG","5fd5381b5807b616d910c586","6617fad957f7c6a12ea16e26","6622cd6cc8a4c02db902d0fe","
    <div id=""grid-container"">
        <!-- Grid items will be dynamically added here -->
    </div>    ","null","","","","","","","","","","","",""
"","null","html-keyboard-response","356","353337","0.0-15.0-0.8","Cf9bmm76sG","5fd5381b5807b616d910c586","6617fad957f7c6a12ea16e26","6622cd6cc8a4c02db902d0fe","fixation cross","null","","","","","","","","","","","",""
"","704","html-keyboard-response","357","354042","0.0-15.0-1.8","Cf9bmm76sG","5fd5381b5807b616d910c586","6617fad957f7c6a12ea16e26","6622cd6cc8a4c02db902d0fe","image grid","q","","","","","Ontogenetic_Distractor_Threat_target","2500","ongrid","q","2","Ontogenetic","true","experimental"
"","null","html-keyboard-response","358","354194","0.0-15.0-2.8","Cf9bmm76sG","5fd5381b5807b616d910c586","6617fad957f7c6a12ea16e26","6622cd6cc8a4c02db902d0fe","
    <div id=""grid-container"">
        <!-- Grid items will be dynamically added here -->
    </div>    ","null","","","","","","","","","","","",""
"","null","html-keyboard-response","359","354897","0.0-15.0-0.9","Cf9bmm76sG","5fd5381b5807b616d910c586","6617fad957f7c6a12ea16e26","6622cd6cc8a4c02db902d0fe","fixation cross","null","","","","","","","","","","","",""
"","821","html-keyboard-response","360","355718","0.0-15.0-1.9","Cf9bmm76sG","5fd5381b5807b616d910c586","6617fad957f7c6a12ea16e26","6622cd6cc8a4c02db902d0fe","image grid"," ","","","","","Ontogenetic_Distractor_notarget","2500","ongrid"," ","2","Ontogenetic","true","experimental"
"","null","html-keyboard-response","361","355870","0.0-15.0-2.9","Cf9bmm76sG","5fd5381b5807b616d910c586","6617fad957f7c6a12ea16e26","6622cd6cc8a4c02db902d0fe","
    <div id=""grid-container"">
        <!-- Grid items will be dynamically added here -->
    </div>    ","null","","","","","","","","","","","",""
"","null","html-keyboard-response","362","356571","0.0-15.0-0.10","Cf9bmm76sG","5fd5381b5807b616d910c586","6617fad957f7c6a12ea16e26","6622cd6cc8a4c02db902d0fe","fixation cross","null","","","","","","","","","","","",""
"","864","html-keyboard-response","363","357436","0.0-15.0-1.10","Cf9bmm76sG","5fd5381b5807b616d910c586","6617fad957f7c6a12ea16e26","6622cd6cc8a4c02db902d0fe","image grid","q","","","","","Ontogenetic_Distractor_Threat_target","2500","ongrid","q","3","Ontogenetic","true","experimental"
"","null","html-keyboard-response","364","357588","0.0-15.0-2.10","Cf9bmm76sG","5fd5381b5807b616d910c586","6617fad957f7c6a12ea16e26","6622cd6cc8a4c02db902d0fe","
    <div id=""grid-container"">
        <!-- Grid items will be dynamically added here -->
    </div>    ","null","","","","","","","","","","","",""
"","null","html-keyboard-response","365","358291","0.0-15.0-0.11","Cf9bmm76sG","5fd5381b5807b616d910c586","6617fad957f7c6a12ea16e26","6622cd6cc8a4c02db902d0fe","fixation cross","null","","","","","","","","","","","",""
"","699","html-keyboard-response","366","358990","0.0-15.0-1.11","Cf9bmm76sG","5fd5381b5807b616d910c586","6617fad957f7c6a12ea16e26","6622cd6cc8a4c02db902d0fe","image grid","q","","","","","Ontogenetic_Distractor_Threat_target","2500","ongrid","q","6","Ontogenetic","true","experimental"
"","null","html-keyboard-response","367","359143","0.0-15.0-2.11","Cf9bmm76sG","5fd5381b5807b616d910c586","6617fad957f7c6a12ea16e26","6622cd6cc8a4c02db902d0fe","
    <div id=""grid-container"">
        <!-- Grid items will be dynamically added here -->
    </div>    ","null","","","","","","","","","","","",""
"","null","html-keyboard-response","368","359846","0.0-15.0-0.12","Cf9bmm76sG","5fd5381b5807b616d910c586","6617fad957f7c6a12ea16e26","6622cd6cc8a4c02db902d0fe","fixation cross","null","","","","","","","","","","","",""
"","1087","html-keyboard-response","369","360933","0.0-15.0-1.12","Cf9bmm76sG","5fd5381b5807b616d910c586","6617fad957f7c6a12ea16e26","6622cd6cc8a4c02db902d0fe","image grid","p","","","","","Ontogenetic_Distractor_Nonthreat_target","2500","ongrid","p","9","Ontogenetic","true","experimental"
"","null","html-keyboard-response","370","361086","0.0-15.0-2.12","Cf9bmm76sG","5fd5381b5807b616d910c586","6617fad957f7c6a12ea16e26","6622cd6cc8a4c02db902d0fe","
    <div id=""grid-container"">
